time_aligned_sec,L_Acc_X_aligned,L_Acc_Y_aligned,L_Acc_Z_aligned,L_Gyro_Z_aligned,R_Acc_X_aligned,R_Acc_Y_aligned,R_Acc_Z_aligned,R_Gyro_Z_aligned,T_Acc_X_aligned,T_Acc_Y_aligned,T_Acc_Z_aligned,T_Gyro_X_aligned,T_Gyro_Y_aligned,T_Gyro_Z_aligned
0.0,3.976,7.76,-4.694,70.381,-3.832,7.329,5.03,64.516,-4.458,6.759,-5.033,99.707,-17.595,64.516
0.005,4.024,7.999,-4.694,70.381,-3.832,7.568,5.03,64.516,-4.458,7.046,-5.177,99.707,-17.595,64.516
0.01,3.976,8.095,-4.646,70.381,-3.832,7.712,4.982,64.516,-4.458,7.19,-5.033,99.707,-17.595,64.516
0.015,3.976,8.143,-4.646,64.516,-3.784,7.76,4.982,64.516,-4.458,7.334,-5.033,99.707,-17.595,64.516
0.02,3.88,8.047,-4.646,64.516,-3.784,7.808,4.934,64.516,-4.458,7.334,-5.033,99.707,-17.595,64.516
0.025,3.832,7.999,-4.742,64.516,-3.736,7.856,4.982,64.516,-4.314,7.478,-5.033,105.572,-11.73,64.516
0.03,3.784,7.951,-4.742,64.516,-3.688,7.856,5.03,64.516,-4.314,7.621,-5.033,105.572,-11.73,64.516
0.035,3.688,7.904,-4.742,58.651,-3.64,7.904,5.077,58.651,-4.314,7.765,-5.033,105.572,-11.73,64.516
0.04,3.688,7.951,-4.742,58.651,-3.593,7.951,5.077,58.651,-4.314,7.909,-5.177,105.572,-11.73,58.651
0.045,3.64,7.808,-4.79,58.651,-3.593,7.856,5.077,58.651,-4.314,7.909,-5.177,105.572,-11.73,58.651
0.05,3.64,7.76,-4.886,58.651,-3.545,7.712,5.173,58.651,-4.314,7.765,-5.177,99.707,-11.73,58.651
0.055,3.688,7.616,-4.934,52.786,-3.449,7.568,5.221,52.786,-4.17,7.621,-5.177,99.707,-11.73,52.786
0.06,3.688,7.472,-5.03,52.786,-3.497,7.425,5.269,52.786,-4.026,7.334,-5.321,99.707,-11.73,52.786
0.065,3.736,7.472,-5.03,52.786,-3.449,7.329,5.365,52.786,-4.026,7.19,-5.321,99.707,-11.73,52.786
0.07,3.928,7.568,-5.125,52.786,-3.497,7.281,5.413,52.786,-4.026,7.046,-5.464,99.707,-5.865,52.786
0.075,3.784,7.377,-5.221,52.786,-3.449,7.425,5.509,52.786,-4.026,7.046,-5.464,99.707,-5.865,52.786
0.08,3.736,7.329,-5.125,46.921,-3.353,7.76,5.509,52.786,-3.739,7.334,-5.608,99.707,0.0,52.786
0.085,3.736,7.52,-4.982,46.921,-3.305,7.951,5.413,46.921,-3.739,8.053,-5.608,99.707,0.0,46.921
0.09,3.688,7.712,-4.886,41.056,-3.305,8.095,5.317,46.921,-3.739,8.34,-5.464,93.842,5.865,46.921
0.095,3.64,7.904,-4.742,41.056,-3.209,8.191,5.173,41.056,-3.739,8.484,-5.464,87.977,5.865,46.921
0.1,3.497,7.808,-4.646,35.191,-3.209,8.335,5.03,35.191,-3.595,8.484,-5.321,82.111,11.73,41.056
0.105,3.257,7.712,-4.503,29.326,-3.066,8.383,4.982,35.191,-3.739,8.628,-5.177,70.381,17.595,35.191
0.11,3.209,7.808,-4.311,29.326,-3.018,8.383,4.838,29.326,-3.595,8.772,-5.033,64.516,17.595,29.326
0.115,3.257,7.904,-4.167,23.46,-3.066,8.383,4.646,29.326,-3.739,8.916,-5.033,58.651,23.46,29.326
0.12,3.161,7.904,-4.072,23.46,-3.066,8.335,4.503,23.46,-3.739,8.772,-4.745,46.921,23.46,23.46
0.125,2.97,7.904,-3.976,17.595,-2.97,8.191,4.455,17.595,-3.739,8.628,-4.602,41.056,23.46,23.46
0.13,2.922,7.951,-3.88,17.595,-2.922,7.999,4.359,17.595,-3.739,8.34,-4.458,29.326,23.46,17.595
0.135,2.922,7.999,-3.832,11.73,-2.874,7.856,4.263,17.595,-3.739,8.053,-4.458,29.326,23.46,17.595
0.14,2.826,7.904,-3.832,11.73,-2.874,7.664,4.215,11.73,-3.595,7.765,-4.314,23.46,23.46,11.73
0.145,2.635,7.808,-3.88,11.73,-2.73,7.425,4.215,11.73,-3.595,7.334,-4.314,23.46,29.326,11.73
0.15,2.491,7.712,-3.88,17.595,-2.587,7.233,4.263,17.595,-3.451,7.046,-4.314,23.46,23.46,11.73
0.155,2.443,7.664,-3.832,23.46,-2.539,7.137,4.263,17.595,-3.307,6.759,-4.314,29.326,23.46,11.73
0.16,2.395,7.616,-3.784,29.326,-2.443,7.089,4.263,23.46,-3.307,6.615,-4.314,29.326,23.46,17.595
0.165,2.347,7.52,-3.736,29.326,-2.443,7.041,4.167,29.326,-3.164,6.471,-4.314,35.191,23.46,23.46
0.17,2.347,7.425,-3.688,35.191,-2.443,6.993,4.119,35.191,-3.164,6.471,-4.314,41.056,23.46,23.46
0.17500000000000002,2.299,7.472,-3.688,41.056,-2.395,7.041,4.072,41.056,-3.164,6.615,-4.17,46.921,23.46,35.191
0.18,2.347,7.568,-3.64,46.921,-2.347,7.089,4.072,46.921,-3.164,6.615,-4.17,52.786,23.46,35.191
0.185,2.347,7.664,-3.64,52.786,-2.299,7.137,4.024,46.921,-3.02,6.759,-4.17,58.651,23.46,41.056
0.19,2.347,7.808,-3.64,52.786,-2.203,7.233,4.024,52.786,-3.02,6.759,-4.17,58.651,17.595,46.921
0.195,2.299,7.951,-3.64,58.651,-2.108,7.329,4.024,58.651,-2.876,6.759,-4.17,64.516,17.595,52.786
0.2,2.251,8.191,-3.593,64.516,-1.964,7.472,4.024,58.651,-2.732,6.902,-4.026,70.381,17.595,52.786
0.20500000000000002,2.108,8.383,-3.593,64.516,-1.772,7.664,3.928,64.516,-2.445,7.046,-4.026,76.246,17.595,58.651
0.21,1.964,8.574,-3.497,70.381,-1.533,7.951,3.88,64.516,-2.157,7.19,-4.026,76.246,23.46,58.651
0.215,1.772,8.814,-3.305,70.381,-1.389,8.335,3.736,70.381,-1.869,7.621,-3.883,82.111,23.46,64.516
0.22,1.437,9.197,-3.114,76.246,-1.198,8.766,3.593,70.381,-1.726,8.197,-3.883,87.977,29.326,70.381
0.225,1.054,9.484,-2.826,70.381,-0.91,9.245,3.353,76.246,-1.726,8.628,-3.595,93.842,35.191,70.381
0.23,0.671,9.532,-2.299,70.381,-0.719,9.58,3.018,70.381,-1.582,9.203,-3.451,93.842,41.056,70.381
0.23500000000000001,0.431,9.628,-1.82,70.381,-0.479,9.772,2.491,70.381,-1.582,9.635,-3.02,93.842,41.056,70.381
0.24,0.096,9.724,-1.485,64.516,-0.335,9.963,2.012,70.381,-1.438,10.066,-2.588,93.842,41.056,70.381
0.245,0.0,9.867,-1.293,64.516,-0.192,10.059,1.772,70.381,-1.438,10.21,-2.157,93.842,41.056,70.381
0.25,-0.048,9.867,-1.198,58.651,-0.048,10.155,1.629,64.516,-1.294,10.354,-1.869,87.977,41.056,64.516
0.255,-0.144,9.772,-1.15,58.651,-0.048,10.155,1.533,58.651,-1.294,10.354,-1.726,87.977,35.191,58.651
0.26,-0.144,9.724,-1.102,52.786,0.048,10.107,1.437,58.651,-1.294,10.497,-1.582,82.111,35.191,58.651
0.265,-0.192,9.676,-0.958,52.786,0.048,10.011,1.437,52.786,-1.15,10.354,-1.438,82.111,29.326,52.786
0.27,-0.144,9.724,-0.814,46.921,0.048,9.963,1.293,52.786,-1.15,10.354,-1.438,76.246,23.46,52.786
0.275,-0.096,9.772,-0.766,46.921,0.096,9.772,1.102,46.921,-1.15,10.21,-1.294,76.246,23.46,46.921
0.28,-0.144,9.628,-0.862,41.056,0.096,9.628,1.15,46.921,-1.007,9.778,-1.15,70.381,17.595,46.921
0.28500000000000003,-0.192,9.388,-1.006,41.056,0.24,9.436,1.245,41.056,-1.007,9.635,-1.15,70.381,11.73,41.056
0.29,0.0,9.341,-1.15,46.921,0.335,9.245,1.437,41.056,-0.719,9.347,-1.294,70.381,11.73,41.056
0.295,0.192,9.436,-1.198,46.921,0.192,9.197,1.533,41.056,-0.575,9.203,-1.438,70.381,5.865,41.056
0.3,0.096,9.388,-1.102,46.921,0.192,9.293,1.485,46.921,-0.575,9.203,-1.582,76.246,5.865,41.056
0.305,-0.144,9.436,-1.054,46.921,0.287,9.388,1.437,46.921,-0.575,9.347,-1.582,76.246,5.865,46.921
0.31,-0.144,9.532,-0.862,46.921,0.383,9.58,1.389,46.921,-0.431,9.491,-1.438,76.246,11.73,46.921
0.315,-0.192,9.628,-0.719,46.921,0.431,9.724,1.198,46.921,-0.575,9.778,-1.438,76.246,11.73,46.921
0.32,-0.335,9.628,-0.623,46.921,0.383,9.867,1.054,46.921,-0.431,9.922,-1.294,76.246,11.73,46.921
0.325,-0.527,9.676,-0.575,41.056,0.479,9.915,0.958,41.056,-0.575,10.21,-1.007,76.246,11.73,41.056
0.33,-0.575,9.82,-0.431,35.191,0.575,9.963,0.91,41.056,-0.575,10.21,-1.007,76.246,11.73,41.056
0.335,-0.431,9.867,-0.24,35.191,0.479,10.011,0.719,35.191,-0.575,10.21,-1.007,70.381,5.865,41.056
0.34,-0.287,9.82,-0.096,35.191,0.383,10.011,0.527,35.191,-0.719,10.21,-0.863,70.381,5.865,35.191
0.34500000000000003,-0.479,9.772,-0.144,29.326,0.383,9.915,0.479,29.326,-0.719,10.21,-0.575,70.381,5.865,35.191
0.35000000000000003,-0.383,9.676,-0.24,29.326,0.479,9.82,0.527,29.326,-0.719,10.066,-0.575,64.516,0.0,29.326
0.355,-0.192,9.58,-0.335,23.46,0.431,9.724,0.623,23.46,-0.575,9.922,-0.575,64.516,0.0,29.326
0.36,-0.048,9.484,-0.383,23.46,0.383,9.58,0.719,23.46,-0.575,9.778,-0.719,64.516,-5.865,23.46
0.365,-0.096,9.341,-0.383,23.46,0.383,9.484,0.766,23.46,-0.431,9.635,-0.719,64.516,-5.865,23.46
0.37,-0.192,9.341,-0.287,23.46,0.479,9.388,0.719,23.46,-0.431,9.635,-0.863,64.516,-5.865,23.46
0.375,-0.287,9.388,-0.096,23.46,0.575,9.436,0.575,23.46,-0.288,9.635,-0.719,64.516,-5.865,23.46
0.38,-0.383,9.388,0.144,23.46,0.623,9.436,0.383,23.46,-0.144,9.635,-0.719,64.516,0.0,17.595
0.385,-0.479,9.341,0.383,23.46,0.671,9.388,0.192,23.46,0.0,9.635,-0.431,64.516,0.0,23.46
0.39,-0.575,9.341,0.719,23.46,0.671,9.388,-0.096,23.46,-0.144,9.635,-0.288,58.651,0.0,23.46
0.395,-0.671,9.436,1.006,23.46,0.671,9.388,-0.431,23.46,-0.288,9.635,0.144,58.651,0.0,23.46
0.4,-0.766,9.532,1.15,23.46,0.719,9.388,-0.671,23.46,-0.288,9.491,0.431,58.651,0.0,23.46
0.405,-0.814,9.628,1.341,23.46,0.719,9.436,-0.862,23.46,-0.288,9.491,0.719,58.651,0.0,23.46
0.41000000000000003,-0.814,9.676,1.437,23.46,0.671,9.532,-1.006,23.46,-0.431,9.491,0.863,58.651,0.0,23.46
0.41500000000000004,-0.719,9.628,1.389,23.46,0.575,9.58,-1.102,23.46,-0.575,9.491,1.007,64.516,-5.865,23.46
0.42,-0.527,9.532,1.198,23.46,0.527,9.628,-1.006,23.46,-0.575,9.635,1.15,64.516,-5.865,23.46
0.425,-0.24,9.484,0.91,23.46,0.383,9.628,-0.766,23.46,-0.719,9.635,1.007,64.516,-11.73,23.46
0.43,-0.048,9.388,0.623,17.595,0.287,9.628,-0.479,17.595,-0.719,9.922,0.719,64.516,-17.595,23.46
0.435,0.144,9.197,0.24,17.595,0.192,9.532,-0.144,17.595,-0.719,9.778,0.431,64.516,-17.595,17.595
0.44,0.287,9.005,-0.048,17.595,0.144,9.436,0.192,17.595,-0.719,9.778,0.144,64.516,-23.46,17.595
0.445,0.479,8.909,-0.24,17.595,0.048,9.388,0.479,17.595,-0.719,9.778,-0.288,64.516,-23.46,17.595
0.45,0.575,9.005,-0.335,11.73,-0.096,9.484,0.623,11.73,-0.719,9.922,-0.575,58.651,-17.595,17.595
0.455,0.575,9.149,-0.383,11.73,-0.096,9.628,0.719,11.73,-0.719,10.066,-0.719,52.786,-17.595,11.73
0.46,0.479,9.293,-0.383,5.865,-0.096,9.772,0.719,11.73,-0.863,10.21,-0.863,46.921,-17.595,11.73
0.465,0.479,9.436,-0.287,5.865,-0.048,9.915,0.719,5.865,-0.863,10.354,-0.863,41.056,-11.73,11.73
0.47000000000000003,0.479,9.532,-0.144,5.865,-0.048,10.059,0.623,5.865,-0.863,10.497,-0.863,29.326,-11.73,5.865
0.47500000000000003,0.383,9.628,-0.048,-0.0,-0.096,10.107,0.479,5.865,-0.863,10.641,-0.719,23.46,-11.73,5.865
0.48,0.335,9.628,-0.096,-0.0,0.0,10.155,0.431,0.0,-0.863,10.641,-0.575,17.595,-5.865,0.0
0.485,0.479,9.676,-0.144,-5.865,0.0,10.107,0.431,-5.865,-0.863,10.641,-0.575,5.865,-5.865,0.0
0.49,0.575,9.82,-0.144,-5.865,-0.096,10.107,0.479,-5.865,-0.863,10.641,-0.575,5.865,-5.865,-5.865
0.495,0.671,9.915,-0.192,-5.865,-0.192,10.107,0.527,-5.865,-0.863,10.497,-0.575,-5.865,0.0,-5.865
0.5,0.671,9.963,-0.24,-11.73,-0.287,10.059,0.575,-5.865,-1.007,10.354,-0.575,-5.865,0.0,-5.865
0.505,0.671,10.011,-0.287,-11.73,-0.335,10.011,0.623,-5.865,-1.15,10.21,-0.719,-11.73,0.0,-11.73
0.51,0.671,10.059,-0.24,-11.73,-0.383,9.963,0.623,-11.73,-1.15,10.066,-0.719,-17.595,0.0,-11.73
0.515,0.575,10.107,-0.144,-11.73,-0.431,9.963,0.575,-11.73,-1.15,10.066,-0.719,-17.595,5.865,-11.73
0.52,0.431,10.251,0.0,-11.73,-0.383,10.059,0.479,-11.73,-1.294,9.922,-0.719,-17.595,5.865,-11.73
0.525,0.431,10.346,0.24,-11.73,-0.383,10.155,0.287,-11.73,-1.294,10.066,-0.575,-17.595,5.865,-11.73
0.53,0.431,10.394,0.287,-11.73,-0.431,10.155,0.144,-11.73,-1.438,10.066,-0.431,-17.595,5.865,-11.73
0.535,0.479,10.299,0.24,-11.73,-0.479,10.059,0.096,-11.73,-1.582,10.066,-0.144,-17.595,5.865,-11.73
0.54,0.623,10.155,0.144,-11.73,-0.479,9.915,0.144,-11.73,-1.582,9.778,-0.144,-11.73,5.865,-11.73
0.545,0.814,9.82,0.048,-11.73,-0.575,9.676,0.287,-11.73,-1.438,9.635,-0.144,-11.73,5.865,-11.73
0.55,0.862,9.676,0.0,-11.73,-0.575,9.436,0.335,-11.73,-1.438,9.347,-0.288,-5.865,0.0,-11.73
0.555,0.958,9.676,0.096,-5.865,-0.623,9.293,0.335,-11.73,-1.438,9.203,-0.431,0.0,0.0,-11.73
0.56,0.91,9.58,0.287,-5.865,-0.671,9.245,0.24,-5.865,-1.294,9.059,-0.431,0.0,0.0,-11.73
0.5650000000000001,0.766,9.484,0.479,-5.865,-0.671,9.341,0.096,-5.865,-1.438,9.059,-0.288,5.865,0.0,-5.865
0.5700000000000001,0.623,9.532,0.671,-0.0,-0.575,9.436,-0.144,0.0,-1.438,9.203,-0.144,5.865,5.865,-5.865
0.5750000000000001,0.575,9.676,0.862,-0.0,-0.479,9.532,-0.335,0.0,-1.438,9.491,0.144,5.865,5.865,-5.865
0.58,0.527,9.772,1.102,-0.0,-0.527,9.724,-0.527,0.0,-1.438,9.635,0.288,5.865,5.865,0.0
0.585,0.431,9.772,1.15,-0.0,-0.527,9.82,-0.766,0.0,-1.582,9.778,0.431,5.865,5.865,0.0
0.59,0.383,9.772,1.15,-5.865,-0.479,9.82,-0.766,-5.865,-1.582,9.922,0.719,5.865,5.865,0.0
0.595,0.431,9.82,1.198,-5.865,-0.527,9.724,-0.766,-5.865,-1.582,9.922,0.719,5.865,0.0,-5.865
0.6,0.431,9.772,1.293,-5.865,-0.575,9.628,-0.862,-5.865,-1.726,9.635,0.719,5.865,0.0,-5.865
0.605,0.383,9.676,1.245,-11.73,-0.575,9.484,-0.91,-5.865,-1.726,9.491,0.863,5.865,-5.865,-5.865
0.61,0.431,9.484,1.245,-5.865,-0.575,9.293,-0.862,-5.865,-1.726,9.347,0.863,5.865,-5.865,-11.73
0.615,0.479,9.484,1.198,-5.865,-0.623,9.101,-0.862,-5.865,-1.726,9.059,0.863,5.865,-11.73,-11.73
0.62,0.623,9.436,1.006,-5.865,-0.623,9.005,-0.766,-5.865,-1.726,8.772,0.863,17.595,-11.73,-5.865
0.625,0.814,9.293,0.671,-0.0,-0.671,8.957,-0.527,-5.865,-1.726,8.628,0.719,23.46,-17.595,-5.865
0.63,0.958,9.197,0.383,-0.0,-0.766,8.909,-0.192,0.0,-1.582,8.628,0.575,29.326,-23.46,-5.865
0.635,1.102,9.245,0.144,5.865,-0.862,8.909,0.048,0.0,-1.726,8.628,0.144,29.326,-23.46,0.0
0.64,1.245,9.293,-0.048,5.865,-0.91,8.957,0.287,5.865,-1.726,8.772,-0.144,35.191,-23.46,0.0
0.645,1.293,9.245,-0.192,11.73,-0.958,9.005,0.479,5.865,-1.582,8.772,-0.288,41.056,-23.46,5.865
0.65,1.245,9.293,-0.192,11.73,-0.958,9.101,0.575,11.73,-1.726,8.772,-0.575,41.056,-23.46,5.865
0.655,1.15,9.245,-0.096,11.73,-0.91,9.149,0.527,11.73,-1.582,9.059,-0.575,46.921,-23.46,11.73
0.66,1.102,9.245,-0.048,17.595,-0.862,9.245,0.431,17.595,-1.582,9.203,-0.575,46.921,-17.595,11.73
0.665,1.054,9.245,-0.096,17.595,-0.862,9.293,0.431,17.595,-1.582,9.347,-0.575,46.921,-17.595,17.595
0.67,1.054,9.197,-0.24,17.595,-0.814,9.388,0.527,17.595,-1.726,9.347,-0.431,46.921,-17.595,17.595
0.675,1.15,9.149,-0.431,17.595,-0.766,9.436,0.671,17.595,-1.726,9.635,-0.575,46.921,-17.595,17.595
0.68,1.245,9.149,-0.671,17.595,-0.766,9.436,0.862,17.595,-1.582,9.635,-0.719,41.056,-17.595,17.595
0.685,1.437,9.149,-1.006,17.595,-0.814,9.484,1.15,17.595,-1.438,9.778,-0.863,41.056,-11.73,17.595
0.6900000000000001,1.629,9.149,-1.341,17.595,-0.814,9.58,1.485,17.595,-1.438,9.922,-1.15,35.191,-11.73,17.595
0.6950000000000001,1.772,9.053,-1.677,17.595,-0.862,9.724,1.772,17.595,-1.294,10.066,-1.582,29.326,-5.865,17.595
0.7000000000000001,1.82,8.957,-1.964,11.73,-0.862,9.915,2.156,17.595,-1.294,10.354,-1.869,23.46,-5.865,17.595
0.705,2.012,9.005,-2.299,11.73,-0.862,10.059,2.395,17.595,-1.15,10.785,-2.301,17.595,0.0,17.595
0.71,2.443,9.197,-2.826,11.73,-0.862,10.251,2.778,11.73,-1.15,11.073,-2.588,5.865,11.73,11.73
0.715,2.635,9.101,-3.353,5.865,-0.862,10.634,3.257,11.73,-0.863,11.36,-2.876,-5.865,17.595,11.73
0.72,2.587,8.957,-3.593,-0.0,-0.862,11.161,3.688,5.865,-0.575,12.079,-3.451,-23.46,29.326,5.865
0.725,2.491,9.101,-3.449,-11.73,-0.862,11.64,3.832,0.0,-0.575,13.086,-3.883,-41.056,46.921,5.865
0.73,2.347,9.388,-3.114,-23.46,-0.862,11.736,3.497,-11.73,-0.863,14.092,-4.026,-64.516,64.516,-5.865
0.735,1.868,9.676,-2.778,-35.191,-0.719,11.496,3.114,-23.46,-0.863,14.092,-3.595,-93.842,76.246,-11.73
0.74,1.485,10.059,-2.347,-46.921,-0.479,11.113,2.73,-35.191,-0.719,13.373,-3.164,-123.167,93.842,-23.46
0.745,1.054,10.778,-1.724,-52.786,-0.479,10.778,2.108,-46.921,-0.575,12.511,-2.588,-152.493,105.572,-41.056
0.75,0.575,11.448,-0.958,-52.786,-0.24,10.778,1.533,-52.786,-0.719,11.36,-2.013,-170.088,117.302,-46.921
0.755,-0.383,11.4,0.479,-58.651,-0.527,10.73,0.623,-52.786,-0.719,10.641,-1.294,-181.818,123.167,-52.786
0.76,-1.533,10.969,1.964,-64.516,-0.192,10.442,-0.814,-64.516,-1.726,10.21,-0.431,-187.683,129.032,-58.651
0.765,-2.203,10.634,2.97,-70.381,-0.048,9.628,-2.108,-64.516,-2.013,9.635,1.15,-181.818,129.032,-64.516
0.77,-2.299,10.203,3.64,-64.516,0.048,8.574,-2.922,-64.516,-2.588,8.484,2.301,-170.088,123.167,-70.381
0.775,-1.82,10.107,4.024,-52.786,-0.144,7.712,-3.401,-58.651,-2.732,6.902,3.164,-158.358,105.572,-70.381
0.78,-1.102,10.155,3.928,-41.056,-0.575,7.041,-3.64,-46.921,-2.876,5.464,3.595,-140.762,76.246,-64.516
0.785,-0.719,10.011,3.736,-23.46,-0.91,6.562,-3.449,-35.191,-3.02,4.314,3.739,-111.437,52.786,-46.921
0.79,-0.335,9.915,3.449,-5.865,-1.006,6.227,-3.209,-17.595,-3.02,3.451,3.595,-76.246,23.46,-35.191
0.795,-0.335,9.436,3.209,11.73,-1.054,6.323,-3.018,0.0,-2.876,3.02,3.307,-41.056,5.865,-17.595
0.8,-0.335,9.149,2.587,35.191,-0.91,6.562,-2.73,17.595,-2.732,3.307,3.164,5.865,-17.595,0.0
0.805,-0.048,8.957,1.82,52.786,-0.575,6.658,-2.012,35.191,-2.588,4.026,2.876,52.786,-29.326,17.595
0.81,0.575,8.957,1.15,64.516,-0.383,6.946,-1.341,52.786,-1.869,4.602,2.157,87.977,-41.056,35.191
0.8150000000000001,1.15,8.909,0.575,82.111,-0.527,7.425,-0.766,70.381,-1.294,5.321,1.582,117.302,-52.786,52.786
0.8200000000000001,1.341,8.814,0.24,87.977,-0.623,8.047,-0.287,82.111,-1.007,6.183,1.007,140.762,-58.651,70.381
0.8250000000000001,1.245,8.67,0.048,93.842,-0.623,8.718,-0.048,87.977,-0.863,7.478,0.575,158.358,-58.651,82.111
0.8300000000000001,1.054,8.814,0.0,93.842,-0.431,9.388,0.144,93.842,-1.007,8.916,0.144,170.088,-58.651,87.977
0.835,0.958,8.957,-0.24,93.842,-0.24,10.059,0.24,93.842,-0.863,10.21,-0.0,170.088,-52.786,93.842
0.84,1.437,9.197,-0.671,87.977,-0.096,10.586,0.527,87.977,-0.719,11.216,-0.144,164.223,-46.921,87.977
0.845,1.437,9.053,-0.958,76.246,-0.144,11.352,0.958,82.111,-0.575,12.079,-0.575,152.493,-46.921,87.977
0.85,1.389,9.245,-1.198,64.516,-0.24,12.119,1.293,70.381,-0.288,13.373,-1.007,134.897,-35.191,76.246
0.855,1.437,9.436,-1.389,46.921,-0.144,12.55,1.533,58.651,-0.719,14.811,-1.438,111.437,-29.326,70.381
0.86,1.485,9.58,-1.437,29.326,-0.24,12.598,1.724,41.056,-0.575,15.387,-1.726,76.246,-23.46,58.651
0.865,1.341,9.532,-1.389,11.73,-0.383,12.31,1.724,23.46,-0.719,15.387,-2.013,41.056,-11.73,41.056
0.87,1.15,9.628,-1.389,-0.0,-0.383,11.688,1.677,11.73,-0.863,14.811,-1.869,5.865,-5.865,23.46
0.875,0.958,9.867,-1.389,-11.73,-0.192,11.065,1.724,-5.865,-0.863,13.661,-1.869,-29.326,5.865,5.865
0.88,0.862,10.394,-1.198,-17.595,-0.192,10.682,1.677,-11.73,-0.719,12.367,-1.869,-58.651,11.73,-5.865
0.885,0.862,10.825,-0.766,-23.46,-0.383,10.634,1.389,-17.595,-0.863,11.504,-1.726,-76.246,17.595,-11.73
0.89,0.383,11.209,-0.335,-29.326,-0.527,10.634,0.958,-23.46,-1.15,10.785,-1.438,-87.977,23.46,-17.595
0.895,-0.335,11.304,0.096,-35.191,-0.383,10.634,0.575,-35.191,-1.438,10.497,-1.007,-93.842,29.326,-23.46
0.9,-0.719,11.161,0.479,-35.191,-0.048,10.251,0.144,-35.191,-1.582,10.066,-0.575,-93.842,29.326,-35.191
0.905,-0.575,11.017,0.862,-29.326,-0.096,9.676,-0.24,-35.191,-1.582,9.347,-0.144,-87.977,29.326,-35.191
0.91,-0.048,11.113,1.054,-23.46,-0.335,9.053,-0.575,-29.326,-1.726,8.34,0.288,-76.246,23.46,-35.191
0.915,0.0,11.113,0.719,-17.595,-0.575,8.957,-0.623,-23.46,-1.869,7.334,0.575,-64.516,11.73,-29.326
0.92,0.048,10.778,0.24,-5.865,-0.527,8.766,-0.192,-11.73,-1.869,7.046,0.719,-41.056,0.0,-23.46
0.925,0.335,10.203,-0.335,-0.0,-0.431,8.862,0.287,-5.865,-1.726,6.759,0.288,-17.595,-5.865,-17.595
0.93,0.527,9.915,-0.91,11.73,-0.479,9.101,0.862,5.865,-1.438,7.334,-0.288,5.865,-11.73,-5.865
0.935,0.862,9.82,-1.293,23.46,-0.431,9.341,1.389,11.73,-1.438,8.34,-0.863,35.191,-17.595,5.865
0.9400000000000001,1.198,9.772,-1.437,29.326,-0.527,9.388,1.677,23.46,-1.294,8.916,-1.438,46.921,-17.595,11.73
0.9450000000000001,1.389,9.772,-1.341,35.191,-0.623,9.58,1.772,35.191,-1.15,9.203,-1.726,52.786,-17.595,23.46
0.9500000000000001,1.341,9.963,-1.198,41.056,-0.766,10.011,1.629,35.191,-1.007,9.491,-1.869,58.651,-17.595,29.326
0.9550000000000001,1.15,10.107,-1.102,35.191,-0.671,10.586,1.485,35.191,-1.294,10.354,-1.726,64.516,-11.73,35.191
0.96,1.15,10.155,-1.054,29.326,-0.479,11.017,1.437,35.191,-1.294,11.216,-1.582,58.651,-5.865,35.191
0.965,1.006,10.155,-1.102,29.326,-0.431,11.304,1.389,29.326,-1.15,11.935,-1.582,52.786,0.0,35.191
0.97,0.958,10.251,-1.102,17.595,-0.383,11.448,1.437,23.46,-1.15,12.367,-1.582,46.921,5.865,29.326
0.975,0.958,10.49,-1.054,11.73,-0.335,11.544,1.437,17.595,-1.15,12.654,-1.582,35.191,11.73,23.46
0.98,0.766,10.634,-0.958,-0.0,-0.24,11.592,1.341,5.865,-1.15,12.654,-1.582,17.595,17.595,17.595
0.985,0.479,10.778,-0.814,-11.73,0.048,11.448,1.245,0.0,-1.15,12.654,-1.438,0.0,17.595,5.865
0.99,0.335,10.825,-0.479,-17.595,-0.096,11.304,1.054,-11.73,-1.294,12.223,-1.294,-11.73,23.46,0.0
0.995,0.24,10.873,-0.144,-17.595,-0.192,11.257,0.766,-17.595,-1.15,11.792,-1.15,-23.46,29.326,-5.865
1.0,0.048,10.873,0.192,-23.46,-0.287,11.161,0.383,-23.46,-1.15,11.648,-0.863,-29.326,29.326,-11.73
1.0050000000000001,-0.192,10.873,0.479,-23.46,-0.144,10.969,0.048,-23.46,-1.15,11.36,-0.431,-35.191,29.326,-11.73
1.01,-0.335,10.921,0.623,-23.46,0.048,10.73,-0.144,-23.46,-1.294,11.073,-0.144,-41.056,29.326,-17.595
1.0150000000000001,-0.335,11.113,0.719,-29.326,0.144,10.586,-0.335,-23.46,-1.294,10.641,0.144,-41.056,23.46,-17.595
1.02,-0.192,11.352,0.719,-23.46,0.144,10.634,-0.383,-29.326,-1.15,10.354,0.288,-41.056,17.595,-23.46
1.025,0.0,11.448,0.623,-23.46,0.048,10.682,-0.335,-23.46,-1.007,10.21,0.288,-35.191,11.73,-23.46
1.03,0.048,11.304,0.479,-23.46,0.0,10.73,-0.24,-23.46,-1.007,10.066,0.288,-29.326,11.73,-23.46
1.035,0.096,11.161,0.24,-17.595,0.0,10.778,-0.048,-23.46,-1.007,10.21,0.288,-23.46,5.865,-23.46
1.04,0.144,11.113,0.048,-17.595,-0.048,10.873,0.192,-23.46,-1.007,10.497,-0.0,-17.595,5.865,-23.46
1.045,0.24,11.113,-0.048,-17.595,-0.048,10.969,0.335,-17.595,-1.007,10.641,-0.288,-5.865,0.0,-17.595
1.05,0.287,11.065,-0.096,-17.595,-0.096,11.017,0.431,-17.595,-1.007,10.929,-0.431,-5.865,0.0,-17.595
1.055,0.335,11.113,-0.144,-17.595,-0.144,11.065,0.479,-17.595,-1.15,11.073,-0.431,-5.865,0.0,-17.595
1.06,0.335,11.209,-0.192,-17.595,-0.192,11.017,0.527,-17.595,-1.15,11.073,-0.575,0.0,0.0,-17.595
1.065,0.335,11.257,-0.24,-23.46,-0.24,11.065,0.575,-17.595,-1.15,10.929,-0.575,0.0,0.0,-17.595
1.07,0.287,11.257,-0.287,-17.595,-0.24,11.161,0.623,-17.595,-1.15,11.073,-0.719,0.0,0.0,-17.595
1.075,0.335,11.257,-0.383,-23.46,-0.192,11.209,0.671,-23.46,-1.15,11.216,-0.719,0.0,0.0,-23.46
1.08,0.431,11.257,-0.383,-23.46,-0.287,11.209,0.719,-23.46,-1.294,11.216,-0.719,0.0,0.0,-23.46
1.085,0.479,11.209,-0.431,-29.326,-0.335,11.304,0.766,-29.326,-1.294,11.216,-0.863,5.865,0.0,-23.46
1.09,0.431,11.113,-0.383,-29.326,-0.335,11.161,0.814,-29.326,-1.294,11.36,-0.863,5.865,-5.865,-23.46
1.095,0.479,10.969,-0.335,-29.326,-0.383,10.969,0.766,-29.326,-1.294,11.216,-0.863,5.865,-5.865,-23.46
1.1,0.431,10.921,-0.24,-35.191,-0.431,10.825,0.623,-29.326,-1.438,10.929,-0.863,5.865,-5.865,-29.326
1.105,0.431,10.778,-0.24,-35.191,-0.431,10.73,0.623,-35.191,-1.438,10.785,-0.719,5.865,-5.865,-35.191
1.11,0.479,10.682,-0.24,-35.191,-0.479,10.586,0.575,-35.191,-1.438,10.641,-0.719,5.865,-5.865,-35.191
1.115,0.623,10.49,-0.24,-35.191,-0.527,10.346,0.623,-35.191,-1.438,10.497,-0.719,5.865,-11.73,-35.191
1.12,0.719,10.299,-0.24,-35.191,-0.575,10.107,0.575,-41.056,-1.438,10.21,-0.719,5.865,-11.73,-41.056
1.125,0.766,9.963,-0.24,-41.056,-0.671,9.867,0.575,-41.056,-1.438,9.922,-0.719,5.865,-11.73,-41.056
1.1300000000000001,0.814,9.628,-0.383,-41.056,-0.719,9.676,0.671,-41.056,-1.582,9.635,-0.719,5.865,-11.73,-41.056
1.135,0.91,9.532,-0.479,-41.056,-0.719,9.436,0.766,-41.056,-1.582,9.491,-0.719,17.595,-11.73,-41.056
1.1400000000000001,1.054,9.436,-0.527,-35.191,-0.766,9.341,0.862,-41.056,-1.582,9.347,-0.863,23.46,-11.73,-41.056
1.145,1.15,9.388,-0.575,-35.191,-0.862,9.197,0.958,-41.056,-1.582,9.203,-1.007,23.46,-11.73,-41.056
1.1500000000000001,1.198,9.293,-0.575,-35.191,-0.958,9.149,0.958,-41.056,-1.582,9.059,-1.007,23.46,-17.595,-41.056
1.155,1.245,9.245,-0.575,-41.056,-1.006,9.101,0.958,-41.056,-1.726,9.059,-1.007,29.326,-11.73,-41.056
1.16,1.293,9.149,-0.623,-41.056,-1.102,9.101,0.958,-41.056,-1.726,9.059,-1.007,29.326,-11.73,-41.056
1.165,1.389,9.053,-0.671,-41.056,-1.15,9.101,1.006,-41.056,-1.869,9.059,-1.007,29.326,-11.73,-41.056
1.17,1.533,9.005,-0.719,-46.921,-1.293,9.005,1.054,-46.921,-2.013,9.059,-1.007,29.326,-11.73,-41.056
1.175,1.533,8.957,-0.719,-52.786,-1.389,8.957,1.102,-46.921,-2.013,9.059,-1.15,29.326,-11.73,-46.921
1.18,1.629,9.149,-0.671,-52.786,-1.389,8.909,1.054,-52.786,-2.157,8.916,-1.15,29.326,-11.73,-52.786
1.185,1.772,9.484,-0.575,-58.651,-1.533,8.909,1.006,-58.651,-2.301,8.916,-1.15,29.326,-11.73,-52.786
1.19,1.868,9.58,-0.527,-64.516,-1.677,9.053,0.958,-64.516,-2.301,8.772,-1.007,29.326,-11.73,-58.651
1.195,1.868,9.388,-0.431,-70.381,-1.772,9.005,0.862,-70.381,-2.445,8.628,-1.007,29.326,-11.73,-64.516
1.2,1.629,9.293,-0.623,-76.246,-1.581,8.766,0.862,-76.246,-2.588,8.628,-0.863,35.191,-11.73,-70.381
1.205,1.677,9.005,-0.814,-82.111,-1.437,8.43,1.054,-82.111,-2.301,8.197,-0.863,41.056,-11.73,-76.246
1.21,1.868,8.335,-0.958,-82.111,-1.485,8.143,1.245,-87.977,-2.157,7.909,-1.15,46.921,-11.73,-82.111
1.215,2.347,8.047,-1.102,-82.111,-1.677,7.664,1.341,-87.977,-2.157,7.621,-1.294,52.786,-5.865,-87.977
1.22,2.73,7.856,-1.198,-87.977,-1.964,7.425,1.533,-87.977,-2.157,7.334,-1.438,58.651,-5.865,-87.977
1.225,2.826,7.377,-1.245,-93.842,-2.203,7.329,1.581,-93.842,-2.301,7.046,-1.582,64.516,-5.865,-87.977
1.23,2.73,6.467,-1.437,-99.707,-2.251,7.041,1.629,-99.707,-2.445,7.046,-1.582,70.381,0.0,-93.842
1.235,2.635,5.317,-1.533,-105.572,-2.156,6.562,1.868,-105.572,-2.588,7.046,-1.726,70.381,5.865,-99.707
1.24,2.922,4.311,-1.389,-105.572,-2.156,5.7,1.916,-111.437,-2.445,6.902,-2.013,70.381,11.73,-105.572
1.245,3.018,3.209,-1.293,-99.707,-2.395,4.742,1.772,-105.572,-2.301,6.327,-2.013,64.516,17.595,-105.572
1.25,2.874,1.868,-0.91,-93.842,-2.635,3.784,1.629,-105.572,-2.445,5.464,-1.869,58.651,23.46,-105.572
1.2550000000000001,2.635,0.575,-0.144,-87.977,-2.73,2.635,1.198,-93.842,-2.732,4.602,-1.726,46.921,29.326,-105.572
1.26,2.539,-0.287,0.575,-70.381,-2.874,1.198,0.431,-87.977,-3.02,3.595,-1.294,35.191,35.191,-93.842
1.2650000000000001,2.443,-0.671,0.958,-52.786,-2.874,0.0,-0.192,-64.516,-3.307,1.869,-0.431,23.46,35.191,-87.977
1.27,2.395,-0.862,1.198,-23.46,-2.826,-0.671,-0.527,-46.921,-3.164,0.288,0.144,5.865,35.191,-70.381
1.2750000000000001,2.347,-0.958,1.389,5.865,-2.874,-1.293,-0.719,-17.595,-3.164,-0.719,0.431,0.0,29.326,-46.921
1.28,2.778,-0.958,1.102,41.056,-2.97,-1.772,-0.814,17.595,-3.307,-1.726,0.719,-5.865,23.46,-17.595
1.285,3.305,-2.203,0.287,76.246,-3.018,-2.299,-0.383,52.786,-3.307,-2.588,0.863,0.0,17.595,17.595
1.29,4.167,-4.359,-0.814,111.437,-3.401,-3.497,0.479,82.111,-2.876,-3.307,0.431,5.865,11.73,46.921
1.295,4.359,-5.125,-1.964,152.493,-3.449,-4.886,1.724,123.167,-2.876,-4.026,-0.431,17.595,11.73,82.111
1.3,4.359,-4.167,-2.251,187.683,-3.114,-5.125,2.587,164.223,-2.301,-5.033,-1.726,23.46,11.73,117.302
1.305,4.311,-3.114,-2.156,217.009,-2.826,-4.119,2.73,199.413,-1.582,-5.033,-2.588,29.326,23.46,158.358
1.31,3.353,-2.491,-2.108,246.334,-2.539,-3.066,2.587,228.739,-1.15,-4.17,-2.732,23.46,35.191,193.548
1.315,1.485,-1.006,-1.724,269.795,-1.724,-2.06,2.443,258.064,-0.863,-3.02,-2.588,23.46,52.786,222.874
1.32,-0.335,1.677,-0.91,281.525,-0.144,0.048,2.012,275.66,-0.575,-1.726,-2.445,23.46,70.381,252.199
1.325,16.19,16.382,14.801,252.199,0.958,4.694,0.814,287.39,0.288,0.575,-2.013,23.46,87.977,269.795
1.33,-21.747,10.059,0.671,146.628,-3.832,15.807,-12.167,228.739,0.288,3.164,-1.007,17.595,93.842,281.525
1.335,-17.148,23.806,-1.772,-29.326,13.22,24.142,2.587,140.762,-2.876,27.034,11.648,117.302,99.707,222.874
1.34,-0.814,23.998,7.568,-170.088,9.532,24.333,-1.581,-93.842,-7.19,72.188,-4.889,181.818,129.032,146.628
1.345,2.203,23.423,8.095,-93.842,4.646,24.094,-9.436,-164.223,7.334,42.996,2.157,-134.897,5.865,-99.707
1.35,0.192,11.113,3.736,-17.595,-0.431,12.598,-6.946,-70.381,7.765,17.975,10.354,-293.255,-82.111,-164.223
1.355,-0.383,5.988,0.287,11.73,0.335,5.461,-2.299,-5.865,0.0,6.04,7.478,-263.93,-52.786,-64.516
1.36,0.527,8.43,-0.671,35.191,-0.096,4.024,0.527,17.595,0.288,2.588,2.588,-181.818,-17.595,-5.865
1.365,0.862,14.083,-0.91,70.381,-0.671,8.047,1.198,46.921,-0.719,2.445,-0.431,-123.167,-5.865,17.595
1.37,0.814,18.058,-0.862,87.977,-1.006,12.837,1.245,76.246,-1.294,6.615,-1.15,-93.842,-5.865,46.921
1.375,1.581,18.202,-1.724,93.842,-0.766,15.184,1.198,87.977,-2.301,10.641,-1.15,-70.381,-5.865,76.246
1.3800000000000001,1.772,16.047,-2.826,93.842,-1.006,15.232,2.443,93.842,-1.869,12.367,-1.15,-41.056,-5.865,87.977
1.385,1.82,14.705,-2.635,87.977,-1.198,14.466,3.114,93.842,-1.726,13.373,-2.445,-11.73,-5.865,93.842
1.3900000000000001,1.581,14.466,-2.108,87.977,-1.054,13.699,2.826,87.977,-1.869,13.517,-3.164,23.46,0.0,93.842
1.395,1.82,14.274,-1.581,87.977,-0.958,13.747,2.203,87.977,-1.726,13.086,-2.876,41.056,5.865,87.977
1.4000000000000001,1.964,13.652,-1.437,82.111,-1.341,14.035,1.772,87.977,-1.726,13.23,-2.301,52.786,11.73,87.977
1.405,1.581,12.646,-1.437,64.516,-1.485,14.178,1.772,76.246,-2.301,13.949,-1.869,58.651,17.595,82.111
1.41,1.389,11.592,-1.245,46.921,-1.245,13.843,1.772,58.651,-2.588,14.811,-1.869,58.651,23.46,70.381
1.415,1.245,11.065,-0.623,29.326,-1.054,13.029,1.437,41.056,-2.445,15.099,-1.869,52.786,23.46,58.651
1.42,1.15,10.73,0.287,11.73,-1.054,12.167,0.719,23.46,-2.301,14.38,-1.582,41.056,23.46,41.056
1.425,0.862,10.442,0.766,-5.865,-1.006,11.304,-0.144,5.865,-2.157,13.23,-0.863,23.46,23.46,23.46
1.43,0.527,10.155,0.91,-17.595,-0.719,10.682,-0.479,-11.73,-2.157,11.935,0.144,5.865,23.46,5.865
1.435,0.287,9.772,0.91,-17.595,-0.479,10.346,-0.527,-17.595,-1.726,11.073,0.431,-5.865,23.46,-11.73
1.44,0.287,9.58,0.91,-23.46,-0.287,9.963,-0.575,-23.46,-1.582,10.641,0.431,-11.73,17.595,-17.595
1.445,0.383,9.676,0.958,-17.595,-0.287,9.628,-0.527,-17.595,-1.294,10.21,0.575,-17.595,17.595,-23.46
1.45,0.431,9.963,1.15,-17.595,-0.383,9.58,-0.623,-17.595,-1.294,9.778,0.575,-17.595,11.73,-23.46
1.455,0.479,10.442,1.341,-11.73,-0.431,9.724,-0.862,-17.595,-1.294,9.491,0.575,-23.46,11.73,-17.595
1.46,0.335,10.778,1.15,-11.73,-0.479,9.963,-0.958,-11.73,-1.438,9.491,0.863,-23.46,5.865,-17.595
1.465,0.287,10.825,1.15,-0.0,-0.24,10.107,-0.766,-5.865,-1.438,9.635,1.007,-17.595,5.865,-11.73
1.47,0.479,10.49,1.102,-0.0,-0.192,10.203,-0.766,0.0,-1.15,9.635,0.719,-11.73,5.865,-5.865
1.475,0.431,10.442,0.958,-0.0,-0.431,10.394,-0.719,5.865,-1.007,9.778,0.719,-5.865,5.865,0.0
1.48,0.192,10.49,0.91,-0.0,-0.24,10.682,-0.575,0.0,-1.438,10.497,0.719,0.0,5.865,0.0
1.485,0.335,10.634,0.91,-0.0,-0.096,10.634,-0.527,0.0,-1.294,10.929,0.575,5.865,0.0,0.0
1.49,0.431,10.778,0.862,-0.0,-0.24,10.682,-0.575,0.0,-1.15,10.785,0.431,0.0,0.0,0.0
1.495,0.383,10.634,0.671,-0.0,-0.335,10.73,-0.431,0.0,-1.294,10.785,0.575,0.0,0.0,0.0
1.5,0.383,10.442,0.527,-0.0,-0.287,10.778,-0.24,0.0,-1.294,10.785,0.431,0.0,0.0,0.0
1.5050000000000001,0.431,10.346,0.431,-5.865,-0.335,10.682,-0.144,0.0,-1.294,11.073,0.144,0.0,0.0,0.0
1.51,0.623,10.299,0.479,-5.865,-0.383,10.49,-0.096,-5.865,-1.294,10.929,0.144,0.0,-5.865,0.0
1.5150000000000001,0.671,10.155,0.431,-11.73,-0.527,10.346,-0.048,-5.865,-1.438,10.785,-0.0,-5.865,-5.865,-5.865
1.52,0.623,9.963,0.335,-11.73,-0.479,10.107,-0.048,-11.73,-1.438,10.497,-0.0,-5.865,-5.865,-11.73
1.5250000000000001,0.719,9.82,0.335,-11.73,-0.527,9.915,0.048,-11.73,-1.438,10.21,-0.0,-11.73,-5.865,-11.73
1.53,0.766,9.82,0.287,-11.73,-0.575,9.772,0.096,-11.73,-1.438,9.922,-0.144,-11.73,-11.73,-11.73
1.5350000000000001,0.766,9.82,0.24,-11.73,-0.575,9.676,0.144,-11.73,-1.438,9.778,-0.144,-11.73,-11.73,-11.73
1.54,0.719,9.82,0.192,-11.73,-0.575,9.676,0.192,-11.73,-1.438,9.635,-0.144,-11.73,-11.73,-11.73
1.545,0.766,9.82,0.144,-11.73,-0.527,9.628,0.24,-11.73,-1.438,9.635,-0.288,-11.73,-11.73,-11.73
1.55,0.814,9.724,0.048,-5.865,-0.575,9.532,0.287,-5.865,-1.294,9.491,-0.288,-11.73,-11.73,-11.73
1.555,0.814,9.676,0.0,-5.865,-0.575,9.484,0.335,-5.865,-1.294,9.347,-0.288,-5.865,-11.73,-11.73
1.56,0.814,9.628,-0.048,-0.0,-0.575,9.484,0.383,-5.865,-1.294,9.347,-0.431,-5.865,-11.73,-5.865
1.565,0.766,9.58,-0.048,-0.0,-0.623,9.436,0.383,0.0,-1.294,9.347,-0.431,-5.865,-5.865,-5.865
1.57,0.719,9.724,0.048,-0.0,-0.527,9.484,0.383,0.0,-1.294,9.347,-0.431,0.0,-5.865,0.0
1.575,0.766,9.82,0.144,-0.0,-0.575,9.628,0.287,0.0,-1.294,9.491,-0.431,0.0,-5.865,0.0
1.58,0.671,9.82,0.096,-0.0,-0.575,9.724,0.24,0.0,-1.438,9.635,-0.431,0.0,-5.865,0.0
1.585,0.719,9.772,0.096,-0.0,-0.527,9.676,0.287,0.0,-1.438,9.635,-0.288,0.0,-5.865,0.0
1.59,0.719,9.724,0.096,-0.0,-0.527,9.676,0.287,0.0,-1.438,9.635,-0.431,0.0,-5.865,0.0
1.595,0.719,9.772,0.096,-0.0,-0.527,9.628,0.287,5.865,-1.294,9.635,-0.431,0.0,-5.865,0.0
1.6,0.719,9.82,0.048,-0.0,-0.575,9.676,0.287,5.865,-1.438,9.635,-0.431,5.865,-5.865,0.0
1.605,0.719,9.676,0.0,-0.0,-0.527,9.724,0.335,0.0,-1.438,9.635,-0.288,5.865,-5.865,0.0
1.61,0.766,9.676,0.0,-0.0,-0.575,9.772,0.383,0.0,-1.294,9.778,-0.431,5.865,-5.865,0.0
1.615,0.766,9.772,0.048,-0.0,-0.575,9.867,0.383,0.0,-1.438,9.922,-0.431,5.865,-5.865,0.0
1.62,0.766,9.724,0.048,-0.0,-0.527,9.867,0.287,0.0,-1.438,10.066,-0.431,5.865,-5.865,0.0
1.625,0.719,9.58,0.048,-0.0,-0.575,9.82,0.335,0.0,-1.438,10.066,-0.431,0.0,-5.865,0.0
1.6300000000000001,0.719,9.58,-0.048,-0.0,-0.575,9.724,0.383,0.0,-1.438,10.066,-0.431,0.0,-5.865,0.0
1.635,0.719,9.676,-0.048,-0.0,-0.527,9.724,0.431,0.0,-1.438,9.922,-0.431,0.0,-5.865,0.0
1.6400000000000001,0.766,9.772,-0.144,-0.0,-0.527,9.772,0.431,0.0,-1.294,9.922,-0.575,-5.865,-5.865,0.0
1.645,0.814,9.772,-0.144,-0.0,-0.527,9.724,0.479,0.0,-1.294,9.922,-0.575,-5.865,-5.865,0.0
1.6500000000000001,0.766,9.772,-0.144,-0.0,-0.575,9.676,0.479,0.0,-1.294,9.778,-0.575,-5.865,-5.865,0.0
1.655,0.719,9.724,-0.192,-0.0,-0.527,9.628,0.527,0.0,-1.294,9.635,-0.575,-5.865,-5.865,0.0
1.6600000000000001,0.671,9.867,-0.192,-0.0,-0.479,9.628,0.575,0.0,-1.294,9.635,-0.575,-5.865,-5.865,0.0
1.665,0.719,9.963,-0.144,-0.0,-0.479,9.724,0.575,0.0,-1.294,9.635,-0.719,-5.865,-5.865,0.0
1.67,0.719,9.963,-0.144,-0.0,-0.527,9.772,0.527,0.0,-1.294,9.635,-0.575,-5.865,-5.865,0.0
1.675,0.671,9.915,-0.192,-0.0,-0.479,9.772,0.527,5.865,-1.294,9.635,-0.575,-5.865,0.0,0.0
1.68,0.623,9.915,-0.192,-0.0,-0.431,9.724,0.575,0.0,-1.294,9.635,-0.575,0.0,0.0,0.0
1.685,0.671,9.915,-0.144,5.865,-0.431,9.772,0.527,5.865,-1.294,9.635,-0.719,0.0,0.0,0.0
1.69,0.623,9.915,-0.144,5.865,-0.479,9.82,0.527,5.865,-1.294,9.778,-0.575,0.0,0.0,0.0
1.695,0.623,9.915,-0.096,5.865,-0.431,9.82,0.479,5.865,-1.294,9.778,-0.575,5.865,0.0,5.865
1.7,0.623,9.963,-0.048,5.865,-0.479,9.867,0.479,5.865,-1.294,9.778,-0.575,5.865,0.0,5.865
1.705,0.623,9.915,-0.096,5.865,-0.479,9.867,0.431,5.865,-1.294,9.778,-0.575,5.865,0.0,5.865
1.71,0.623,9.867,-0.144,5.865,-0.431,9.82,0.479,5.865,-1.294,9.922,-0.575,5.865,0.0,5.865
1.715,0.671,9.82,-0.144,5.865,-0.431,9.82,0.479,5.865,-1.294,9.922,-0.575,5.865,0.0,5.865
1.72,0.766,9.772,-0.144,5.865,-0.479,9.82,0.527,5.865,-1.294,9.922,-0.575,5.865,0.0,5.865
1.725,0.719,9.724,-0.144,5.865,-0.527,9.772,0.527,5.865,-1.294,9.922,-0.575,5.865,0.0,5.865
1.73,0.719,9.676,-0.096,5.865,-0.527,9.772,0.527,5.865,-1.294,9.922,-0.575,5.865,0.0,5.865
1.735,0.719,9.628,-0.096,5.865,-0.527,9.724,0.479,5.865,-1.294,9.922,-0.575,5.865,0.0,5.865
1.74,0.671,9.628,0.0,5.865,-0.527,9.724,0.431,5.865,-1.294,9.922,-0.575,5.865,0.0,5.865
1.745,0.671,9.676,0.048,5.865,-0.527,9.724,0.383,5.865,-1.438,9.922,-0.575,5.865,0.0,5.865
1.75,0.623,9.772,0.096,5.865,-0.527,9.724,0.287,5.865,-1.294,9.778,-0.431,0.0,0.0,5.865
1.7550000000000001,0.575,9.82,0.144,-0.0,-0.527,9.772,0.24,5.865,-1.438,9.778,-0.431,0.0,0.0,5.865
1.76,0.527,9.82,0.048,-0.0,-0.479,9.772,0.287,5.865,-1.438,9.778,-0.288,0.0,0.0,5.865
1.7650000000000001,0.575,9.772,0.0,5.865,-0.431,9.772,0.335,5.865,-1.438,9.778,-0.288,0.0,0.0,5.865
1.77,0.623,9.82,-0.048,5.865,-0.431,9.724,0.383,5.865,-1.294,9.778,-0.431,0.0,0.0,5.865
1.7750000000000001,0.623,9.915,-0.048,5.865,-0.479,9.82,0.431,5.865,-1.294,9.778,-0.431,0.0,-5.865,0.0
1.78,0.623,9.915,-0.096,-0.0,-0.479,9.867,0.431,5.865,-1.294,9.778,-0.431,0.0,-5.865,5.865
1.7850000000000001,0.575,10.011,-0.144,5.865,-0.479,9.867,0.479,5.865,-1.294,9.922,-0.575,0.0,-5.865,5.865
1.79,0.623,10.059,-0.192,-0.0,-0.431,9.963,0.527,0.0,-1.294,9.922,-0.575,0.0,-5.865,0.0
1.795,0.671,10.011,-0.192,-0.0,-0.479,10.011,0.575,0.0,-1.294,10.066,-0.575,0.0,-5.865,0.0
1.8,0.719,9.915,-0.24,-0.0,-0.479,9.963,0.575,0.0,-1.294,10.066,-0.719,0.0,-5.865,0.0
1.805,0.766,9.772,-0.287,-0.0,-0.527,9.82,0.623,0.0,-1.294,9.922,-0.719,0.0,-5.865,0.0
1.81,0.814,9.628,-0.287,-0.0,-0.575,9.676,0.623,0.0,-1.294,9.778,-0.719,0.0,-5.865,0.0
1.815,0.814,9.58,-0.287,-0.0,-0.575,9.532,0.671,0.0,-1.294,9.635,-0.719,0.0,-5.865,0.0
1.82,0.814,9.532,-0.287,-0.0,-0.575,9.532,0.671,0.0,-1.294,9.635,-0.719,0.0,-5.865,0.0
1.825,0.862,9.58,-0.24,-0.0,-0.623,9.484,0.671,0.0,-1.294,9.491,-0.719,0.0,-5.865,0.0
1.83,0.814,9.58,-0.24,-0.0,-0.623,9.484,0.623,0.0,-1.438,9.491,-0.719,0.0,-5.865,0.0
1.835,0.766,9.58,-0.24,5.865,-0.623,9.484,0.623,5.865,-1.438,9.491,-0.719,5.865,-5.865,0.0
1.84,0.766,9.58,-0.24,5.865,-0.575,9.484,0.623,5.865,-1.438,9.491,-0.719,5.865,-5.865,0.0
1.845,0.814,9.628,-0.287,5.865,-0.575,9.532,0.623,5.865,-1.438,9.491,-0.719,5.865,-5.865,5.865
1.85,0.766,9.628,-0.287,5.865,-0.623,9.58,0.671,5.865,-1.438,9.491,-0.719,5.865,-5.865,5.865
1.855,0.719,9.676,-0.287,5.865,-0.575,9.628,0.623,5.865,-1.438,9.635,-0.719,5.865,-5.865,5.865
1.86,0.671,9.772,-0.24,5.865,-0.575,9.628,0.623,5.865,-1.438,9.635,-0.719,5.865,-5.865,5.865
1.865,0.623,9.915,-0.192,5.865,-0.527,9.772,0.575,5.865,-1.438,9.635,-0.719,5.865,-5.865,5.865
1.87,0.623,9.867,-0.192,5.865,-0.527,9.867,0.575,5.865,-1.438,9.778,-0.719,5.865,-5.865,5.865
1.875,0.671,9.772,-0.24,-0.0,-0.527,9.867,0.575,0.0,-1.438,9.922,-0.575,5.865,-5.865,5.865
1.8800000000000001,0.671,9.676,-0.335,-0.0,-0.527,9.82,0.623,0.0,-1.438,9.922,-0.719,5.865,-5.865,0.0
1.885,0.719,9.628,-0.431,-0.0,-0.527,9.772,0.766,0.0,-1.438,9.922,-0.719,5.865,-5.865,0.0
1.8900000000000001,0.814,9.532,-0.527,-0.0,-0.575,9.724,0.862,0.0,-1.438,9.922,-0.863,5.865,-5.865,0.0
1.895,0.91,9.436,-0.719,-0.0,-0.575,9.628,0.958,0.0,-1.294,9.922,-0.863,0.0,-5.865,0.0
1.9000000000000001,1.006,9.293,-0.814,-0.0,-0.623,9.532,1.102,0.0,-1.294,9.778,-1.007,0.0,-11.73,0.0
1.905,1.102,9.197,-0.958,-0.0,-0.623,9.484,1.245,0.0,-1.294,9.778,-1.15,0.0,-5.865,0.0
1.9100000000000001,1.198,9.149,-1.006,-0.0,-0.671,9.436,1.341,0.0,-1.294,9.778,-1.294,-5.865,-5.865,0.0
1.915,1.293,9.053,-1.054,-0.0,-0.719,9.436,1.389,0.0,-1.294,9.778,-1.438,-5.865,-5.865,0.0
1.92,1.341,8.862,-1.15,-0.0,-0.766,9.532,1.437,0.0,-1.294,9.778,-1.438,-11.73,0.0,0.0
1.925,1.341,8.814,-1.245,-0.0,-0.766,9.724,1.533,0.0,-1.294,10.066,-1.582,-11.73,0.0,0.0
1.93,1.437,8.862,-1.293,-0.0,-0.766,9.915,1.629,0.0,-1.294,10.497,-1.582,-17.595,5.865,0.0
1.935,1.389,8.957,-1.293,-5.865,-0.766,10.107,1.629,0.0,-1.294,10.929,-1.726,-29.326,11.73,0.0
1.94,1.15,9.245,-1.198,-11.73,-0.766,10.299,1.581,-5.865,-1.294,11.216,-1.726,-41.056,17.595,-5.865
1.945,1.102,9.58,-0.91,-17.595,-0.623,10.586,1.389,-11.73,-1.294,11.504,-1.726,-52.786,17.595,-5.865
1.95,0.958,9.82,-0.671,-23.46,-0.671,10.73,1.102,-17.595,-1.294,11.648,-1.582,-70.381,23.46,-11.73
1.955,0.671,9.867,-0.575,-35.191,-0.575,10.682,0.91,-29.326,-1.438,11.792,-1.15,-87.977,23.46,-23.46
1.96,0.575,9.867,-0.335,-41.056,-0.431,10.538,0.766,-35.191,-1.438,11.504,-0.863,-99.707,29.326,-29.326
1.965,0.431,10.011,0.0,-52.786,-0.479,10.299,0.479,-46.921,-1.438,11.216,-0.863,-111.437,29.326,-41.056
1.97,0.096,10.107,0.383,-52.786,-0.479,10.011,0.144,-52.786,-1.438,10.785,-0.431,-117.302,29.326,-46.921
1.975,-0.144,10.299,0.766,-58.651,-0.383,9.58,-0.24,-58.651,-1.582,10.066,-0.144,-123.167,23.46,-52.786
1.98,-0.144,10.346,1.054,-58.651,-0.431,9.197,-0.575,-58.651,-1.726,9.203,0.288,-129.032,23.46,-58.651
1.985,-0.144,10.251,1.054,-58.651,-0.527,8.814,-0.719,-58.651,-1.726,8.34,0.719,-123.167,17.595,-58.651
1.99,-0.192,10.107,0.958,-52.786,-0.575,8.43,-0.671,-58.651,-2.013,7.621,0.863,-111.437,5.865,-58.651
1.995,-0.048,9.915,0.671,-46.921,-0.575,7.999,-0.527,-52.786,-2.013,7.046,0.719,-99.707,0.0,-58.651
2.0,0.192,9.532,0.144,-35.191,-0.623,7.52,-0.144,-46.921,-2.013,6.183,0.575,-76.246,-11.73,-52.786
2.005,0.671,8.957,-0.671,-23.46,-0.766,7.137,0.479,-35.191,-1.869,5.608,0.288,-52.786,-23.46,-46.921
2.0100000000000002,1.15,8.622,-1.485,-5.865,-0.862,6.898,1.293,-17.595,-1.726,5.321,-0.431,-29.326,-29.326,-35.191
2.015,1.533,8.622,-2.06,11.73,-1.006,6.993,2.06,0.0,-1.438,5.177,-1.294,-5.865,-35.191,-17.595
2.02,1.964,9.005,-2.491,29.326,-1.245,7.425,2.539,17.595,-1.438,5.608,-2.013,17.595,-35.191,-5.865
2.025,2.203,9.341,-2.922,41.056,-1.341,8.095,2.97,29.326,-1.582,6.327,-2.588,41.056,-35.191,11.73
2.0300000000000002,2.203,9.436,-3.161,46.921,-1.293,9.005,3.305,41.056,-1.438,7.334,-3.02,52.786,-29.326,29.326
2.035,2.156,9.484,-3.257,52.786,-1.198,10.059,3.545,46.921,-1.294,8.772,-3.307,64.516,-23.46,41.056
2.04,2.06,9.628,-3.114,52.786,-1.15,11.017,3.545,52.786,-1.438,10.641,-3.595,70.381,-17.595,46.921
2.045,2.06,9.724,-2.97,41.056,-1.15,11.64,3.401,46.921,-1.438,12.367,-3.739,64.516,-5.865,52.786
2.05,1.964,9.676,-2.826,29.326,-1.102,11.975,3.257,41.056,-1.582,13.373,-3.595,52.786,0.0,46.921
2.055,1.82,9.82,-2.826,17.595,-1.054,11.975,3.161,29.326,-1.582,13.949,-3.451,29.326,5.865,41.056
2.06,1.629,10.203,-2.539,5.865,-0.958,11.975,3.066,11.73,-1.582,13.949,-3.307,5.865,17.595,29.326
2.065,1.293,10.634,-2.156,-5.865,-0.91,12.023,2.73,0.0,-1.582,13.805,-3.307,-23.46,23.46,11.73
2.07,0.862,11.304,-1.581,-17.595,-0.862,11.975,2.347,-11.73,-1.582,13.517,-2.876,-46.921,29.326,0.0
2.075,0.383,11.688,-0.814,-29.326,-0.766,11.879,1.677,-23.46,-1.869,13.086,-2.445,-70.381,35.191,-11.73
2.08,-0.048,11.496,-0.192,-41.056,-0.623,11.496,0.91,-35.191,-2.013,12.223,-1.726,-87.977,35.191,-23.46
2.085,-0.383,11.065,0.144,-41.056,-0.479,10.682,0.383,-41.056,-2.013,11.36,-0.863,-93.842,35.191,-35.191
2.09,-0.096,10.873,0.383,-41.056,-0.527,9.628,0.192,-41.056,-2.157,10.066,-0.431,-93.842,29.326,-41.056
2.095,0.144,10.634,0.527,-41.056,-0.766,8.622,-0.096,-41.056,-2.157,8.484,-0.144,-87.977,17.595,-46.921
2.1,0.192,10.299,0.24,-29.326,-0.766,7.999,-0.048,-41.056,-2.157,6.759,0.144,-76.246,5.865,-46.921
2.105,0.383,9.915,-0.24,-11.73,-0.671,7.664,0.287,-29.326,-2.013,5.752,0.144,-52.786,-5.865,-41.056
2.11,0.766,9.628,-0.814,-0.0,-0.766,7.664,0.814,-11.73,-1.726,5.464,-0.288,-29.326,-11.73,-23.46
2.115,1.006,9.628,-1.293,17.595,-0.814,7.951,1.341,5.865,-1.582,5.752,-0.719,5.865,-17.595,-11.73
2.12,1.293,9.676,-1.724,29.326,-0.814,8.335,1.772,17.595,-1.438,6.615,-1.294,29.326,-23.46,5.865
2.125,1.437,9.628,-1.916,41.056,-0.814,8.862,2.108,29.326,-1.294,7.334,-1.726,52.786,-23.46,17.595
2.13,1.485,9.628,-1.868,46.921,-0.862,9.388,2.203,41.056,-1.15,8.197,-2.157,70.381,-17.595,29.326
2.1350000000000002,1.485,9.772,-1.772,52.786,-0.862,9.963,2.203,46.921,-1.294,9.203,-2.301,76.246,-17.595,41.056
2.14,1.341,9.724,-1.677,46.921,-0.814,10.538,2.06,52.786,-1.294,10.21,-2.301,82.111,-11.73,46.921
2.145,1.293,9.628,-1.677,41.056,-0.719,10.969,1.964,46.921,-1.294,11.216,-2.157,82.111,-5.865,46.921
2.15,1.341,9.58,-1.772,35.191,-0.671,11.257,2.012,41.056,-1.438,12.223,-2.157,76.246,0.0,46.921
2.1550000000000002,1.389,9.676,-1.868,29.326,-0.671,11.4,2.108,35.191,-1.294,12.654,-2.157,64.516,0.0,41.056
2.16,1.15,10.059,-1.82,17.595,-0.623,11.496,2.203,23.46,-1.294,12.942,-2.301,41.056,5.865,29.326
2.165,1.006,10.73,-1.629,5.865,-0.527,11.736,2.156,17.595,-1.294,13.086,-2.445,23.46,11.73,23.46
2.17,0.91,11.209,-1.437,-0.0,-0.575,11.927,1.916,5.865,-1.294,13.086,-2.301,0.0,17.595,17.595
2.1750000000000003,0.623,11.352,-1.293,-11.73,-0.527,11.975,1.724,-5.865,-1.438,12.798,-2.013,-17.595,17.595,5.865
2.18,0.431,11.352,-1.006,-23.46,-0.431,11.831,1.533,-11.73,-1.438,12.654,-1.869,-29.326,23.46,-5.865
2.185,0.287,11.209,-0.766,-29.326,-0.431,11.496,1.245,-23.46,-1.582,12.223,-1.582,-41.056,23.46,-17.595
2.19,0.144,10.969,-0.431,-35.191,-0.383,10.921,1.054,-35.191,-1.582,11.648,-1.294,-46.921,23.46,-23.46
2.195,0.0,10.778,-0.048,-41.056,-0.335,10.299,0.719,-41.056,-1.582,10.785,-1.15,-52.786,17.595,-35.191
2.2,0.0,10.778,0.24,-35.191,-0.383,9.628,0.335,-41.056,-1.582,9.778,-0.719,-52.786,17.595,-41.056
2.205,0.096,10.73,0.335,-29.326,-0.383,9.101,0.096,-35.191,-1.582,8.628,-0.431,-46.921,11.73,-41.056
2.21,0.144,10.538,0.144,-23.46,-0.431,8.909,0.096,-29.326,-1.582,7.765,-0.144,-35.191,5.865,-35.191
2.215,0.335,10.49,-0.24,-11.73,-0.479,8.909,0.335,-23.46,-1.582,7.334,-0.144,-17.595,0.0,-29.326
2.22,0.623,10.394,-0.575,-5.865,-0.479,9.149,0.719,-11.73,-1.438,7.621,-0.288,5.865,-5.865,-23.46
2.225,0.766,10.49,-0.91,5.865,-0.575,9.532,1.054,0.0,-1.438,8.053,-0.719,23.46,-11.73,-11.73
2.23,0.91,10.634,-1.102,11.73,-0.575,9.963,1.293,5.865,-1.438,8.772,-1.007,41.056,-11.73,0.0
2.235,0.958,10.73,-1.198,17.595,-0.575,10.346,1.437,11.73,-1.438,9.491,-1.294,52.786,-11.73,5.865
2.24,0.91,10.778,-1.245,17.595,-0.623,10.73,1.581,17.595,-1.294,10.066,-1.438,58.651,-11.73,11.73
2.245,0.862,10.921,-1.245,17.595,-0.575,11.161,1.581,17.595,-1.294,10.785,-1.582,64.516,-11.73,17.595
2.25,0.814,11.065,-1.245,11.73,-0.527,11.496,1.581,17.595,-1.438,11.504,-1.726,64.516,-5.865,17.595
2.255,0.814,11.257,-1.245,11.73,-0.527,11.783,1.581,11.73,-1.438,12.079,-1.582,64.516,-5.865,11.73
2.2600000000000002,0.814,11.352,-1.341,5.865,-0.575,11.831,1.629,5.865,-1.582,12.367,-1.726,58.651,-5.865,11.73
2.265,0.814,11.448,-1.389,-0.0,-0.527,11.831,1.724,0.0,-1.582,12.367,-1.726,52.786,-5.865,5.865
2.27,0.814,11.496,-1.437,-5.865,-0.575,11.783,1.724,-5.865,-1.438,12.223,-1.869,41.056,-5.865,0.0
2.275,0.814,11.496,-1.533,-11.73,-0.623,11.64,1.772,-5.865,-1.582,12.079,-1.869,35.191,-5.865,-5.865
2.2800000000000002,0.814,11.544,-1.629,-11.73,-0.623,11.496,1.916,-11.73,-1.582,11.792,-1.869,29.326,-5.865,-5.865
2.285,0.862,11.688,-1.629,-17.595,-0.671,11.448,1.964,-11.73,-1.582,11.504,-2.013,29.326,-5.865,-11.73
2.29,0.814,11.927,-1.629,-17.595,-0.719,11.544,1.964,-17.595,-1.582,11.36,-2.013,29.326,-5.865,-11.73
2.295,0.766,11.975,-1.629,-17.595,-0.719,11.592,1.964,-17.595,-1.726,11.36,-2.013,29.326,-5.865,-17.595
2.3000000000000003,0.814,11.927,-1.581,-17.595,-0.719,11.496,1.964,-17.595,-1.726,11.36,-2.013,29.326,-5.865,-17.595
2.305,0.91,11.783,-1.677,-17.595,-0.814,11.352,1.916,-17.595,-1.726,11.073,-2.013,35.191,-5.865,-17.595
2.31,1.054,11.64,-1.772,-17.595,-0.862,11.209,2.012,-17.595,-1.869,10.929,-2.013,41.056,-5.865,-17.595
2.315,1.15,11.448,-1.868,-11.73,-0.91,11.017,2.156,-17.595,-1.869,10.785,-2.157,46.921,-11.73,-17.595
2.32,1.341,11.257,-1.82,-11.73,-0.958,10.873,2.203,-17.595,-1.726,10.641,-2.157,52.786,-11.73,-17.595
2.325,1.485,11.065,-1.82,-11.73,-1.102,10.73,2.156,-11.73,-1.726,10.497,-2.301,58.651,-5.865,-17.595
2.33,1.437,10.873,-1.772,-5.865,-1.15,10.682,2.156,-11.73,-1.869,10.354,-2.157,64.516,-5.865,-11.73
2.335,1.341,10.825,-1.581,-5.865,-1.102,10.682,2.06,-5.865,-1.869,10.354,-2.157,70.381,-5.865,-11.73
2.34,1.341,10.825,-1.485,-5.865,-1.054,10.778,1.868,-5.865,-1.869,10.497,-2.157,70.381,-5.865,-11.73
2.345,1.293,10.682,-1.293,-5.865,-1.102,10.873,1.724,-5.865,-1.869,10.785,-1.869,76.246,0.0,-5.865
2.35,1.245,10.538,-1.198,-11.73,-1.102,10.921,1.581,-11.73,-2.013,11.073,-1.869,76.246,0.0,-5.865
2.355,1.245,10.394,-1.054,-17.595,-1.054,10.778,1.485,-11.73,-2.013,11.216,-1.726,76.246,0.0,-11.73
2.36,1.245,10.155,-0.862,-17.595,-1.054,10.682,1.341,-17.595,-2.013,11.073,-1.582,70.381,0.0,-17.595
2.365,1.293,9.82,-0.719,-23.46,-1.102,10.442,1.102,-23.46,-2.013,10.929,-1.438,64.516,0.0,-17.595
2.37,1.293,9.484,-0.575,-29.326,-1.15,10.059,1.006,-29.326,-2.013,10.785,-1.294,64.516,0.0,-23.46
2.375,1.293,9.388,-0.383,-35.191,-1.102,9.724,0.91,-35.191,-2.013,10.497,-1.15,58.651,0.0,-23.46
2.38,1.293,9.149,-0.192,-41.056,-1.198,9.532,0.671,-35.191,-2.013,10.066,-1.007,52.786,0.0,-35.191
2.3850000000000002,1.245,8.814,-0.144,-46.921,-1.245,9.197,0.575,-41.056,-2.157,9.635,-0.719,46.921,0.0,-41.056
2.39,1.437,8.67,-0.096,-46.921,-1.198,8.814,0.479,-46.921,-2.157,9.347,-0.719,46.921,0.0,-46.921
2.395,1.341,8.143,0.0,-52.786,-1.341,8.526,0.431,-52.786,-2.013,8.916,-0.575,41.056,0.0,-46.921
2.4,1.102,8.047,0.192,-52.786,-1.341,8.143,0.335,-58.651,-2.157,8.628,-0.575,41.056,0.0,-52.786
2.4050000000000002,1.054,8.239,0.479,-52.786,-1.15,7.951,0.192,-58.651,-2.301,8.34,-0.431,41.056,-5.865,-58.651
2.41,1.102,8.287,0.862,-58.651,-1.198,7.856,-0.24,-58.651,-2.013,7.909,-0.288,35.191,-5.865,-58.651
2.415,0.958,8.191,0.862,-58.651,-1.198,7.808,-0.479,-58.651,-2.157,7.621,0.144,35.191,-5.865,-58.651
2.42,1.006,7.951,0.766,-64.516,-1.006,7.568,-0.431,-64.516,-2.157,7.478,0.431,41.056,-11.73,-58.651
2.4250000000000003,1.198,7.616,0.671,-64.516,-1.054,7.233,-0.335,-64.516,-1.869,7.19,0.431,46.921,-11.73,-64.516
2.43,1.389,7.472,0.623,-70.381,-1.198,6.946,-0.287,-70.381,-1.869,6.759,0.288,52.786,-17.595,-70.381
2.435,1.629,7.281,0.527,-70.381,-1.293,6.754,-0.24,-70.381,-1.869,6.471,0.288,52.786,-17.595,-70.381
2.44,1.82,7.281,0.383,-76.246,-1.485,6.706,-0.144,-76.246,-1.869,6.327,0.288,64.516,-17.595,-70.381
2.445,1.724,6.946,0.096,-82.111,-1.581,6.754,0.048,-82.111,-2.157,6.471,0.144,70.381,-17.595,-76.246
2.45,1.389,6.035,-0.527,-87.977,-1.533,6.562,0.431,-87.977,-2.013,6.471,-0.0,70.381,-17.595,-82.111
2.455,1.629,5.413,-1.006,-93.842,-1.293,6.035,1.054,-93.842,-2.157,6.471,-0.431,76.246,-11.73,-87.977
2.46,2.347,4.598,-1.102,-93.842,-1.533,5.413,1.437,-93.842,-1.869,6.183,-1.007,76.246,-11.73,-93.842
2.465,2.874,2.682,-1.341,-87.977,-2.06,4.359,1.485,-93.842,-2.013,5.608,-1.438,76.246,-11.73,-93.842
2.47,2.922,0.479,-1.772,-87.977,-2.299,2.395,1.916,-93.842,-2.157,4.602,-1.582,76.246,-11.73,-93.842
2.475,3.257,-2.539,-1.677,-82.111,-2.299,0.24,2.203,-87.977,-2.157,2.732,-2.013,70.381,-5.865,-93.842
2.48,3.449,-5.844,-1.15,-70.381,-2.778,-2.395,2.06,-82.111,-1.869,0.719,-2.301,64.516,0.0,-87.977
2.485,3.497,-9.341,-0.192,-46.921,-3.161,-5.413,1.485,-64.516,-2.157,-1.582,-2.157,58.651,5.865,-82.111
2.49,3.257,-12.358,0.766,-17.595,-3.449,-8.574,0.527,-46.921,-2.588,-4.17,-1.582,46.921,11.73,-64.516
2.495,2.97,-14.466,1.868,17.595,-3.353,-11.496,-0.383,-11.73,-2.876,-7.19,-0.575,35.191,17.595,-41.056
2.5,2.347,-15.328,2.539,58.651,-3.353,-13.652,-1.389,29.326,-2.732,-10.066,0.288,5.865,17.595,-11.73
2.505,2.395,-15.903,2.203,111.437,-2.682,-14.61,-1.964,76.246,-2.732,-12.654,1.438,-11.73,17.595,29.326
2.5100000000000002,3.401,-16.861,0.575,164.223,-2.539,-15.472,-1.341,129.032,-2.013,-13.661,2.013,-29.326,17.595,76.246
2.515,2.491,-15.951,-1.916,222.874,-2.347,-16.238,0.814,181.818,-1.15,-14.811,1.438,-41.056,5.865,123.167
2.52,1.581,-13.747,-3.449,269.795,-0.719,-14.466,2.97,240.469,-0.144,-15.387,-0.863,-46.921,11.73,181.818
2.525,1.581,-11.352,-5.365,316.715,0.144,-11.736,4.455,293.255,1.582,-13.373,-3.02,-58.651,23.46,234.604
2.5300000000000002,-0.527,-6.419,-6.898,357.771,0.814,-9.341,6.323,340.176,2.588,-10.21,-4.458,-70.381,41.056,287.39
2.535,11.113,18.729,6.131,328.446,3.161,-4.359,7.281,381.232,3.307,-7.909,-6.327,-87.977,58.651,328.446
2.54,-20.405,18.873,0.91,-0.0,-6.131,23.088,-13.747,346.041,5.033,-3.883,-7.19,-99.707,82.111,375.366
2.545,-25.1,23.711,-3.257,-11.73,21.316,24.285,3.353,193.548,7.046,31.205,16.249,-23.46,99.707,340.176
2.5500000000000003,4.551,23.998,13.939,-246.334,14.849,24.333,-2.874,-58.651,14.955,70.031,-6.04,140.762,193.548,193.548
2.555,7.999,23.998,9.963,-205.279,5.796,24.333,-17.244,-269.795,-11.36,59.102,4.458,-152.493,76.246,-99.707
2.56,-0.766,10.059,0.287,-58.651,-1.054,14.322,-7.377,-164.223,15.818,27.753,18.838,-404.692,-134.897,-287.39
2.565,-2.156,8.526,-3.545,17.595,1.772,4.503,1.389,-23.46,1.726,4.314,8.197,-381.232,-105.572,-164.223
2.57,3.401,17.771,-2.491,64.516,1.054,6.467,3.545,35.191,1.15,2.301,-1.15,-269.795,-35.191,-23.46
2.575,3.928,23.663,-3.976,123.167,-2.395,13.987,2.682,82.111,0.719,2.876,-3.307,-199.413,-17.595,35.191
2.58,3.928,23.998,-4.742,164.223,-2.635,19.879,4.215,140.762,-1.869,10.354,-2.588,-152.493,-11.73,82.111
2.585,3.018,22.896,-4.982,170.088,-2.73,20.358,5.173,170.088,-3.164,12.942,-4.17,-99.707,0.0,140.762
2.59,2.73,18.777,-4.311,175.953,-2.443,18.394,4.934,175.953,-4.17,15.387,-5.177,-29.326,17.595,164.223
2.595,1.724,15.807,-3.976,164.223,-2.299,16.382,4.455,175.953,-4.026,15.243,-4.889,41.056,23.46,170.088
2.6,1.006,14.753,-3.066,146.628,-1.389,15.999,4.024,158.358,-4.026,14.955,-4.458,87.977,23.46,170.088
2.605,1.006,13.077,-2.06,129.032,-0.91,16.334,3.066,140.762,-3.451,16.249,-4.026,117.302,23.46,152.493
2.61,1.198,12.071,-2.108,111.437,-0.958,15.376,2.299,123.167,-2.876,17.687,-3.164,117.302,11.73,134.897
2.615,2.443,12.262,-1.533,82.111,-1.102,14.705,2.299,105.572,-3.164,17.975,-2.445,105.572,5.865,117.302
2.62,2.97,11.257,-2.012,29.326,-1.677,13.891,1.964,70.381,-2.588,16.968,-2.445,76.246,-5.865,99.707
2.625,2.682,10.442,-2.06,-11.73,-1.485,12.598,2.491,17.595,-2.588,15.53,-2.157,46.921,-11.73,70.381
2.63,1.437,8.718,-1.293,-35.191,-1.006,11.113,2.156,-23.46,-1.869,13.661,-2.732,17.595,-11.73,11.73
2.6350000000000002,0.814,8.574,-0.719,-41.056,-0.192,9.388,1.533,-41.056,-1.294,12.223,-2.301,0.0,-5.865,-23.46
2.64,0.719,9.005,-0.192,-46.921,0.0,8.862,0.958,-46.921,-0.575,10.21,-1.582,-17.595,5.865,-41.056
2.645,0.24,9.484,-0.048,-41.056,-0.096,9.101,0.431,-46.921,-0.431,9.203,-1.007,-29.326,17.595,-41.056
2.65,-0.096,9.867,0.24,-35.191,0.24,9.341,0.383,-41.056,-0.719,9.059,-0.575,-35.191,17.595,-46.921
2.6550000000000002,0.144,10.634,0.671,-35.191,0.287,9.772,0.048,-41.056,-0.575,9.203,-0.431,-35.191,23.46,-46.921
2.66,0.0,11.113,0.862,-35.191,0.144,10.299,-0.335,-35.191,-0.863,9.635,-0.0,-35.191,23.46,-41.056
2.665,-0.192,11.4,1.054,-29.326,0.24,10.394,-0.527,-35.191,-1.007,9.778,0.288,-29.326,17.595,-35.191
2.67,0.048,11.304,1.054,-17.595,0.479,10.394,-0.671,-23.46,-0.863,9.635,0.575,-23.46,17.595,-35.191
2.6750000000000003,0.383,11.209,0.91,-11.73,0.048,10.442,-0.719,-17.595,-0.575,9.635,0.719,-17.595,17.595,-23.46
2.68,0.479,11.304,0.814,-5.865,-0.048,10.778,-0.527,-11.73,-1.007,9.922,0.719,-5.865,11.73,-17.595
2.685,0.335,11.017,0.719,-0.0,-0.096,10.873,-0.431,-5.865,-1.15,10.497,0.575,5.865,5.865,-11.73
2.69,0.527,10.778,0.719,-0.0,-0.048,10.73,-0.383,0.0,-1.15,10.641,0.431,5.865,5.865,-5.865
2.695,0.671,10.682,0.431,-5.865,-0.24,10.682,-0.383,0.0,-1.15,10.641,0.288,5.865,5.865,0.0
2.7,0.719,10.346,0.144,-11.73,-0.192,10.634,0.0,-5.865,-1.294,10.641,0.288,17.595,5.865,0.0
2.705,0.671,10.059,0.048,-11.73,-0.24,10.682,0.24,-11.73,-1.15,10.785,-0.144,23.46,0.0,-11.73
2.71,0.671,10.107,0.096,-11.73,-0.192,10.49,0.335,-11.73,-1.15,11.073,-0.431,23.46,0.0,-17.595
2.715,0.671,10.107,0.144,-11.73,-0.192,10.49,0.24,-11.73,-1.15,10.929,-0.431,17.595,0.0,-11.73
2.72,0.671,10.059,0.096,-17.595,-0.24,10.442,0.24,-11.73,-1.294,10.929,-0.288,5.865,0.0,-11.73
2.725,0.671,9.915,0.048,-17.595,-0.24,10.299,0.287,-17.595,-1.294,10.785,-0.288,5.865,0.0,-11.73
2.73,0.575,9.915,-0.048,-23.46,-0.24,10.155,0.335,-17.595,-1.294,10.497,-0.431,5.865,0.0,-17.595
2.735,0.431,9.867,-0.192,-23.46,-0.192,10.107,0.431,-23.46,-1.294,10.354,-0.431,0.0,0.0,-23.46
2.74,0.479,9.867,-0.287,-23.46,-0.144,9.915,0.623,-23.46,-1.294,10.21,-0.575,-5.865,-5.865,-23.46
2.745,0.671,9.772,-0.383,-23.46,-0.24,9.772,0.671,-23.46,-1.15,9.922,-0.719,-5.865,-5.865,-23.46
2.75,0.719,9.532,-0.575,-23.46,-0.335,9.532,0.814,-23.46,-1.294,9.778,-0.719,-5.865,-5.865,-23.46
2.755,0.814,9.293,-0.671,-23.46,-0.335,9.341,0.958,-23.46,-1.294,9.491,-0.863,-5.865,-5.865,-23.46
2.7600000000000002,0.862,9.197,-0.623,-17.595,-0.383,9.101,1.054,-23.46,-1.15,9.347,-1.007,-5.865,-11.73,-23.46
2.765,0.91,9.293,-0.575,-17.595,-0.479,9.005,1.006,-17.595,-1.294,9.059,-1.15,-5.865,-11.73,-23.46
2.77,0.91,9.341,-0.431,-17.595,-0.479,9.005,0.91,-17.595,-1.294,8.916,-1.007,0.0,-11.73,-17.595
2.775,0.862,9.436,-0.479,-17.595,-0.527,9.101,0.814,-17.595,-1.294,8.772,-1.007,0.0,-11.73,-17.595
2.7800000000000002,0.814,9.532,-0.575,-11.73,-0.431,9.293,0.91,-17.595,-1.294,8.916,-0.863,5.865,-11.73,-17.595
2.785,1.006,9.58,-0.719,-11.73,-0.479,9.484,1.006,-11.73,-1.294,9.203,-1.007,5.865,-11.73,-17.595
2.79,1.054,9.58,-0.862,-11.73,-0.575,9.628,1.15,-11.73,-1.438,9.491,-1.007,5.865,-11.73,-11.73
2.795,1.102,9.58,-0.862,-11.73,-0.575,9.676,1.245,-11.73,-1.438,9.635,-1.294,5.865,-11.73,-11.73
2.8000000000000003,1.15,9.484,-0.814,-11.73,-0.623,9.676,1.198,-11.73,-1.438,9.778,-1.294,5.865,-11.73,-11.73
2.805,1.102,9.388,-0.814,-11.73,-0.623,9.58,1.198,-11.73,-1.438,9.778,-1.294,5.865,-11.73,-11.73
2.81,1.15,9.293,-0.862,-11.73,-0.623,9.484,1.198,-11.73,-1.438,9.778,-1.294,5.865,-11.73,-11.73
2.815,1.15,9.197,-0.862,-11.73,-0.623,9.341,1.245,-11.73,-1.294,9.635,-1.294,5.865,-11.73,-11.73
2.82,1.102,9.197,-0.814,-11.73,-0.575,9.245,1.198,-11.73,-1.294,9.491,-1.294,5.865,-5.865,-11.73
2.825,1.102,9.197,-0.719,-11.73,-0.527,9.197,1.15,-11.73,-1.294,9.347,-1.294,0.0,-5.865,-11.73
2.83,1.054,9.341,-0.575,-5.865,-0.575,9.197,1.054,-5.865,-1.294,9.203,-1.294,0.0,-5.865,-11.73
2.835,0.958,9.436,-0.527,-5.865,-0.527,9.293,0.958,-5.865,-1.294,9.203,-1.15,0.0,-5.865,-5.865
2.84,0.862,9.484,-0.479,-5.865,-0.479,9.341,0.862,-5.865,-1.294,9.203,-1.007,0.0,0.0,-5.865
2.845,0.814,9.532,-0.431,-0.0,-0.431,9.484,0.862,0.0,-1.294,9.347,-1.007,0.0,0.0,-5.865
2.85,0.814,9.628,-0.383,-5.865,-0.431,9.532,0.814,-5.865,-1.294,9.491,-0.863,0.0,0.0,-5.865
2.855,0.862,9.532,-0.479,-0.0,-0.431,9.58,0.766,0.0,-1.294,9.635,-0.863,0.0,0.0,0.0
2.86,0.91,9.484,-0.575,-5.865,-0.431,9.532,0.862,0.0,-1.294,9.635,-0.863,0.0,0.0,-5.865
2.865,1.006,9.436,-0.623,-5.865,-0.479,9.436,0.958,0.0,-1.294,9.635,-1.007,0.0,0.0,0.0
2.87,1.006,9.484,-0.671,-0.0,-0.527,9.341,1.006,0.0,-1.294,9.491,-1.007,0.0,0.0,-5.865
2.875,1.006,9.484,-0.623,-0.0,-0.527,9.388,1.054,0.0,-1.294,9.347,-1.15,0.0,0.0,-5.865
2.88,0.91,9.532,-0.527,-0.0,-0.527,9.436,0.958,0.0,-1.294,9.347,-1.15,0.0,0.0,-5.865
2.8850000000000002,0.91,9.58,-0.527,-0.0,-0.479,9.436,0.91,0.0,-1.438,9.347,-1.007,0.0,0.0,0.0
2.89,0.958,9.58,-0.575,-0.0,-0.479,9.484,0.91,0.0,-1.294,9.491,-1.007,5.865,0.0,0.0
2.895,0.958,9.58,-0.575,-0.0,-0.527,9.484,0.91,0.0,-1.294,9.491,-1.007,5.865,0.0,0.0
2.9,0.91,9.676,-0.575,-0.0,-0.479,9.58,0.958,0.0,-1.294,9.491,-1.007,5.865,0.0,0.0
2.9050000000000002,0.91,9.82,-0.527,-0.0,-0.479,9.772,0.958,0.0,-1.294,9.635,-1.007,5.865,0.0,0.0
2.91,0.91,10.011,-0.527,-0.0,-0.479,9.963,0.91,0.0,-1.294,9.922,-1.007,5.865,0.0,0.0
2.915,0.91,9.963,-0.527,-0.0,-0.479,10.011,0.862,0.0,-1.294,10.066,-1.007,5.865,0.0,0.0
2.92,0.91,9.915,-0.527,-0.0,-0.479,9.963,0.91,0.0,-1.438,10.066,-1.007,5.865,0.0,0.0
2.9250000000000003,1.006,9.772,-0.527,-0.0,-0.479,9.867,0.862,0.0,-1.438,9.922,-1.007,5.865,0.0,0.0
2.93,1.006,9.58,-0.575,-0.0,-0.527,9.724,0.91,0.0,-1.294,9.922,-1.007,5.865,0.0,0.0
2.935,1.054,9.436,-0.575,-0.0,-0.575,9.58,0.958,0.0,-1.438,9.778,-1.007,5.865,0.0,0.0
2.94,1.102,9.436,-0.527,-0.0,-0.623,9.484,0.91,0.0,-1.438,9.635,-1.007,5.865,0.0,-5.865
2.945,1.102,9.484,-0.479,-0.0,-0.623,9.436,0.862,0.0,-1.438,9.635,-1.007,5.865,0.0,0.0
2.95,1.102,9.484,-0.383,-0.0,-0.623,9.484,0.814,0.0,-1.438,9.491,-1.007,5.865,0.0,0.0
2.955,1.054,9.58,-0.383,-0.0,-0.623,9.532,0.766,0.0,-1.438,9.491,-0.863,0.0,0.0,0.0
2.96,0.91,9.724,-0.335,-0.0,-0.575,9.628,0.766,5.865,-1.438,9.635,-0.863,0.0,0.0,0.0
2.965,0.91,9.915,-0.24,-0.0,-0.527,9.724,0.719,5.865,-1.438,9.635,-0.863,0.0,0.0,5.865
2.97,0.862,10.107,-0.144,5.865,-0.527,9.915,0.575,5.865,-1.438,9.778,-0.719,0.0,0.0,5.865
2.975,0.814,10.251,-0.144,-0.0,-0.527,10.011,0.479,5.865,-1.438,9.922,-0.719,0.0,0.0,5.865
2.98,0.766,10.251,-0.096,-0.0,-0.479,10.059,0.479,0.0,-1.438,9.922,-0.575,0.0,0.0,0.0
2.985,0.814,10.155,-0.144,-0.0,-0.431,10.107,0.479,0.0,-1.438,9.922,-0.575,0.0,0.0,0.0
2.99,0.862,9.963,-0.24,-5.865,-0.479,10.059,0.527,0.0,-1.438,10.066,-0.575,5.865,-5.865,0.0
2.995,0.91,9.867,-0.335,-5.865,-0.479,9.963,0.623,0.0,-1.438,10.066,-0.575,5.865,-5.865,0.0
3.0,0.958,9.867,-0.431,-0.0,-0.479,9.963,0.719,-5.865,-1.438,10.066,-0.719,5.865,-5.865,0.0
3.005,1.006,9.867,-0.431,-5.865,-0.479,9.963,0.814,-5.865,-1.438,10.066,-0.863,5.865,-5.865,-5.865
3.0100000000000002,1.006,9.963,-0.383,-5.865,-0.527,10.011,0.766,-5.865,-1.438,10.066,-0.863,5.865,-5.865,-5.865
3.015,0.958,10.059,-0.335,-5.865,-0.575,10.155,0.766,-5.865,-1.438,10.21,-0.863,5.865,-5.865,-5.865
3.02,0.91,10.059,-0.287,-5.865,-0.527,10.203,0.719,-5.865,-1.438,10.354,-0.863,0.0,-5.865,-5.865
3.025,0.91,9.963,-0.192,-11.73,-0.527,10.059,0.623,-5.865,-1.438,10.354,-0.719,0.0,-5.865,-5.865
3.0300000000000002,0.91,9.867,-0.192,-11.73,-0.527,9.867,0.575,-11.73,-1.582,10.21,-0.719,0.0,-5.865,-11.73
3.035,1.006,9.724,-0.24,-11.73,-0.575,9.724,0.575,-11.73,-1.438,9.922,-0.575,0.0,-11.73,-11.73
3.04,1.006,9.628,-0.24,-11.73,-0.623,9.628,0.623,-11.73,-1.438,9.635,-0.719,0.0,-11.73,-11.73
3.045,1.054,9.484,-0.287,-11.73,-0.623,9.484,0.671,-11.73,-1.582,9.635,-0.719,0.0,-11.73,-11.73
3.0500000000000003,1.15,9.341,-0.287,-11.73,-0.719,9.293,0.671,-11.73,-1.582,9.491,-0.719,0.0,-11.73,-11.73
3.055,1.15,9.197,-0.383,-5.865,-0.766,9.197,0.671,-5.865,-1.582,9.203,-0.719,0.0,-11.73,-11.73
3.06,1.15,9.005,-0.479,-5.865,-0.719,9.101,0.766,-5.865,-1.582,9.059,-0.719,0.0,-11.73,-11.73
3.065,1.198,8.957,-0.575,-5.865,-0.719,9.005,0.91,-5.865,-1.582,9.059,-0.863,5.865,-11.73,-5.865
3.0700000000000003,1.15,9.245,-0.575,-0.0,-0.671,9.053,1.006,0.0,-1.438,9.059,-1.007,5.865,-11.73,-5.865
3.075,1.198,9.484,-0.527,-0.0,-0.719,9.341,0.91,0.0,-1.438,9.059,-1.007,5.865,-11.73,0.0
3.08,1.15,9.58,-0.479,-0.0,-0.719,9.532,0.862,0.0,-1.438,9.347,-1.007,5.865,-11.73,0.0
3.085,1.15,9.628,-0.527,-0.0,-0.671,9.724,0.862,0.0,-1.582,9.635,-1.007,5.865,-11.73,0.0
3.09,1.15,9.628,-0.575,-0.0,-0.671,9.82,0.91,0.0,-1.582,9.922,-1.007,5.865,-11.73,0.0
3.095,1.15,9.772,-0.623,-0.0,-0.671,9.915,0.958,0.0,-1.582,10.066,-1.007,0.0,-11.73,0.0
3.1,1.245,9.915,-0.671,-5.865,-0.671,10.107,1.006,0.0,-1.582,10.21,-1.007,0.0,-11.73,0.0
3.105,1.293,9.82,-0.719,-5.865,-0.671,10.346,1.054,-5.865,-1.582,10.354,-1.15,-5.865,-11.73,0.0
3.11,1.245,9.724,-0.766,-11.73,-0.719,10.634,1.102,-11.73,-1.438,10.785,-1.15,-5.865,-11.73,-5.865
3.115,1.15,9.867,-0.719,-17.595,-0.671,10.873,1.15,-11.73,-1.582,11.36,-1.15,-11.73,-5.865,-11.73
3.12,1.054,10.155,-0.479,-23.46,-0.671,11.161,1.006,-17.595,-1.582,11.935,-1.294,-23.46,-5.865,-11.73
3.125,0.958,10.394,-0.24,-35.191,-0.623,11.304,0.766,-29.326,-1.726,12.223,-1.15,-35.191,-5.865,-17.595
3.13,0.766,10.394,-0.048,-41.056,-0.623,11.209,0.527,-41.056,-1.869,12.223,-0.863,-46.921,-5.865,-23.46
3.1350000000000002,0.623,10.299,0.096,-46.921,-0.575,10.73,0.335,-46.921,-1.869,11.935,-0.575,-58.651,-11.73,-41.056
3.14,0.623,9.963,0.048,-52.786,-0.527,10.251,0.24,-52.786,-1.869,11.073,-0.431,-70.381,-11.73,-46.921
3.145,0.814,9.676,-0.192,-58.651,-0.575,9.676,0.335,-58.651,-1.726,10.354,-0.288,-76.246,-17.595,-52.786
3.15,1.006,9.293,-0.575,-58.651,-0.671,9.101,0.623,-58.651,-1.726,9.491,-0.288,-76.246,-23.46,-58.651
3.1550000000000002,1.293,9.053,-1.102,-46.921,-0.862,8.574,1.054,-52.786,-1.726,8.628,-0.575,-76.246,-23.46,-58.651
3.16,1.677,8.957,-1.581,-41.056,-0.958,8.239,1.581,-46.921,-1.726,8.053,-1.007,-70.381,-29.326,-58.651
3.165,2.012,8.862,-1.964,-29.326,-1.15,8.143,2.06,-41.056,-1.582,7.621,-1.582,-64.516,-29.326,-52.786
3.17,2.203,8.862,-2.203,-23.46,-1.389,8.239,2.395,-29.326,-1.726,7.478,-2.157,-52.786,-29.326,-41.056
3.1750000000000003,2.347,8.957,-2.299,-17.595,-1.485,8.383,2.587,-17.595,-1.869,7.765,-2.445,-46.921,-29.326,-35.191
3.18,2.251,8.766,-2.395,-11.73,-1.581,8.526,2.682,-11.73,-1.869,7.909,-2.588,-41.056,-23.46,-23.46
3.185,2.06,8.718,-2.443,-5.865,-1.485,8.622,2.778,-5.865,-2.013,8.197,-2.732,-35.191,-17.595,-17.595
3.19,2.203,8.957,-2.299,-0.0,-1.437,8.718,2.778,0.0,-2.013,8.484,-2.876,-29.326,-17.595,-11.73
3.1950000000000003,2.299,9.053,-2.156,5.865,-1.533,8.814,2.635,0.0,-2.013,8.628,-2.876,-29.326,-11.73,0.0
3.2,2.06,9.197,-2.06,5.865,-1.581,8.766,2.491,5.865,-2.013,8.628,-2.732,-29.326,-5.865,0.0
3.205,1.82,9.532,-1.916,11.73,-1.389,8.862,2.443,11.73,-2.157,8.484,-2.588,-23.46,0.0,5.865
3.21,1.772,9.963,-1.724,17.595,-1.341,9.149,2.251,11.73,-2.013,8.484,-2.588,-23.46,0.0,11.73
3.215,1.533,10.346,-1.581,17.595,-1.341,9.484,2.06,17.595,-2.157,8.772,-2.301,-17.595,0.0,11.73
3.22,1.341,10.634,-1.389,17.595,-1.15,9.867,1.916,17.595,-2.157,8.916,-2.157,-11.73,5.865,17.595
3.225,1.293,10.682,-1.293,17.595,-1.102,10.203,1.772,17.595,-2.157,9.347,-2.013,-5.865,5.865,17.595
3.23,1.245,10.442,-1.245,11.73,-1.054,10.299,1.629,17.595,-2.157,9.778,-1.869,0.0,5.865,17.595
3.235,1.293,10.107,-1.293,11.73,-1.006,10.155,1.629,11.73,-2.157,10.066,-1.726,5.865,0.0,11.73
3.24,1.389,9.772,-1.341,5.865,-1.006,9.963,1.677,11.73,-2.013,10.066,-1.726,5.865,0.0,11.73
3.245,1.485,9.532,-1.437,5.865,-1.006,9.867,1.724,5.865,-2.013,9.922,-1.726,5.865,0.0,11.73
3.25,1.437,9.484,-1.533,5.865,-1.006,9.82,1.82,5.865,-1.869,9.922,-1.869,5.865,-5.865,5.865
3.255,1.485,9.484,-1.581,-0.0,-0.958,9.867,1.916,5.865,-1.869,10.066,-1.869,5.865,-5.865,5.865
3.2600000000000002,1.581,9.388,-1.772,-0.0,-1.006,9.963,2.012,5.865,-1.869,10.21,-2.013,5.865,-5.865,5.865
3.265,1.677,9.293,-1.868,-0.0,-1.006,9.915,2.203,0.0,-1.869,10.354,-2.157,5.865,-5.865,0.0
3.27,1.82,9.245,-1.964,-0.0,-1.102,9.867,2.299,0.0,-1.726,10.497,-2.301,0.0,-5.865,0.0
3.275,1.772,9.245,-1.916,-5.865,-1.15,9.772,2.347,0.0,-1.726,10.354,-2.445,-5.865,-5.865,0.0
3.2800000000000002,1.724,9.245,-1.868,-0.0,-1.15,9.628,2.299,0.0,-1.869,10.21,-2.445,-17.595,0.0,0.0
3.285,1.772,9.436,-1.772,-0.0,-1.15,9.484,2.203,0.0,-1.869,9.922,-2.445,-23.46,0.0,0.0
3.29,1.724,9.484,-1.677,-0.0,-1.198,9.388,2.108,0.0,-1.869,9.635,-2.301,-29.326,5.865,-5.865
3.295,1.581,9.532,-1.533,-0.0,-1.198,9.341,2.06,0.0,-1.869,9.347,-2.157,-29.326,5.865,-5.865
3.3000000000000003,1.389,9.867,-1.245,-0.0,-1.15,9.341,1.868,0.0,-2.013,9.203,-2.157,-29.326,5.865,0.0
3.305,1.102,10.346,-0.91,5.865,-1.102,9.484,1.533,5.865,-2.013,9.059,-1.869,-29.326,11.73,0.0
3.31,0.958,10.778,-0.623,5.865,-1.006,9.724,1.198,5.865,-2.013,9.059,-1.582,-29.326,5.865,5.865
3.315,0.862,10.873,-0.431,5.865,-0.958,9.82,0.91,5.865,-2.157,9.059,-1.294,-23.46,5.865,5.865
3.3200000000000003,0.814,10.873,-0.479,5.865,-0.91,9.82,0.814,5.865,-2.157,8.916,-1.007,-17.595,5.865,5.865
3.325,0.958,10.73,-0.671,11.73,-0.814,9.867,0.862,11.73,-2.157,8.916,-0.863,-5.865,0.0,5.865
3.33,1.15,10.634,-0.862,11.73,-0.91,9.915,1.102,5.865,-2.013,9.059,-1.007,5.865,-5.865,5.865
3.335,1.293,10.586,-1.102,11.73,-0.91,9.915,1.293,11.73,-2.013,9.203,-1.15,17.595,-11.73,11.73
3.34,1.389,10.49,-1.389,11.73,-0.862,10.011,1.533,11.73,-1.869,9.347,-1.294,29.326,-11.73,11.73
3.345,1.533,10.299,-1.581,17.595,-0.862,10.155,1.772,11.73,-1.726,9.491,-1.582,41.056,-17.595,11.73
3.35,1.581,10.155,-1.677,17.595,-0.862,10.251,1.964,17.595,-1.582,9.922,-1.869,46.921,-17.595,11.73
3.355,1.629,10.011,-1.724,17.595,-0.862,10.299,2.06,17.595,-1.582,10.21,-2.013,46.921,-17.595,11.73
3.36,1.629,9.963,-1.677,17.595,-0.862,10.394,2.06,17.595,-1.582,10.497,-2.157,52.786,-11.73,17.595
3.365,1.581,9.915,-1.629,11.73,-0.91,10.538,2.012,17.595,-1.582,10.785,-2.157,46.921,-11.73,17.595
3.37,1.533,10.059,-1.629,11.73,-0.862,10.73,1.964,17.595,-1.582,11.073,-2.157,46.921,-5.865,17.595
3.375,1.533,10.251,-1.629,5.865,-0.862,10.921,1.964,11.73,-1.582,11.36,-2.157,41.056,-5.865,11.73
3.38,1.485,10.49,-1.629,5.865,-0.862,11.065,2.012,5.865,-1.726,11.648,-2.157,29.326,0.0,11.73
3.3850000000000002,1.341,10.73,-1.629,-0.0,-0.814,11.161,1.964,5.865,-1.726,11.648,-2.157,23.46,0.0,5.865
3.39,1.245,10.969,-1.533,-5.865,-0.766,11.209,1.964,0.0,-1.726,11.648,-2.157,5.865,5.865,5.865
3.395,1.245,11.113,-1.437,-11.73,-0.719,11.257,1.868,-5.865,-1.726,11.648,-2.013,0.0,5.865,0.0
3.4,1.15,10.921,-1.437,-17.595,-0.766,11.113,1.772,-11.73,-1.726,11.36,-2.013,-5.865,5.865,-5.865
3.4050000000000002,1.102,10.73,-1.437,-17.595,-0.719,10.873,1.772,-17.595,-1.726,11.216,-1.869,-5.865,5.865,-11.73
3.41,1.054,10.586,-1.389,-23.46,-0.719,10.586,1.724,-17.595,-1.726,10.929,-1.869,-5.865,5.865,-17.595
3.415,1.054,10.538,-1.293,-23.46,-0.719,10.346,1.724,-23.46,-1.726,10.497,-1.869,-5.865,5.865,-23.46
3.42,1.054,10.442,-1.245,-23.46,-0.719,10.155,1.629,-23.46,-1.726,10.21,-1.869,-5.865,5.865,-23.46
3.4250000000000003,1.006,10.346,-1.341,-23.46,-0.766,9.963,1.629,-23.46,-1.726,9.922,-1.726,-5.865,0.0,-23.46
3.43,1.198,10.251,-1.437,-23.46,-0.719,9.867,1.724,-23.46,-1.726,9.635,-1.726,0.0,0.0,-23.46
3.435,1.293,10.011,-1.533,-17.595,-0.814,9.676,1.82,-23.46,-1.726,9.347,-1.869,0.0,0.0,-23.46
3.44,1.341,9.724,-1.677,-17.595,-0.862,9.58,1.916,-17.595,-1.726,9.347,-1.869,5.865,0.0,-23.46
3.4450000000000003,1.389,9.58,-1.677,-11.73,-0.91,9.484,2.06,-17.595,-1.726,9.347,-2.013,5.865,0.0,-17.595
3.45,1.437,9.58,-1.629,-11.73,-0.958,9.532,2.012,-11.73,-1.726,9.347,-2.157,17.595,0.0,-17.595
3.455,1.437,9.58,-1.533,-11.73,-0.958,9.628,1.964,-11.73,-1.726,9.491,-2.157,23.46,0.0,-11.73
3.46,1.437,9.58,-1.485,-11.73,-1.006,9.676,1.916,-11.73,-1.726,9.635,-2.013,23.46,0.0,-11.73
3.465,1.485,9.532,-1.437,-11.73,-1.006,9.724,1.82,-11.73,-1.869,9.778,-2.013,23.46,0.0,-11.73
3.47,1.533,9.532,-1.341,-11.73,-1.054,9.724,1.772,-11.73,-1.869,9.778,-1.869,23.46,0.0,-11.73
3.475,1.485,9.388,-1.245,-11.73,-1.054,9.628,1.724,-11.73,-1.869,9.778,-1.869,17.595,0.0,-11.73
3.48,1.485,9.436,-1.15,-11.73,-1.102,9.484,1.629,-11.73,-1.869,9.778,-1.869,17.595,0.0,-11.73
3.485,1.437,9.532,-1.054,-11.73,-1.054,9.436,1.533,-11.73,-1.869,9.635,-1.726,5.865,0.0,-11.73
3.49,1.389,9.628,-0.91,-11.73,-1.054,9.436,1.389,-11.73,-1.869,9.491,-1.582,5.865,0.0,-11.73
3.495,1.245,9.724,-0.766,-11.73,-1.006,9.484,1.245,-11.73,-1.869,9.347,-1.438,5.865,0.0,-11.73
3.5,1.245,9.724,-0.623,-11.73,-0.958,9.484,1.102,-11.73,-1.869,9.347,-1.294,5.865,0.0,-11.73
3.505,1.198,9.628,-0.623,-11.73,-0.958,9.388,1.006,-11.73,-1.869,9.347,-1.15,5.865,0.0,-11.73
3.5100000000000002,1.198,9.58,-0.623,-11.73,-0.958,9.293,0.958,-11.73,-1.869,9.203,-1.007,17.595,0.0,-17.595
3.515,1.245,9.58,-0.623,-11.73,-0.958,9.245,1.006,-17.595,-1.869,9.059,-1.007,23.46,-5.865,-11.73
3.52,1.293,9.58,-0.671,-11.73,-0.958,9.293,1.006,-11.73,-1.869,9.059,-1.007,23.46,-5.865,-11.73
3.525,1.389,9.58,-0.766,-11.73,-1.006,9.341,1.054,-11.73,-1.869,9.059,-1.007,29.326,-5.865,-11.73
3.5300000000000002,1.485,9.58,-0.91,-11.73,-1.006,9.436,1.198,-11.73,-1.869,9.203,-1.15,29.326,-5.865,-11.73
3.535,1.581,9.628,-0.958,-5.865,-1.054,9.532,1.293,-5.865,-1.869,9.347,-1.294,29.326,-5.865,-11.73
3.54,1.629,9.676,-1.006,-5.865,-1.15,9.676,1.341,-5.865,-1.869,9.491,-1.294,35.191,-11.73,-5.865
3.545,1.677,9.772,-1.006,-5.865,-1.15,9.867,1.389,-5.865,-2.013,9.778,-1.438,35.191,-11.73,-5.865
3.5500000000000003,1.724,9.915,-1.054,-5.865,-1.198,10.011,1.437,-5.865,-2.013,9.922,-1.438,35.191,-5.865,-5.865
3.555,1.724,10.011,-1.054,-5.865,-1.198,10.107,1.437,-5.865,-2.013,10.21,-1.438,29.326,-5.865,-5.865
3.56,1.772,10.059,-1.054,-11.73,-1.245,10.203,1.437,-11.73,-2.013,10.21,-1.582,29.326,-5.865,-5.865
3.565,1.724,10.059,-1.054,-11.73,-1.293,10.203,1.389,-11.73,-2.157,10.354,-1.582,29.326,-5.865,-11.73
3.5700000000000003,1.724,10.155,-1.054,-11.73,-1.293,10.203,1.437,-11.73,-2.157,10.354,-1.438,23.46,-5.865,-11.73
3.575,1.772,10.203,-1.006,-11.73,-1.293,10.251,1.389,-17.595,-2.157,10.354,-1.582,23.46,-5.865,-11.73
3.58,1.82,10.203,-0.958,-17.595,-1.389,10.251,1.341,-17.595,-2.157,10.354,-1.438,23.46,-5.865,-11.73
3.585,1.82,10.155,-0.958,-17.595,-1.389,10.155,1.341,-17.595,-2.301,10.21,-1.438,17.595,-5.865,-17.595
3.59,1.868,10.059,-0.958,-17.595,-1.389,10.011,1.341,-17.595,-2.301,10.066,-1.438,17.595,-5.865,-17.595
3.595,1.868,9.963,-1.006,-23.46,-1.485,9.867,1.341,-17.595,-2.301,9.922,-1.438,17.595,-5.865,-17.595
3.6,1.868,10.011,-1.054,-17.595,-1.437,9.772,1.389,-23.46,-2.301,9.778,-1.438,17.595,-5.865,-23.46
3.605,1.916,10.155,-0.958,-23.46,-1.437,9.772,1.389,-23.46,-2.301,9.635,-1.438,17.595,-5.865,-23.46
3.61,1.964,10.155,-0.91,-23.46,-1.533,9.867,1.293,-23.46,-2.301,9.491,-1.438,23.46,-5.865,-23.46
3.615,1.964,9.963,-0.958,-23.46,-1.581,9.867,1.245,-23.46,-2.445,9.635,-1.438,23.46,-5.865,-23.46
3.62,1.964,9.772,-0.958,-23.46,-1.533,9.724,1.293,-23.46,-2.445,9.635,-1.294,29.326,-5.865,-23.46
3.625,2.06,9.724,-0.91,-23.46,-1.581,9.58,1.293,-23.46,-2.445,9.635,-1.438,29.326,-5.865,-23.46
3.63,2.108,9.724,-0.862,-23.46,-1.629,9.58,1.293,-23.46,-2.445,9.491,-1.438,29.326,-5.865,-23.46
3.6350000000000002,2.108,9.676,-0.814,-23.46,-1.724,9.58,1.198,-23.46,-2.445,9.347,-1.294,35.191,-5.865,-23.46
3.64,2.108,9.628,-0.814,-23.46,-1.724,9.58,1.15,-23.46,-2.588,9.491,-1.294,35.191,-5.865,-23.46
3.645,2.156,9.628,-0.814,-23.46,-1.772,9.58,1.198,-23.46,-2.588,9.491,-1.294,35.191,-5.865,-23.46
3.65,2.203,9.58,-0.814,-29.326,-1.772,9.532,1.198,-29.326,-2.588,9.491,-1.294,35.191,-5.865,-23.46
3.6550000000000002,2.299,9.532,-0.814,-29.326,-1.82,9.484,1.198,-29.326,-2.588,9.491,-1.294,35.191,-5.865,-23.46
3.66,2.395,9.341,-0.814,-35.191,-1.916,9.436,1.198,-35.191,-2.588,9.347,-1.294,35.191,-5.865,-29.326
3.665,2.395,9.197,-0.862,-35.191,-1.964,9.341,1.198,-35.191,-2.732,9.347,-1.294,35.191,-5.865,-35.191
3.67,2.395,9.149,-0.862,-41.056,-1.916,9.197,1.245,-35.191,-2.876,9.347,-1.294,35.191,-5.865,-35.191
3.6750000000000003,2.443,9.245,-0.766,-41.056,-1.916,9.149,1.198,-41.056,-2.732,9.203,-1.294,35.191,-5.865,-41.056
3.68,2.443,9.341,-0.671,-46.921,-2.012,9.293,1.102,-46.921,-2.732,9.203,-1.294,35.191,-5.865,-41.056
3.685,2.347,9.293,-0.623,-52.786,-2.06,9.388,1.006,-52.786,-2.876,9.347,-1.15,35.191,-5.865,-46.921
3.69,2.299,9.245,-0.527,-64.516,-1.964,9.293,0.958,-58.651,-2.876,9.491,-1.007,35.191,0.0,-52.786
3.6950000000000003,2.156,9.197,-0.383,-70.381,-1.916,9.149,0.862,-64.516,-2.876,9.347,-1.007,29.326,0.0,-58.651
3.7,2.156,9.341,-0.24,-82.111,-1.868,9.101,0.671,-76.246,-2.732,9.059,-0.863,29.326,0.0,-64.516
3.705,2.108,9.341,-0.24,-87.977,-1.772,9.101,0.623,-87.977,-2.876,8.916,-0.719,29.326,0.0,-76.246
3.71,2.06,9.197,-0.287,-99.707,-1.772,9.005,0.623,-93.842,-2.732,8.916,-0.719,29.326,0.0,-87.977
3.715,1.868,8.622,-0.766,-111.437,-1.772,8.814,0.719,-105.572,-2.732,8.772,-0.719,29.326,0.0,-93.842
3.72,1.533,7.329,-1.389,-117.302,-1.437,8.335,1.341,-117.302,-2.732,8.628,-0.719,35.191,-5.865,-105.572
3.725,1.581,5.509,-2.012,-123.167,-1.245,7.425,1.964,-123.167,-2.301,8.34,-1.438,35.191,-5.865,-111.437
3.73,2.251,3.832,-2.587,-123.167,-1.293,5.844,2.587,-129.032,-2.013,7.909,-2.013,41.056,-5.865,-123.167
3.735,3.497,2.251,-2.778,-111.437,-1.772,4.072,3.066,-123.167,-1.726,6.615,-2.732,35.191,-5.865,-129.032
3.74,4.359,0.766,-2.73,-99.707,-2.826,2.156,3.209,-111.437,-1.726,4.745,-3.164,23.46,-5.865,-123.167
3.745,4.598,-1.485,-2.443,-82.111,-3.449,0.096,3.161,-99.707,-2.301,2.445,-3.307,17.595,0.0,-111.437
3.75,4.311,-3.688,-2.012,-58.651,-3.64,-2.539,2.874,-82.111,-2.732,-0.144,-3.164,5.865,11.73,-99.707
3.755,3.976,-5.317,-1.15,-29.326,-3.688,-5.317,2.443,-52.786,-2.732,-3.164,-2.876,5.865,23.46,-82.111
3.7600000000000002,3.64,-6.85,-0.479,11.73,-3.832,-7.616,1.437,-17.595,-2.732,-6.471,-2.445,5.865,35.191,-52.786
3.765,3.353,-8.718,-0.431,64.516,-3.401,-9.628,1.006,29.326,-2.876,-9.347,-1.438,23.46,41.056,-17.595
3.77,3.64,-10.873,-0.527,123.167,-3.401,-11.304,0.958,82.111,-2.157,-11.648,-0.863,41.056,46.921,29.326
3.775,3.928,-12.933,-1.245,187.683,-3.209,-12.454,1.15,146.628,-2.013,-13.086,-0.719,64.516,52.786,82.111
3.7800000000000002,3.161,-13.125,-2.156,252.199,-2.73,-13.268,2.012,211.144,-1.294,-13.23,-1.007,87.977,58.651,140.762
3.785,2.347,-11.592,-2.778,310.85,-1.293,-12.358,2.778,275.66,-0.288,-13.23,-1.869,99.707,70.381,205.279
3.79,3.018,-11.304,-3.545,363.636,-0.192,-10.155,3.401,334.311,1.438,-11.792,-2.732,105.572,82.111,269.795
3.795,2.826,-11.448,-4.742,410.557,-0.719,-9.005,4.215,387.097,2.732,-8.916,-3.307,99.707,99.707,328.446
3.8000000000000003,-0.766,-7.856,-4.79,445.748,0.527,-7.76,5.365,434.017,2.588,-6.615,-4.17,93.842,123.167,381.232
3.805,19.447,5.844,14.514,422.287,3.497,-1.389,4.455,463.343,3.451,-4.602,-5.321,76.246,152.493,428.152
3.81,-24.381,17.915,0.527,228.739,-1.245,22.657,-14.37,410.557,4.889,0.0,-4.458,46.921,175.953,457.478
3.815,-10.394,23.95,17.867,-46.921,7.904,24.333,1.389,175.953,0.144,54.644,13.373,140.762,211.144,404.692
3.8200000000000003,-4.79,23.998,18.825,-111.437,18.825,24.333,-23.136,-123.167,-25.74,73.913,0.575,5.865,240.469,117.302
3.825,-6.658,15.759,8.287,-35.191,5.125,23.423,-15.568,-158.358,24.877,42.996,27.466,-346.041,-46.921,-187.683
3.83,-1.533,3.64,2.826,23.46,5.077,8.718,-7.137,-35.191,1.15,18.982,16.249,-381.232,-64.516,-170.088
3.835,4.263,9.58,-1.245,52.786,0.0,-0.383,-1.293,35.191,3.883,7.478,7.621,-304.985,-52.786,-29.326
3.84,4.598,17.484,-3.305,93.842,-2.395,3.832,1.916,64.516,0.288,-3.595,1.726,-258.064,-58.651,35.191
3.845,2.156,21.747,-4.551,129.032,-2.06,11.879,3.976,105.572,-0.144,-2.732,-1.726,-217.009,-58.651,70.381
3.85,2.108,23.088,-3.784,146.628,-1.485,17.579,4.742,140.762,-1.726,5.752,-3.883,-146.628,-35.191,105.572
3.855,1.724,21.172,-3.066,140.762,-1.629,18.921,3.736,146.628,-3.02,13.661,-4.745,-64.516,-5.865,140.762
3.86,-0.048,18.442,-2.299,129.032,-0.862,17.484,3.161,140.762,-3.307,15.387,-3.883,0.0,0.0,140.762
3.865,-0.766,16.765,-1.724,105.572,0.287,16.621,2.251,123.167,-2.445,14.955,-3.164,46.921,5.865,134.897
3.87,0.096,15.089,-1.677,87.977,0.527,16.861,1.964,99.707,-1.726,15.387,-2.301,87.977,5.865,117.302
3.875,1.389,14.035,-2.156,58.651,-0.24,16.478,1.964,76.246,-1.869,17.4,-2.013,105.572,0.0,99.707
3.88,1.964,12.789,-3.114,23.46,-0.814,15.903,2.73,46.921,-2.301,17.975,-2.013,111.437,-11.73,76.246
3.8850000000000002,2.012,11.304,-3.64,-11.73,-1.054,15.041,3.64,11.73,-2.301,17.687,-2.876,93.842,-17.595,46.921
3.89,2.012,10.107,-3.257,-41.056,-0.958,13.46,3.928,-17.595,-2.157,17.256,-3.739,76.246,-17.595,11.73
3.895,1.868,9.82,-2.539,-64.516,-0.814,11.831,3.353,-46.921,-1.869,15.674,-4.17,46.921,-17.595,-23.46
3.9,1.437,9.915,-1.964,-70.381,-0.527,10.778,2.682,-70.381,-1.438,13.517,-3.451,5.865,-11.73,-52.786
3.9050000000000002,0.862,9.867,-1.581,-76.246,-0.287,10.394,2.203,-76.246,-0.863,11.648,-2.876,-11.73,-5.865,-70.381
3.91,0.766,10.442,-1.341,-76.246,0.048,10.299,1.868,-76.246,-0.863,10.785,-2.301,-29.326,0.0,-76.246
3.915,0.766,10.969,-0.766,-70.381,0.0,10.682,1.581,-76.246,-0.719,10.641,-1.869,-35.191,5.865,-76.246
3.92,0.671,10.921,-0.144,-70.381,-0.287,10.825,0.91,-70.381,-0.719,10.785,-1.582,-41.056,11.73,-76.246
3.9250000000000003,0.335,10.778,0.24,-64.516,-0.287,10.73,0.383,-70.381,-1.294,10.641,-1.007,-41.056,17.595,-70.381
3.93,0.048,10.251,0.766,-64.516,-0.048,10.394,0.048,-70.381,-1.438,10.641,-0.431,-41.056,17.595,-70.381
3.935,0.144,10.011,1.389,-58.651,-0.048,9.724,-0.623,-64.516,-1.294,10.21,-0.0,-35.191,17.595,-70.381
3.94,0.479,10.011,1.198,-52.786,-0.335,9.58,-1.054,-58.651,-1.294,9.347,0.575,-35.191,17.595,-64.516
3.9450000000000003,0.671,9.867,0.527,-46.921,-0.479,9.436,-0.623,-52.786,-1.582,9.203,1.007,-29.326,11.73,-64.516
3.95,0.958,10.107,0.383,-41.056,-0.431,9.58,-0.048,-46.921,-1.726,9.059,0.575,-23.46,5.865,-58.651
3.955,1.006,10.299,0.671,-35.191,-0.719,10.059,-0.048,-41.056,-1.438,9.347,-0.0,-17.595,0.0,-46.921
3.96,0.671,10.442,0.91,-35.191,-0.814,10.251,-0.479,-41.056,-1.869,9.922,-0.0,-11.73,0.0,-41.056
3.9650000000000003,0.144,10.155,0.958,-41.056,-0.431,10.394,-0.575,-41.056,-2.013,10.21,0.431,-11.73,0.0,-41.056
3.97,0.144,10.011,0.958,-41.056,-0.096,10.346,-0.575,-41.056,-1.726,10.354,0.575,-11.73,-5.865,-41.056
3.975,0.383,9.82,0.91,-41.056,-0.096,10.155,-0.575,-41.056,-1.582,10.497,0.575,-11.73,-5.865,-41.056
3.98,0.479,9.388,0.766,-41.056,-0.096,9.82,-0.527,-41.056,-1.294,10.354,0.575,-11.73,-11.73,-41.056
3.985,0.335,9.149,0.623,-41.056,-0.096,9.772,-0.383,-41.056,-1.15,10.066,0.431,-11.73,-17.595,-41.056
3.99,0.383,9.388,0.623,-41.056,0.0,9.772,-0.24,-41.056,-1.15,10.21,0.288,-17.595,-17.595,-41.056
3.995,0.431,9.58,0.719,-46.921,0.0,9.963,-0.287,-46.921,-1.15,10.354,0.144,-17.595,-23.46,-46.921
4.0,0.287,9.436,0.575,-52.786,0.0,10.011,-0.335,-46.921,-1.007,10.497,0.288,-23.46,-23.46,-46.921
4.005,0.192,9.245,0.431,-52.786,0.144,9.82,-0.144,-52.786,-1.007,10.497,0.288,-29.326,-23.46,-46.921
4.01,0.383,9.245,0.383,-58.651,0.144,9.676,-0.096,-58.651,-0.863,10.21,0.144,-41.056,-23.46,-52.786
4.015,0.479,9.484,0.192,-64.516,0.048,9.676,0.0,-58.651,-0.863,10.21,0.144,-41.056,-23.46,-58.651
4.0200000000000005,0.479,9.436,0.096,-64.516,0.048,9.82,0.24,-64.516,-0.863,10.066,-0.0,-46.921,-23.46,-64.516
4.025,0.479,9.245,0.144,-64.516,-0.048,9.724,0.24,-70.381,-0.863,10.21,-0.288,-52.786,-23.46,-70.381
4.03,0.479,9.197,0.192,-70.381,-0.096,9.532,0.192,-70.381,-1.007,10.21,-0.288,-52.786,-23.46,-70.381
4.035,0.431,9.245,0.287,-70.381,-0.144,9.341,0.144,-70.381,-1.15,9.922,-0.288,-58.651,-23.46,-70.381
4.04,0.335,9.101,0.335,-70.381,-0.144,9.197,0.048,-70.381,-1.15,9.491,-0.144,-64.516,-29.326,-70.381
4.045,0.335,9.005,0.24,-70.381,-0.192,9.149,0.048,-70.381,-1.294,9.347,-0.0,-64.516,-29.326,-70.381
4.05,0.431,9.053,0.144,-64.516,-0.24,9.053,0.144,-70.381,-1.294,9.203,-0.144,-64.516,-29.326,-70.381
4.055,0.671,9.053,0.048,-64.516,-0.335,8.909,0.24,-70.381,-1.294,9.059,-0.144,-64.516,-35.191,-70.381
4.0600000000000005,0.91,9.101,-0.192,-58.651,-0.479,8.814,0.383,-64.516,-1.438,8.916,-0.288,-64.516,-35.191,-70.381
4.065,0.91,9.197,-0.431,-58.651,-0.623,8.766,0.575,-64.516,-1.438,8.628,-0.431,-64.516,-35.191,-64.516
4.07,1.006,9.388,-0.623,-58.651,-0.671,8.814,0.814,-64.516,-1.582,8.484,-0.575,-64.516,-41.056,-64.516
4.075,1.102,9.436,-0.719,-58.651,-0.719,8.862,1.006,-58.651,-1.582,8.484,-0.863,-58.651,-41.056,-64.516
4.08,1.15,9.341,-0.862,-52.786,-0.862,8.909,1.102,-58.651,-1.582,8.484,-1.007,-58.651,-41.056,-58.651
4.085,1.245,9.293,-1.006,-52.786,-0.91,8.862,1.245,-58.651,-1.726,8.484,-1.15,-52.786,-41.056,-58.651
4.09,1.198,9.197,-1.102,-46.921,-0.958,8.814,1.437,-52.786,-1.869,8.484,-1.294,-46.921,-46.921,-52.786
4.095,1.485,9.005,-1.006,-41.056,-1.006,8.718,1.437,-46.921,-1.869,8.34,-1.438,-41.056,-46.921,-52.786
4.1,1.293,8.766,-1.198,-41.056,-1.054,8.526,1.437,-41.056,-1.869,8.34,-1.582,-35.191,-46.921,-46.921
4.105,1.389,8.43,-1.485,-35.191,-0.958,8.43,1.677,-41.056,-1.869,8.197,-1.438,-29.326,-46.921,-46.921
4.11,1.581,8.43,-1.724,-29.326,-1.102,8.143,1.916,-35.191,-1.726,8.197,-1.726,-23.46,-46.921,-41.056
4.115,1.724,8.383,-1.82,-23.46,-1.245,8.191,2.108,-29.326,-1.869,7.909,-2.013,-17.595,-46.921,-35.191
4.12,1.677,8.191,-1.868,-17.595,-1.293,8.239,2.251,-23.46,-2.013,8.053,-2.157,-17.595,-46.921,-23.46
4.125,1.82,8.047,-1.868,-11.73,-1.245,8.047,2.299,-17.595,-2.013,8.197,-2.301,-17.595,-41.056,-23.46
4.13,1.916,8.047,-1.916,-5.865,-1.485,7.808,2.251,-11.73,-2.013,7.909,-2.301,-11.73,-41.056,-17.595
4.135,1.868,8.047,-2.108,-11.73,-1.581,7.904,2.347,-11.73,-2.157,7.621,-2.301,-11.73,-41.056,-11.73
4.14,1.724,8.047,-2.395,-5.865,-1.485,7.904,2.539,-5.865,-2.301,7.765,-2.445,-11.73,-41.056,-11.73
4.1450000000000005,1.581,8.095,-2.443,-0.0,-1.293,7.999,2.826,-5.865,-2.157,7.765,-2.588,-5.865,-41.056,-11.73
4.15,1.629,8.478,-2.299,5.865,-1.341,8.239,2.778,0.0,-2.157,7.909,-2.876,-5.865,-35.191,-5.865
4.155,1.677,8.622,-2.156,5.865,-1.437,8.383,2.587,5.865,-2.157,8.197,-2.876,-5.865,-35.191,0.0
4.16,1.533,8.478,-2.156,5.865,-1.485,8.574,2.491,5.865,-2.301,8.34,-2.588,-5.865,-35.191,5.865
4.165,1.485,8.239,-2.203,5.865,-1.389,8.383,2.539,5.865,-2.588,8.484,-2.588,-5.865,-35.191,5.865
4.17,1.629,8.143,-2.251,5.865,-1.341,8.143,2.635,5.865,-2.445,8.34,-2.588,-5.865,-35.191,5.865
4.175,1.629,7.904,-2.347,5.865,-1.485,8.047,2.635,5.865,-2.301,8.053,-2.732,-5.865,-41.056,5.865
4.18,1.629,8.143,-2.539,11.73,-1.389,7.856,2.778,11.73,-2.445,7.909,-2.732,-5.865,-41.056,5.865
4.1850000000000005,1.677,8.478,-2.635,11.73,-1.341,7.999,2.97,11.73,-2.301,7.765,-2.876,-5.865,-46.921,5.865
4.19,1.772,8.718,-2.826,11.73,-1.437,8.43,3.018,11.73,-2.157,7.765,-3.02,-5.865,-46.921,11.73
4.195,1.772,8.622,-3.018,11.73,-1.485,8.766,3.257,11.73,-2.301,8.34,-3.164,0.0,-46.921,11.73
4.2,1.868,8.43,-3.066,11.73,-1.533,8.718,3.401,11.73,-2.445,8.772,-3.307,0.0,-46.921,11.73
4.205,1.964,8.287,-3.066,11.73,-1.629,8.574,3.401,11.73,-2.445,8.772,-3.451,0.0,-46.921,11.73
4.21,2.012,8.143,-3.066,11.73,-1.677,8.383,3.401,11.73,-2.588,8.628,-3.595,0.0,-46.921,11.73
4.215,2.06,8.143,-3.018,11.73,-1.724,8.239,3.449,11.73,-2.588,8.34,-3.451,-5.865,-46.921,5.865
4.22,2.06,8.095,-3.018,11.73,-1.772,8.191,3.401,11.73,-2.588,8.197,-3.595,-5.865,-46.921,11.73
4.225,2.06,8.095,-3.066,11.73,-1.724,8.143,3.449,11.73,-2.588,8.197,-3.451,-5.865,-46.921,11.73
4.23,2.108,8.095,-3.066,17.595,-1.724,8.095,3.449,11.73,-2.588,8.197,-3.451,-11.73,-46.921,11.73
4.235,2.156,8.095,-3.018,17.595,-1.772,7.999,3.401,17.595,-2.445,8.053,-3.595,-11.73,-46.921,11.73
4.24,2.06,8.287,-3.018,17.595,-1.724,7.951,3.401,17.595,-2.445,7.909,-3.451,-11.73,-46.921,17.595
4.245,2.06,8.383,-2.97,23.46,-1.677,8.095,3.401,17.595,-2.445,7.765,-3.451,-11.73,-46.921,17.595
4.25,1.964,8.383,-2.97,23.46,-1.724,8.239,3.305,23.46,-2.445,7.909,-3.451,-11.73,-46.921,17.595
4.255,1.916,8.143,-3.018,23.46,-1.677,8.287,3.353,23.46,-2.588,8.053,-3.451,-5.865,-46.921,23.46
4.26,1.964,7.951,-2.97,23.46,-1.629,8.143,3.353,23.46,-2.445,8.197,-3.451,-5.865,-46.921,23.46
4.265,2.06,7.904,-2.922,23.46,-1.677,7.999,3.305,23.46,-2.445,8.197,-3.451,-5.865,-46.921,23.46
4.2700000000000005,2.06,7.856,-2.922,29.326,-1.724,7.904,3.305,23.46,-2.445,8.053,-3.451,-5.865,-46.921,23.46
4.275,2.06,7.856,-2.922,29.326,-1.677,7.856,3.305,29.326,-2.445,7.909,-3.307,-5.865,-46.921,23.46
4.28,1.964,8.095,-2.97,29.326,-1.677,7.904,3.305,29.326,-2.445,7.765,-3.307,-5.865,-46.921,23.46
4.285,1.868,8.478,-2.922,35.191,-1.533,8.191,3.353,29.326,-2.301,7.909,-3.451,-5.865,-41.056,29.326
4.29,1.82,8.766,-2.874,35.191,-1.533,8.67,3.257,35.191,-2.301,8.197,-3.451,-11.73,-41.056,29.326
4.295,1.772,8.862,-2.778,35.191,-1.533,8.957,3.209,35.191,-2.301,8.628,-3.307,-11.73,-41.056,29.326
4.3,1.677,8.814,-2.682,29.326,-1.485,9.053,3.114,29.326,-2.445,9.059,-3.307,-11.73,-41.056,29.326
4.305,1.677,8.67,-2.635,29.326,-1.437,8.957,3.066,29.326,-2.445,9.059,-3.164,-11.73,-41.056,29.326
4.3100000000000005,1.629,8.67,-2.635,29.326,-1.389,8.814,3.018,29.326,-2.445,9.059,-3.164,-17.595,-41.056,29.326
4.315,1.581,8.67,-2.587,29.326,-1.341,8.718,3.018,29.326,-2.301,8.916,-3.164,-17.595,-41.056,29.326
4.32,1.581,8.766,-2.587,29.326,-1.293,8.718,2.97,29.326,-2.301,8.772,-3.02,-17.595,-41.056,23.46
4.325,1.581,8.766,-2.635,29.326,-1.293,8.766,2.97,29.326,-2.157,8.772,-3.02,-23.46,-46.921,23.46
4.33,1.629,8.718,-2.73,29.326,-1.293,8.718,3.066,29.326,-2.157,8.772,-3.02,-23.46,-46.921,29.326
4.335,1.677,8.718,-2.778,29.326,-1.293,8.622,3.114,29.326,-2.157,8.628,-3.164,-23.46,-46.921,29.326
4.34,1.677,8.718,-2.874,35.191,-1.293,8.574,3.161,29.326,-2.157,8.484,-3.164,-23.46,-46.921,29.326
4.345,1.629,8.814,-2.874,35.191,-1.293,8.574,3.209,29.326,-2.157,8.484,-3.307,-23.46,-46.921,29.326
4.3500000000000005,1.533,8.957,-2.826,35.191,-1.198,8.622,3.209,35.191,-2.013,8.484,-3.307,-17.595,-46.921,29.326
4.355,1.389,9.149,-2.778,41.056,-1.15,8.766,3.161,35.191,-2.013,8.484,-3.307,-17.595,-46.921,35.191
4.36,1.341,9.388,-2.73,41.056,-1.054,8.909,3.114,41.056,-2.013,8.484,-3.307,-17.595,-46.921,35.191
4.365,1.293,9.484,-2.73,46.921,-1.006,9.101,3.066,41.056,-2.013,8.628,-3.164,-17.595,-46.921,41.056
4.37,1.245,9.436,-2.778,41.056,-0.91,9.149,3.114,41.056,-1.869,8.772,-3.164,-11.73,-41.056,41.056
4.375,1.198,9.293,-2.778,46.921,-0.814,9.149,3.161,46.921,-1.726,8.916,-3.164,-5.865,-41.056,41.056
4.38,1.15,9.245,-2.778,46.921,-0.766,9.149,3.161,46.921,-1.726,8.916,-3.164,-5.865,-41.056,41.056
4.385,1.006,9.436,-2.778,46.921,-0.671,9.197,3.161,46.921,-1.582,9.059,-3.307,0.0,-41.056,41.056
4.39,1.054,9.58,-2.682,46.921,-0.575,9.436,3.161,46.921,-1.438,9.203,-3.307,0.0,-41.056,46.921
4.3950000000000005,1.054,9.532,-2.539,46.921,-0.623,9.628,3.018,46.921,-1.438,9.347,-3.164,0.0,-41.056,46.921
4.4,1.006,9.388,-2.443,41.056,-0.623,9.676,2.874,46.921,-1.582,9.635,-3.164,0.0,-41.056,46.921
4.405,0.91,9.245,-2.347,41.056,-0.623,9.58,2.778,41.056,-1.582,9.778,-3.02,0.0,-41.056,41.056
4.41,0.814,9.149,-2.299,41.056,-0.527,9.436,2.682,41.056,-1.582,9.778,-2.876,0.0,-35.191,41.056
4.415,0.814,9.197,-2.299,41.056,-0.479,9.341,2.682,41.056,-1.438,9.635,-2.732,-5.865,-41.056,41.056
4.42,0.766,9.341,-2.251,35.191,-0.431,9.341,2.635,35.191,-1.438,9.491,-2.732,-5.865,-41.056,35.191
4.425,0.766,9.484,-2.251,35.191,-0.431,9.341,2.635,35.191,-1.438,9.491,-2.732,-5.865,-41.056,35.191
4.43,0.719,9.58,-2.299,41.056,-0.383,9.436,2.635,35.191,-1.438,9.347,-2.732,-11.73,-41.056,35.191
4.4350000000000005,0.623,9.676,-2.347,41.056,-0.335,9.436,2.682,41.056,-1.294,9.347,-2.732,-11.73,-41.056,35.191
4.44,0.575,9.772,-2.395,41.056,-0.24,9.532,2.73,41.056,-1.294,9.347,-2.732,-11.73,-41.056,35.191
4.445,0.431,9.867,-2.491,41.056,-0.144,9.58,2.778,41.056,-1.15,9.347,-2.732,-11.73,-41.056,35.191
4.45,0.24,10.011,-2.587,46.921,0.048,9.676,2.874,41.056,-1.007,9.491,-2.876,-5.865,-41.056,41.056
4.455,0.192,10.203,-2.491,46.921,0.192,9.915,2.922,46.921,-0.863,9.635,-3.02,-5.865,-41.056,41.056
4.46,0.192,10.251,-2.443,46.921,0.24,10.059,2.874,46.921,-0.719,9.778,-3.02,0.0,-41.056,41.056
4.465,0.048,10.203,-2.347,46.921,0.287,10.107,2.778,46.921,-0.719,9.922,-2.876,0.0,-41.056,41.056
4.47,0.0,10.155,-2.299,46.921,0.335,10.059,2.73,46.921,-0.719,10.066,-2.876,5.865,-41.056,46.921
4.4750000000000005,-0.048,10.011,-2.299,46.921,0.383,10.011,2.682,46.921,-0.719,10.066,-2.732,5.865,-35.191,46.921
4.48,-0.048,9.867,-2.347,46.921,0.431,9.915,2.682,41.056,-0.575,9.922,-2.732,5.865,-41.056,41.056
4.485,-0.048,9.82,-2.395,46.921,0.431,9.867,2.73,41.056,-0.575,9.922,-2.732,5.865,-41.056,41.056
4.49,0.096,9.82,-2.347,41.056,0.431,9.867,2.73,41.056,-0.575,9.922,-2.732,5.865,-41.056,41.056
4.495,0.24,9.772,-2.299,41.056,0.335,9.915,2.73,41.056,-0.575,10.066,-2.876,5.865,-41.056,41.056
4.5,0.287,9.676,-2.299,41.056,0.192,9.82,2.682,41.056,-0.575,10.066,-2.732,5.865,-41.056,41.056
4.505,0.335,9.58,-2.395,35.191,0.144,9.772,2.682,41.056,-0.719,9.922,-2.732,5.865,-41.056,41.056
4.51,0.335,9.484,-2.491,35.191,0.144,9.724,2.778,35.191,-0.719,9.922,-2.732,5.865,-41.056,35.191
4.515,0.383,9.484,-2.539,35.191,0.144,9.772,2.874,35.191,-0.719,9.922,-2.876,5.865,-41.056,35.191
4.5200000000000005,0.335,9.484,-2.539,29.326,0.144,9.772,2.922,29.326,-0.719,10.066,-2.876,5.865,-41.056,29.326
4.525,0.383,9.436,-2.587,29.326,0.144,9.772,2.922,29.326,-0.719,10.066,-3.02,0.0,-35.191,29.326
4.53,0.431,9.484,-2.587,29.326,0.096,9.724,2.922,29.326,-0.719,10.066,-3.02,0.0,-35.191,29.326
4.535,0.287,9.532,-2.635,23.46,0.144,9.628,2.97,23.46,-0.719,9.922,-3.02,-5.865,-35.191,29.326
4.54,0.192,9.58,-2.635,23.46,0.192,9.628,3.018,23.46,-0.719,9.922,-3.02,-5.865,-35.191,23.46
4.545,0.096,9.676,-2.635,17.595,0.287,9.628,3.018,17.595,-0.719,9.778,-3.164,-11.73,-35.191,23.46
4.55,0.048,9.676,-2.73,17.595,0.335,9.628,3.018,17.595,-0.575,9.635,-3.02,-11.73,-35.191,23.46
4.555,0.048,9.676,-2.826,17.595,0.383,9.58,3.114,17.595,-0.575,9.635,-3.164,-11.73,-35.191,17.595
4.5600000000000005,0.096,9.676,-2.922,17.595,0.383,9.58,3.209,17.595,-0.575,9.635,-3.164,-11.73,-35.191,17.595
4.565,0.096,9.628,-3.018,17.595,0.383,9.532,3.305,17.595,-0.431,9.491,-3.307,-11.73,-29.326,17.595
4.57,0.096,9.532,-3.114,17.595,0.383,9.532,3.401,17.595,-0.431,9.491,-3.307,-11.73,-29.326,17.595
4.575,0.048,9.484,-3.161,17.595,0.431,9.484,3.497,17.595,-0.431,9.491,-3.451,-5.865,-29.326,17.595
4.58,0.0,9.436,-3.209,17.595,0.479,9.484,3.545,17.595,-0.431,9.491,-3.595,-5.865,-29.326,17.595
4.585,0.0,9.388,-3.209,17.595,0.527,9.532,3.593,17.595,-0.288,9.635,-3.595,-5.865,-29.326,17.595
4.59,0.0,9.341,-3.209,17.595,0.527,9.484,3.593,17.595,-0.288,9.635,-3.739,-5.865,-23.46,17.595
4.595,0.0,9.197,-3.161,17.595,0.479,9.388,3.545,17.595,-0.288,9.635,-3.739,-5.865,-23.46,17.595
4.6000000000000005,0.0,9.101,-3.161,17.595,0.479,9.293,3.545,17.595,-0.288,9.491,-3.595,-5.865,-23.46,17.595
4.605,-0.096,9.005,-3.209,11.73,0.527,9.197,3.545,17.595,-0.288,9.491,-3.595,-5.865,-23.46,17.595
4.61,-0.048,8.957,-3.209,11.73,0.575,9.101,3.593,11.73,-0.288,9.347,-3.595,-5.865,-23.46,11.73
4.615,0.0,8.862,-3.114,11.73,0.527,9.053,3.545,11.73,-0.288,9.347,-3.739,-5.865,-23.46,11.73
4.62,-0.048,8.766,-3.066,11.73,0.479,8.909,3.497,11.73,-0.288,9.203,-3.595,-5.865,-17.595,11.73
4.625,-0.144,8.67,-3.066,11.73,0.527,8.766,3.449,11.73,-0.288,9.059,-3.595,-11.73,-17.595,11.73
4.63,-0.24,8.622,-3.114,11.73,0.575,8.67,3.497,11.73,-0.288,8.916,-3.595,-11.73,-17.595,11.73
4.635,-0.335,8.718,-3.209,11.73,0.671,8.67,3.545,11.73,-0.288,8.772,-3.595,-11.73,-17.595,11.73
4.64,-0.383,8.862,-3.305,11.73,0.766,8.862,3.64,11.73,-0.144,8.772,-3.595,-11.73,-17.595,5.865
4.6450000000000005,-0.383,9.005,-3.449,11.73,0.766,9.005,3.736,11.73,-0.144,8.916,-3.739,-11.73,-17.595,5.865
4.65,-0.383,9.101,-3.545,5.865,0.814,9.101,3.88,11.73,-0.144,9.059,-3.883,-11.73,-17.595,11.73
4.655,-0.335,9.101,-3.64,11.73,0.814,9.197,3.976,11.73,0.0,9.203,-3.883,-11.73,-17.595,11.73
4.66,-0.335,9.149,-3.736,5.865,0.814,9.245,4.072,5.865,0.0,9.347,-4.026,-11.73,-17.595,5.865
4.665,-0.431,9.197,-3.784,5.865,0.862,9.293,4.119,5.865,0.0,9.491,-4.17,-11.73,-17.595,5.865
4.67,-0.479,9.245,-3.832,5.865,0.91,9.341,4.167,5.865,0.0,9.491,-4.17,-11.73,-11.73,5.865
4.675,-0.383,9.293,-3.832,5.865,0.91,9.388,4.215,5.865,0.0,9.635,-4.314,-17.595,-11.73,5.865
4.68,-0.335,9.245,-3.832,-0.0,0.862,9.388,4.215,5.865,0.0,9.635,-4.314,-17.595,-11.73,5.865
4.6850000000000005,-0.335,9.101,-3.832,-0.0,0.814,9.293,4.215,0.0,0.0,9.491,-4.314,-17.595,-11.73,0.0
4.69,-0.335,8.957,-3.88,-0.0,0.814,9.149,4.263,0.0,0.0,9.347,-4.314,-17.595,-11.73,0.0
4.695,-0.335,8.814,-3.88,-5.865,0.814,9.005,4.263,0.0,0.0,9.347,-4.314,-17.595,-11.73,0.0
4.7,-0.335,8.67,-3.832,-5.865,0.766,8.862,4.263,0.0,0.0,9.203,-4.314,-17.595,-11.73,0.0
4.705,-0.335,8.574,-3.784,-5.865,0.766,8.718,4.215,0.0,0.0,9.059,-4.314,-17.595,-5.865,-5.865
4.71,-0.335,8.526,-3.832,-5.865,0.719,8.622,4.215,0.0,-0.144,8.916,-4.314,-17.595,-5.865,0.0
4.715,-0.335,8.574,-3.928,-0.0,0.766,8.574,4.263,0.0,-0.144,8.772,-4.314,-17.595,-5.865,0.0
4.72,-0.335,8.574,-3.976,-0.0,0.766,8.574,4.359,0.0,0.0,8.628,-4.314,-17.595,-5.865,0.0
4.7250000000000005,-0.287,8.622,-4.024,-0.0,0.766,8.622,4.407,0.0,0.0,8.628,-4.458,-17.595,-5.865,0.0
4.73,-0.335,8.622,-4.072,-0.0,0.719,8.67,4.407,0.0,0.0,8.772,-4.458,-17.595,-5.865,0.0
4.735,-0.383,8.718,-4.119,-0.0,0.766,8.718,4.455,0.0,0.0,8.772,-4.458,-17.595,-5.865,0.0
4.74,-0.479,8.957,-4.215,-0.0,0.814,8.862,4.551,0.0,0.0,8.916,-4.602,-17.595,-5.865,0.0
4.745,-0.479,9.149,-4.311,-0.0,0.862,9.101,4.646,5.865,0.0,9.059,-4.602,-17.595,-5.865,0.0
4.75,-0.479,9.341,-4.455,5.865,0.91,9.293,4.742,5.865,0.0,9.203,-4.745,-17.595,-5.865,0.0
4.755,-0.479,9.388,-4.598,-0.0,0.958,9.484,4.886,5.865,0.0,9.491,-4.889,-17.595,-5.865,0.0
4.76,-0.479,9.388,-4.79,-0.0,0.958,9.58,5.077,0.0,0.0,9.635,-5.033,-17.595,-5.865,0.0
4.765,-0.479,9.484,-4.982,-0.0,0.958,9.676,5.269,0.0,0.144,9.778,-5.177,-17.595,-5.865,0.0
4.7700000000000005,-0.431,9.58,-5.125,-0.0,1.006,9.772,5.413,0.0,0.144,9.922,-5.321,-23.46,-5.865,0.0
4.775,-0.383,9.676,-5.221,-0.0,1.006,9.82,5.509,0.0,0.288,10.066,-5.464,-23.46,0.0,0.0
4.78,-0.479,9.724,-5.269,-5.865,1.054,9.915,5.604,0.0,0.288,10.066,-5.608,-23.46,0.0,0.0
4.785,-0.527,9.724,-5.365,-5.865,1.102,9.963,5.7,0.0,0.288,10.21,-5.752,-23.46,0.0,0.0
4.79,-0.575,9.772,-5.413,-5.865,1.15,9.915,5.748,-5.865,0.431,10.21,-5.752,-29.326,5.865,-5.865
4.795,-0.623,9.867,-5.413,-5.865,1.198,9.915,5.796,-5.865,0.431,10.21,-5.896,-29.326,5.865,-5.865
4.8,-0.623,9.963,-5.461,-5.865,1.245,9.915,5.796,-5.865,0.431,10.066,-5.896,-29.326,5.865,-5.865
4.805,-0.719,10.011,-5.509,-11.73,1.293,9.915,5.844,-5.865,0.575,10.066,-5.896,-29.326,11.73,-5.865
4.8100000000000005,-0.766,10.011,-5.556,-11.73,1.389,9.867,5.892,-11.73,0.575,9.922,-5.896,-29.326,17.595,-11.73
4.815,-0.862,9.963,-5.556,-11.73,1.437,9.82,5.94,-11.73,0.719,9.778,-6.04,-29.326,17.595,-11.73
4.82,-0.862,9.963,-5.509,-11.73,1.533,9.724,5.94,-11.73,0.863,9.635,-6.04,-29.326,17.595,-11.73
4.825,-0.958,9.963,-5.365,-11.73,1.581,9.676,5.844,-11.73,0.863,9.635,-6.04,-23.46,23.46,-11.73
4.83,-1.054,10.011,-5.221,-11.73,1.629,9.628,5.7,-11.73,1.007,9.491,-5.896,-23.46,29.326,-11.73
4.835,-1.198,10.059,-5.03,-11.73,1.724,9.628,5.556,-11.73,1.007,9.491,-5.752,-17.595,29.326,-11.73
4.84,-1.293,10.107,-4.886,-11.73,1.82,9.676,5.413,-11.73,1.15,9.491,-5.608,-11.73,35.191,-11.73
4.845,-1.485,10.059,-4.694,-11.73,1.916,9.724,5.221,-11.73,1.15,9.491,-5.464,-5.865,35.191,-11.73
4.8500000000000005,-1.724,9.915,-4.455,-11.73,2.06,9.676,4.982,-11.73,1.15,9.491,-5.321,0.0,41.056,-11.73
4.855,-1.964,9.772,-4.263,-11.73,2.203,9.628,4.79,-11.73,1.294,9.491,-5.033,5.865,41.056,-11.73
4.86,-2.156,9.724,-4.072,-11.73,2.347,9.532,4.598,-11.73,1.294,9.491,-4.889,5.865,41.056,-11.73
4.865,-2.299,9.676,-3.88,-11.73,2.443,9.532,4.407,-11.73,1.438,9.491,-4.745,5.865,41.056,-11.73
4.87,-2.539,9.724,-3.688,-11.73,2.587,9.532,4.215,-11.73,1.582,9.491,-4.458,17.595,41.056,-11.73
4.875,-2.778,9.772,-3.449,-11.73,2.73,9.628,4.024,-11.73,1.582,9.491,-4.314,23.46,41.056,-11.73
4.88,-2.97,9.772,-3.209,-11.73,2.826,9.724,3.784,-11.73,1.582,9.635,-4.17,23.46,41.056,-11.73
4.885,-3.066,9.915,-3.161,-11.73,2.922,9.772,3.593,-11.73,1.582,9.778,-3.883,29.326,35.191,-11.73
4.89,-3.161,9.867,-3.114,-11.73,3.018,9.867,3.497,-11.73,1.582,9.922,-3.595,29.326,29.326,-11.73
4.8950000000000005,-3.114,9.82,-3.161,-17.595,3.066,9.915,3.497,-17.595,1.582,10.066,-3.595,35.191,23.46,-11.73
4.9,-3.161,9.963,-3.305,-17.595,3.066,9.963,3.593,-17.595,1.726,10.066,-3.595,35.191,17.595,-17.595
4.905,-3.161,10.107,-3.449,-23.46,3.161,10.107,3.736,-17.595,1.726,10.21,-3.595,35.191,11.73,-17.595
4.91,-3.161,10.155,-3.64,-23.46,3.209,10.299,3.88,-17.595,1.869,10.354,-3.883,41.056,5.865,-17.595
4.915,-3.161,10.203,-3.88,-23.46,3.209,10.442,4.119,-23.46,1.869,10.641,-4.026,35.191,0.0,-23.46
4.92,-3.114,10.346,-4.072,-29.326,3.209,10.634,4.311,-29.326,1.869,10.929,-4.17,41.056,-5.865,-23.46
4.925,-3.114,10.49,-4.263,-29.326,3.257,10.73,4.503,-29.326,1.869,11.073,-4.314,35.191,-11.73,-23.46
4.93,-3.018,10.73,-4.359,-35.191,3.305,10.825,4.646,-35.191,2.013,11.216,-4.602,35.191,-17.595,-29.326
4.9350000000000005,-2.97,10.873,-4.359,-35.191,3.257,10.873,4.742,-35.191,2.013,11.216,-4.745,35.191,-17.595,-35.191
4.94,-3.018,10.873,-4.407,-41.056,3.209,10.873,4.742,-41.056,2.157,11.073,-4.745,29.326,-23.46,-35.191
4.945,-3.066,10.825,-4.455,-46.921,3.209,10.873,4.79,-41.056,2.157,11.073,-4.889,29.326,-29.326,-41.056
4.95,-2.97,10.778,-4.455,-46.921,3.209,10.873,4.838,-46.921,2.013,11.073,-4.889,35.191,-29.326,-46.921
4.955,-2.874,10.682,-4.407,-46.921,3.161,10.778,4.79,-46.921,2.013,11.073,-4.889,35.191,-35.191,-46.921
4.96,-2.826,10.442,-4.407,-52.786,3.066,10.586,4.79,-52.786,2.013,10.929,-4.889,35.191,-35.191,-52.786
4.965,-2.874,10.251,-4.407,-52.786,3.018,10.442,4.79,-52.786,1.869,10.785,-4.889,41.056,-41.056,-52.786
4.97,-2.922,10.346,-4.263,-52.786,3.018,10.442,4.742,-58.651,1.869,10.641,-4.889,41.056,-41.056,-52.786
4.9750000000000005,-2.922,10.442,-4.167,-52.786,2.97,10.49,4.598,-58.651,1.726,10.785,-4.745,41.056,-46.921,-58.651
4.98,-2.922,10.49,-4.119,-52.786,2.922,10.538,4.503,-58.651,1.726,10.785,-4.745,41.056,-46.921,-58.651
4.985,-2.97,10.442,-4.072,-52.786,2.922,10.538,4.455,-58.651,1.582,10.785,-4.602,41.056,-52.786,-58.651
4.99,-2.874,10.49,-4.167,-52.786,2.922,10.442,4.455,-58.651,1.582,10.641,-4.458,46.921,-58.651,-58.651
4.995,-2.778,10.73,-4.263,-52.786,2.922,10.442,4.503,-58.651,1.582,10.641,-4.458,46.921,-64.516,-58.651
5.0,-2.682,10.921,-4.263,-52.786,2.97,10.538,4.551,-58.651,1.726,10.497,-4.602,46.921,-70.381,-58.651
5.005,-2.682,10.969,-4.359,-52.786,2.97,10.586,4.598,-58.651,1.726,10.497,-4.602,52.786,-76.246,-58.651
5.01,-2.826,10.921,-4.407,-46.921,3.018,10.682,4.694,-52.786,1.869,10.497,-4.602,52.786,-76.246,-58.651
5.015,-2.874,10.873,-4.455,-46.921,3.161,10.682,4.742,-52.786,2.013,10.497,-4.745,64.516,-76.246,-52.786
5.0200000000000005,-2.874,10.73,-4.455,-46.921,3.209,10.73,4.742,-46.921,2.013,10.641,-4.745,70.381,-82.111,-52.786
5.025,-2.778,10.682,-4.455,-41.056,3.161,10.634,4.742,-46.921,2.157,10.785,-4.745,76.246,-82.111,-46.921
5.03,-2.635,10.778,-4.407,-35.191,3.114,10.634,4.742,-41.056,2.157,10.785,-4.745,76.246,-82.111,-46.921
5.035,-2.635,10.825,-4.311,-35.191,3.114,10.682,4.646,-41.056,2.157,10.785,-4.745,82.111,-82.111,-41.056
5.04,-2.635,10.825,-4.215,-29.326,3.066,10.778,4.551,-35.191,2.157,10.785,-4.602,82.111,-87.977,-41.056
5.045,-2.635,10.873,-4.072,-29.326,3.066,10.778,4.455,-35.191,2.013,10.929,-4.602,87.977,-82.111,-35.191
5.05,-2.587,10.873,-3.88,-29.326,3.066,10.778,4.311,-35.191,2.013,10.929,-4.458,87.977,-87.977,-35.191
5.055,-2.299,10.778,-3.688,-29.326,2.826,10.825,4.119,-35.191,2.013,10.929,-4.314,93.842,-87.977,-35.191
5.0600000000000005,-2.539,10.873,-3.593,-35.191,2.874,10.49,3.784,-35.191,1.582,10.929,-4.026,93.842,-87.977,-35.191
5.065,-2.682,10.442,-3.64,-35.191,3.018,10.634,3.928,-41.056,2.157,10.497,-3.739,99.707,-87.977,-35.191
5.07,-2.587,10.011,-3.305,-23.46,3.114,10.251,3.832,-35.191,2.013,10.641,-3.883,99.707,-87.977,-41.056
5.075,-2.347,9.867,-2.922,-23.46,2.826,9.867,3.449,-29.326,2.013,10.354,-3.739,105.572,-87.977,-35.191
5.08,-2.443,9.58,-2.73,-23.46,2.682,9.628,3.114,-29.326,1.869,10.066,-3.307,105.572,-87.977,-23.46
5.085,-2.539,9.197,-2.491,-23.46,2.826,9.293,2.922,-29.326,1.726,9.635,-3.02,111.437,-87.977,-23.46
5.09,-2.395,8.909,-2.06,-17.595,2.778,8.909,2.635,-29.326,2.013,9.347,-2.876,111.437,-87.977,-29.326
5.095,-2.443,8.574,-1.724,-17.595,2.587,8.622,2.203,-23.46,1.726,8.916,-2.588,117.302,-87.977,-23.46
5.1000000000000005,-2.443,8.287,-1.389,-11.73,2.587,8.335,1.868,-17.595,1.582,8.628,-2.157,123.167,-93.842,-23.46
5.105,-2.395,8.047,-1.198,-5.865,2.491,8.047,1.581,-11.73,1.582,8.34,-1.726,129.032,-93.842,-17.595
5.11,-2.203,7.999,-1.006,-0.0,2.395,7.856,1.341,-5.865,1.438,8.053,-1.438,129.032,-93.842,-11.73
5.115,-2.156,7.951,-0.958,5.865,2.299,7.808,1.198,0.0,1.294,7.909,-1.15,129.032,-99.707,-5.865
5.12,-2.06,7.904,-1.054,11.73,2.251,7.808,1.198,5.865,1.294,7.909,-1.007,134.897,-105.572,0.0
5.125,-1.916,8.095,-1.15,17.595,2.156,7.904,1.245,5.865,1.294,7.909,-1.007,140.762,-105.572,5.865
5.13,-1.629,8.383,-1.198,23.46,2.06,8.383,1.293,11.73,1.294,8.053,-1.15,140.762,-111.437,5.865
5.135,-1.293,8.67,-1.341,29.326,1.82,8.43,1.389,23.46,1.294,8.197,-1.007,140.762,-111.437,11.73
5.14,-1.198,8.526,-1.341,29.326,1.724,8.67,1.485,23.46,1.007,8.484,-1.294,146.628,-111.437,23.46
5.1450000000000005,-1.245,8.287,-1.485,29.326,1.677,8.718,1.533,29.326,1.007,8.772,-1.294,146.628,-117.302,29.326
5.15,-1.341,8.287,-1.437,29.326,1.724,8.766,1.677,29.326,0.863,9.059,-1.438,146.628,-117.302,29.326
5.155,-1.198,8.43,-1.15,29.326,1.772,9.053,1.533,29.326,0.863,9.347,-1.582,146.628,-111.437,29.326
5.16,-1.102,8.814,-0.862,29.326,1.629,9.245,1.293,23.46,0.863,9.778,-1.438,140.762,-117.302,23.46
5.165,-1.006,8.862,-0.575,23.46,1.581,9.341,0.958,23.46,0.719,10.066,-1.15,134.897,-117.302,23.46
5.17,-1.006,8.957,-0.192,23.46,1.485,9.341,0.671,23.46,0.719,9.922,-0.863,129.032,-117.302,23.46
5.175,-0.958,8.67,0.096,17.595,1.485,9.341,0.287,17.595,0.575,9.922,-0.575,123.167,-117.302,23.46
5.18,-0.958,8.526,0.431,11.73,1.341,9.053,0.048,17.595,0.575,9.778,-0.144,117.302,-117.302,17.595
5.1850000000000005,-1.054,8.43,0.766,11.73,1.341,8.862,-0.287,11.73,0.431,9.635,0.144,111.437,-111.437,11.73
5.19,-0.958,7.951,0.91,11.73,1.437,8.67,-0.623,11.73,0.575,9.347,0.431,105.572,-117.302,11.73
5.195,-0.91,7.951,1.006,11.73,1.245,8.335,-0.671,11.73,0.575,9.059,0.719,99.707,-117.302,11.73
5.2,-0.814,8.047,1.245,11.73,1.293,8.335,-0.862,5.865,0.431,8.916,0.719,99.707,-117.302,5.865
5.205,-0.575,7.999,1.341,5.865,1.15,8.191,-1.006,5.865,0.431,8.772,1.007,93.842,-117.302,5.865
5.21,-0.479,7.951,1.293,5.865,1.006,7.999,-1.102,5.865,0.288,8.484,1.15,93.842,-117.302,5.865
5.215,-0.383,8.047,1.341,5.865,0.814,7.951,-1.054,5.865,0.288,8.197,1.15,87.977,-117.302,5.865
5.22,-0.192,7.904,1.293,5.865,0.814,7.999,-1.102,5.865,0.0,8.197,1.15,87.977,-117.302,5.865
5.2250000000000005,-0.144,7.999,1.293,11.73,0.623,7.904,-1.054,5.865,0.0,8.053,1.15,87.977,-117.302,5.865
5.23,-0.192,8.047,1.293,5.865,0.575,7.904,-1.054,5.865,-0.144,7.909,1.15,87.977,-117.302,5.865
5.235,0.0,7.904,1.293,11.73,0.527,7.856,-1.054,5.865,-0.144,8.053,1.15,87.977,-117.302,5.865
5.24,0.144,7.856,1.341,11.73,0.383,7.712,-1.054,11.73,-0.144,7.909,1.15,87.977,-117.302,5.865
5.245,0.335,7.664,1.341,11.73,0.287,7.664,-1.102,11.73,-0.288,7.765,1.15,87.977,-111.437,5.865
5.25,0.431,7.616,1.485,17.595,0.096,7.616,-1.102,11.73,-0.288,7.765,1.15,87.977,-111.437,11.73
5.255,0.479,7.616,1.581,23.46,0.048,7.664,-1.245,11.73,-0.575,7.765,1.15,87.977,-111.437,11.73
5.26,0.527,7.664,1.724,23.46,-0.048,7.712,-1.389,17.595,-0.575,7.765,1.294,87.977,-111.437,17.595
5.265,0.575,7.712,1.772,23.46,-0.048,7.76,-1.485,17.595,-0.719,7.909,1.438,87.977,-105.572,17.595
5.2700000000000005,0.575,7.712,1.724,23.46,-0.144,7.856,-1.485,17.595,-0.863,7.909,1.582,87.977,-105.572,17.595
5.275,0.575,7.664,1.677,23.46,-0.144,7.951,-1.437,17.595,-0.863,8.197,1.582,87.977,-105.572,23.46
5.28,0.623,7.568,1.724,23.46,-0.144,8.047,-1.437,17.595,-0.863,8.34,1.582,82.111,-105.572,17.595
5.285,0.623,7.472,1.868,23.46,-0.192,8.047,-1.485,17.595,-0.863,8.484,1.438,76.246,-105.572,17.595
5.29,0.623,7.425,2.012,17.595,-0.24,7.999,-1.629,17.595,-1.007,8.484,1.582,76.246,-105.572,17.595
5.295,0.575,7.329,2.108,17.595,-0.192,7.904,-1.724,17.595,-1.007,8.484,1.726,70.381,-105.572,17.595
5.3,0.575,7.233,2.203,11.73,-0.192,7.808,-1.82,11.73,-1.007,8.484,1.726,64.516,-105.572,17.595
5.305,0.479,7.233,2.251,11.73,-0.192,7.76,-1.916,11.73,-1.007,8.34,1.869,52.786,-105.572,17.595
5.3100000000000005,0.431,7.185,2.347,11.73,-0.144,7.712,-2.012,11.73,-1.007,8.34,2.013,46.921,-105.572,11.73
5.315,0.287,7.185,2.395,5.865,-0.096,7.664,-2.06,5.865,-1.007,8.34,2.013,41.056,-105.572,11.73
5.32,0.144,7.281,2.347,5.865,0.0,7.664,-2.06,5.865,-1.007,8.197,2.157,35.191,-105.572,5.865
5.325,0.0,7.472,2.299,-0.0,0.144,7.712,-2.012,0.0,-1.007,8.197,2.157,29.326,-105.572,5.865
5.33,0.048,7.616,2.299,-0.0,0.24,7.664,-2.012,0.0,-0.863,8.197,2.013,23.46,-105.572,0.0
5.335,0.096,7.856,2.203,-0.0,0.287,7.664,-1.964,0.0,-0.719,7.909,2.013,17.595,-105.572,0.0
5.34,0.096,8.047,2.06,-0.0,0.383,7.664,-1.868,0.0,-0.575,7.765,2.013,5.865,-111.437,0.0
5.345,0.048,8.43,1.964,-0.0,0.431,7.76,-1.724,0.0,-0.288,7.621,1.869,5.865,-111.437,0.0
5.3500000000000005,0.096,8.862,2.012,-0.0,0.479,7.999,-1.677,0.0,-0.288,7.621,1.869,5.865,-111.437,0.0
5.355,0.144,9.101,2.108,-0.0,0.479,8.191,-1.772,0.0,-0.144,7.621,1.726,5.865,-111.437,0.0
5.36,0.192,9.149,2.203,-0.0,0.431,8.335,-1.868,0.0,-0.144,7.765,1.869,23.46,-105.572,0.0
5.365,0.144,9.005,2.251,-0.0,0.431,8.335,-1.916,0.0,-0.288,7.765,1.869,29.326,-105.572,0.0
5.37,0.048,8.814,2.395,-5.865,0.479,8.335,-1.964,-5.865,-0.288,7.909,2.013,35.191,-99.707,-5.865
5.375,0.0,8.718,2.635,-11.73,0.527,8.335,-2.203,-11.73,-0.144,7.909,2.013,46.921,-99.707,-5.865
5.38,-0.048,8.478,2.874,-11.73,0.527,8.287,-2.443,-11.73,-0.144,8.197,2.301,52.786,-93.842,-11.73
5.385,-0.192,8.143,3.114,-17.595,0.575,8.191,-2.682,-17.595,-0.144,8.197,2.445,52.786,-93.842,-11.73
5.39,-0.431,7.76,3.257,-17.595,0.671,8.047,-2.874,-17.595,-0.144,8.197,2.732,58.651,-93.842,-17.595
5.3950000000000005,-0.575,7.472,3.401,-23.46,0.766,7.951,-3.018,-23.46,-0.144,8.197,2.876,64.516,-87.977,-17.595
5.4,-0.623,7.377,3.497,-17.595,0.814,7.904,-3.161,-23.46,-0.144,8.34,3.02,64.516,-87.977,-23.46
5.405,-0.671,7.377,3.545,-17.595,0.814,7.856,-3.209,-23.46,-0.288,8.484,3.164,58.651,-87.977,-23.46
5.41,-0.719,7.52,3.497,-17.595,0.862,7.904,-3.257,-17.595,-0.288,8.484,3.307,52.786,-93.842,-23.46
5.415,-0.766,7.472,3.401,-17.595,0.91,7.999,-3.209,-17.595,-0.144,8.484,3.307,52.786,-93.842,-23.46
5.42,-0.766,7.425,3.161,-17.595,0.958,8.047,-3.018,-17.595,-0.144,8.484,3.307,46.921,-99.707,-17.595
5.425,-0.719,7.329,2.922,-11.73,1.006,8.047,-2.778,-17.595,0.0,8.628,3.02,41.056,-99.707,-17.595
5.43,-0.479,7.425,2.73,-11.73,0.958,8.047,-2.539,-11.73,0.0,8.772,2.876,29.326,-99.707,-17.595
5.4350000000000005,-0.144,7.712,2.682,-5.865,0.814,8.047,-2.443,-11.73,0.0,8.772,2.588,23.46,-105.572,-17.595
5.44,0.096,7.951,2.635,-5.865,0.623,8.095,-2.395,-5.865,0.0,8.772,2.445,17.595,-105.572,-11.73
5.445,0.048,8.191,2.539,-5.865,0.527,8.095,-2.347,-5.865,-0.144,8.484,2.445,5.865,-105.572,-5.865
5.45,0.0,8.526,2.443,-0.0,0.527,8.191,-2.203,0.0,-0.144,8.34,2.445,5.865,-105.572,-5.865
5.455,0.0,8.814,2.443,-5.865,0.527,8.43,-2.108,-5.865,-0.144,8.34,2.301,0.0,-105.572,-5.865
5.46,0.0,8.957,2.491,-5.865,0.527,8.622,-2.156,-5.865,-0.144,8.484,2.157,0.0,-99.707,0.0
5.465,0.0,9.005,2.587,-5.865,0.479,8.67,-2.203,-5.865,-0.288,8.628,2.157,0.0,-99.707,-5.865
5.47,-0.048,8.909,2.682,-0.0,0.479,8.574,-2.299,-5.865,-0.288,8.484,2.301,5.865,-99.707,-5.865
5.4750000000000005,0.0,8.67,2.778,-5.865,0.431,8.43,-2.395,-5.865,-0.288,8.34,2.445,5.865,-99.707,-5.865
5.48,-0.096,8.239,2.874,-0.0,0.383,8.191,-2.491,-5.865,-0.431,8.197,2.445,5.865,-93.842,-5.865
5.485,-0.144,7.856,2.922,-0.0,0.431,7.856,-2.587,0.0,-0.431,8.053,2.588,17.595,-93.842,-5.865
5.49,-0.383,7.425,2.97,-0.0,0.479,7.568,-2.635,0.0,-0.431,7.765,2.588,23.46,-93.842,-5.865
5.495,-0.192,7.233,3.018,5.865,0.431,7.425,-2.635,0.0,-0.288,7.621,2.732,23.46,-93.842,0.0
5.5,-0.287,7.185,3.018,11.73,0.575,7.329,-2.682,5.865,-0.575,7.621,2.732,29.326,-93.842,0.0
5.505,-0.096,7.137,3.018,17.595,0.479,7.329,-2.682,11.73,-0.144,7.621,2.732,23.46,-99.707,5.865
5.51,0.192,7.377,3.018,23.46,0.192,7.472,-2.73,17.595,-0.431,7.621,2.732,23.46,-99.707,11.73
5.515,0.335,7.568,2.922,29.326,0.192,7.616,-2.73,23.46,-0.719,7.765,2.732,23.46,-99.707,17.595
5.5200000000000005,0.479,7.76,2.874,29.326,0.048,7.76,-2.635,23.46,-0.575,7.909,2.732,17.595,-105.572,23.46
5.525,0.623,8.047,2.73,35.191,0.0,7.999,-2.587,29.326,-0.719,8.053,2.732,5.865,-105.572,23.46
5.53,0.719,7.904,2.635,35.191,-0.096,8.239,-2.395,29.326,-0.719,8.34,2.588,5.865,-105.572,29.326
5.535,0.814,7.999,2.443,35.191,-0.24,8.239,-2.299,35.191,-0.863,8.484,2.445,5.865,-99.707,29.326
5.54,0.719,7.999,2.443,35.191,-0.24,8.335,-2.108,35.191,-1.007,8.628,2.301,5.865,-99.707,35.191
5.545,0.479,8.143,2.539,35.191,-0.192,8.526,-2.156,35.191,-0.863,8.628,2.157,0.0,-99.707,35.191
5.55,0.0,8.814,2.826,29.326,0.048,8.909,-2.251,29.326,-1.007,9.059,2.157,-5.865,-99.707,29.326
5.555,-0.144,9.58,2.97,23.46,0.287,9.915,-2.587,23.46,-0.863,9.635,2.301,-11.73,-93.842,29.326
5.5600000000000005,0.096,9.867,3.018,11.73,0.144,10.251,-2.73,17.595,-1.007,10.785,2.588,-17.595,-93.842,23.46
5.565,-0.048,9.82,3.114,-0.0,0.192,10.059,-2.778,5.865,-1.15,10.785,2.732,-29.326,-99.707,17.595
5.57,-0.383,9.628,3.257,-5.865,0.383,9.82,-2.922,0.0,-1.007,10.354,2.876,-35.191,-99.707,5.865
5.575,-0.623,9.724,3.353,-5.865,0.479,9.532,-3.018,-5.865,-0.863,9.922,3.02,-41.056,-99.707,0.0
5.58,-0.431,10.059,3.353,-5.865,0.575,9.436,-3.114,-5.865,-0.863,9.635,3.02,-41.056,-105.572,-5.865
5.585,-0.096,10.634,3.257,-0.0,0.527,9.341,-3.114,-5.865,-0.719,9.203,3.164,-41.056,-105.572,-5.865
5.59,-0.335,11.496,4.359,5.865,0.335,9.436,-3.066,0.0,-0.575,8.772,3.164,-35.191,-117.302,-5.865
5.595,-0.958,11.879,4.742,17.595,1.198,9.101,-4.359,5.865,-0.719,8.484,3.164,-29.326,-117.302,0.0
5.6000000000000005,-0.862,11.209,3.88,41.056,1.293,9.676,-4.455,17.595,0.575,7.19,4.458,-17.595,-117.302,5.865
5.605,-0.24,10.203,2.73,52.786,0.527,9.867,-3.257,46.921,0.431,8.053,4.458,5.865,-117.302,17.595
5.61,0.623,10.442,2.299,41.056,0.192,10.107,-2.443,52.786,-1.007,9.059,3.307,29.326,-117.302,46.921
5.615,1.102,10.538,2.108,35.191,0.048,10.442,-1.964,35.191,-1.15,10.066,2.445,46.921,-117.302,52.786
5.62,0.958,10.442,2.108,41.056,-0.096,10.299,-1.868,35.191,-0.575,10.497,2.013,52.786,-123.167,35.191
5.625,0.575,9.915,2.156,52.786,0.048,10.203,-1.868,41.056,-0.575,10.21,2.013,52.786,-123.167,35.191
5.63,0.479,9.484,2.299,64.516,0.048,10.107,-1.916,52.786,-0.575,10.21,2.013,52.786,-117.302,46.921
5.635,0.335,9.149,2.539,64.516,0.144,10.155,-2.06,64.516,-0.863,10.497,2.013,52.786,-111.437,52.786
5.64,0.335,8.862,2.826,64.516,0.192,10.059,-2.347,64.516,-0.863,10.929,2.157,52.786,-105.572,58.651
5.6450000000000005,-0.048,8.814,3.018,58.651,0.671,10.394,-2.635,58.651,-0.863,10.929,2.445,41.056,-105.572,64.516
5.65,-0.335,8.766,3.257,52.786,0.91,10.442,-2.826,52.786,-1.294,10.497,2.588,29.326,-105.572,58.651
5.655,-0.623,8.814,3.449,46.921,0.623,9.867,-3.018,46.921,-0.719,10.354,2.876,5.865,-105.572,70.381
5.66,-0.719,9.101,3.449,41.056,0.671,9.963,-3.209,41.056,-0.431,10.785,3.164,-5.865,-99.707,76.246
5.665,-0.958,9.436,3.257,46.921,0.814,10.011,-3.161,41.056,-0.719,10.785,3.307,-17.595,-99.707,76.246
5.67,-1.389,9.915,2.826,46.921,0.91,10.155,-3.018,46.921,-0.431,11.073,3.307,-29.326,-105.572,76.246
5.675,-1.581,9.915,1.82,52.786,1.389,10.538,-2.395,46.921,-0.144,11.073,3.02,-41.056,-111.437,76.246
5.68,-0.719,10.394,1.198,64.516,1.245,10.394,-1.341,58.651,0.288,11.073,2.445,-52.786,-117.302,76.246
5.6850000000000005,-0.24,11.352,0.91,64.516,1.15,11.017,-0.814,64.516,0.431,11.36,1.438,-52.786,-123.167,76.246
5.69,-0.287,11.688,0.719,64.516,1.198,11.736,-0.671,64.516,0.144,11.073,0.863,-64.516,-129.032,82.111
5.695,-0.096,11.209,0.335,58.651,1.293,12.215,-0.383,58.651,0.431,11.504,0.719,-64.516,-129.032,76.246
5.7,0.24,11.352,-0.048,46.921,0.24,12.646,0.0,58.651,0.431,11.648,0.431,-70.381,-129.032,70.381
5.705,0.766,11.879,-0.383,41.056,0.24,12.694,0.335,64.516,0.288,11.648,-0.0,-76.246,-117.302,70.381
5.71,0.862,11.688,-0.335,41.056,0.671,12.31,0.575,64.516,0.431,11.216,-0.431,-76.246,-105.572,70.381
5.715,-2.539,15.568,-0.958,46.921,0.623,12.023,0.575,58.651,0.431,11.216,-0.719,-70.381,-82.111,70.381
5.72,-1.341,12.933,0.192,64.516,1.82,12.358,0.862,58.651,1.007,11.648,-0.575,-64.516,-64.516,58.651
5.7250000000000005,-0.479,11.352,1.82,76.246,1.485,12.023,-0.287,46.921,1.294,12.079,-0.863,-58.651,-52.786,52.786
5.73,1.198,7.041,5.509,87.977,1.916,7.425,-2.299,46.921,1.438,11.648,-0.144,-41.056,-52.786,46.921
5.735,0.479,7.233,5.509,76.246,1.341,7.616,-5.7,52.786,2.013,11.36,2.013,-23.46,-46.921,41.056
5.74,-0.479,9.053,4.742,58.651,0.623,9.867,-5.077,58.651,1.726,9.778,5.464,-17.595,-46.921,35.191
5.745,-2.012,10.825,3.545,52.786,0.575,9.724,-4.263,52.786,1.726,11.073,5.464,-41.056,-58.651,35.191
5.75,-1.677,12.167,1.198,41.056,1.293,10.538,-2.682,46.921,1.294,11.504,3.595,-64.516,-64.516,17.595
5.755,-1.006,12.119,-0.479,29.326,1.054,11.161,-0.335,35.191,0.144,11.216,1.869,-76.246,-64.516,-11.73
5.76,0.192,11.017,-0.719,29.326,0.24,11.209,0.814,29.326,-0.431,11.504,-0.431,-70.381,-58.651,-23.46
5.765,0.479,10.825,-1.054,29.326,-0.814,10.586,1.245,29.326,-0.719,11.935,-1.726,-58.651,-52.786,-41.056
5.7700000000000005,1.102,10.778,-1.054,41.056,-0.814,11.113,1.245,29.326,-0.575,12.079,-2.301,-52.786,-46.921,-46.921
5.775,0.91,11.257,-1.437,41.056,-0.958,11.113,1.102,41.056,-1.294,12.654,-2.445,-46.921,-41.056,-52.786
5.78,1.293,10.778,-1.485,41.056,-0.335,11.736,1.437,41.056,-1.726,12.367,-1.869,-46.921,-29.326,-64.516
5.785,0.671,11.544,-2.108,41.056,-0.91,10.969,1.772,41.056,-4.026,10.497,-1.438,-52.786,-11.73,-64.516
5.79,2.108,11.688,-0.287,35.191,-1.964,10.825,0.766,46.921,-7.046,8.628,1.726,-58.651,-5.865,-52.786
5.795,1.916,10.73,-0.048,41.056,-1.389,10.73,0.0,52.786,-11.216,4.602,3.307,-58.651,-70.381,-17.595
5.8,1.006,9.676,-0.671,46.921,-0.479,10.586,0.431,52.786,-3.307,9.491,0.144,-41.056,-187.683,41.056
5.805,0.623,8.287,-1.533,35.191,0.575,10.394,1.054,41.056,0.575,11.935,-1.15,-11.73,-246.334,52.786
5.8100000000000005,-0.575,8.095,-1.389,17.595,0.814,10.011,1.772,23.46,0.863,12.367,-1.438,0.0,-246.334,35.191
5.815,-1.724,8.909,-1.054,-5.865,0.527,9.724,1.533,5.865,-0.144,11.935,-2.013,-17.595,-222.874,11.73
5.82,-2.012,9.867,-0.766,-17.595,0.575,9.341,1.198,-11.73,-0.575,10.929,-1.869,-52.786,-193.548,-5.865
5.825,-2.108,10.778,-0.431,-35.191,0.958,9.388,0.814,-29.326,-1.007,9.922,-1.15,-76.246,-170.088,-17.595
5.83,-2.156,11.4,-0.479,-46.921,1.054,9.82,0.623,-41.056,-1.15,9.203,-0.863,-87.977,-158.358,-29.326
5.835,-1.437,11.544,-0.527,-58.651,1.198,10.394,0.719,-58.651,-0.719,8.916,-0.719,-93.842,-152.493,-41.056
5.84,-0.862,11.352,-0.814,-58.651,1.293,10.778,0.671,-64.516,-0.575,9.491,-0.575,-87.977,-152.493,-58.651
5.845,-0.623,10.921,-0.814,-58.651,1.341,11.161,0.91,-64.516,-0.144,9.347,-0.575,-76.246,-152.493,-58.651
5.8500000000000005,-0.335,10.682,-0.814,-52.786,0.958,11.161,0.814,-58.651,-1.007,9.922,0.144,-64.516,-164.223,-64.516
5.855,-0.383,10.73,-0.958,-46.921,0.766,11.4,0.91,-58.651,-1.726,10.785,-0.144,-46.921,-181.818,-64.516
5.86,-0.671,10.634,-0.814,-41.056,0.671,11.783,1.006,-52.786,-1.869,10.929,-0.431,-35.191,-205.279,-58.651
5.865,-1.389,10.394,-0.862,-35.191,0.623,11.783,0.814,-46.921,-1.726,11.648,-0.575,-23.46,-222.874,-52.786
5.87,-1.15,10.394,-0.623,-35.191,1.006,12.119,0.814,-41.056,-1.869,11.216,-0.719,-17.595,-246.334,-46.921
5.875,-1.054,10.586,-0.335,-23.46,1.485,11.448,0.479,-35.191,-1.869,10.785,-1.007,-23.46,-258.064,-41.056
5.88,-1.054,10.634,0.383,-17.595,1.102,11.257,0.0,-23.46,-1.869,10.785,-1.294,-17.595,-275.66,-23.46
5.885,-0.287,9.772,0.0,-5.865,0.91,10.299,-0.24,-17.595,-1.869,10.066,-1.294,5.865,-293.255,-11.73
5.89,-0.048,9.388,-0.287,5.865,0.91,10.299,-0.048,-5.865,-0.431,9.922,-1.726,35.191,-304.985,0.0
5.8950000000000005,-0.192,9.484,-0.527,11.73,0.91,10.011,0.192,5.865,0.575,8.916,-1.15,64.516,-293.255,23.46
5.9,-0.958,9.58,-0.719,23.46,0.671,9.676,0.623,11.73,1.15,8.484,-0.863,82.111,-275.66,35.191
5.905,-0.671,9.484,-0.958,29.326,0.766,9.341,0.623,17.595,1.438,8.484,-0.144,99.707,-258.064,46.921
5.91,-0.719,7.712,-1.054,35.191,1.15,9.197,1.006,23.46,1.15,8.34,0.575,99.707,-234.604,46.921
5.915,-0.479,7.137,-1.006,41.056,1.341,8.335,1.102,29.326,0.575,8.772,1.294,99.707,-222.874,52.786
5.92,-0.527,7.329,-1.054,52.786,0.958,7.712,0.91,35.191,-0.431,10.066,1.15,87.977,-217.009,52.786
5.925,-0.671,7.76,-1.245,52.786,0.479,8.43,1.293,46.921,-1.007,10.641,1.007,76.246,-222.874,58.651
5.93,-0.575,8.239,-1.198,52.786,0.096,8.478,1.054,46.921,-0.719,10.497,1.869,64.516,-234.604,58.651
5.9350000000000005,-0.144,8.909,-1.341,52.786,0.144,8.862,1.389,46.921,-1.15,10.497,1.869,46.921,-228.739,64.516
5.94,0.479,9.676,-1.485,52.786,0.048,8.814,1.198,41.056,-1.438,10.21,2.301,17.595,-234.604,58.651
5.945,0.862,9.915,-1.389,46.921,-0.287,8.526,1.245,29.326,-1.582,9.922,2.157,-5.865,-240.469,52.786
5.95,1.677,10.442,-1.006,41.056,-0.766,8.143,1.341,17.595,-2.157,9.347,1.726,-23.46,-240.469,41.056
5.955,2.251,10.011,-0.91,35.191,-0.91,8.191,0.814,5.865,-2.876,8.628,1.438,-46.921,-246.334,23.46
5.96,2.443,10.011,-0.862,23.46,-1.198,8.67,0.814,-5.865,-2.876,8.772,1.007,-64.516,-269.795,0.0
5.965,2.491,10.059,-1.15,11.73,-1.293,9.915,0.766,-11.73,-2.301,8.484,1.294,-70.381,-287.39,-23.46
5.97,2.395,9.772,-1.15,-5.865,-0.862,10.155,1.102,-17.595,-1.582,8.628,1.869,-70.381,-287.39,-41.056
5.9750000000000005,1.629,9.293,-0.431,-17.595,-0.527,10.49,0.958,-11.73,-1.582,9.922,2.013,-64.516,-287.39,-46.921
5.98,1.102,8.574,-0.096,-29.326,-0.623,11.113,0.287,-5.865,-2.013,11.073,1.438,-52.786,-287.39,-46.921
5.985,0.479,8.191,-0.623,-35.191,-0.623,10.059,-0.383,-5.865,-2.876,11.648,0.719,-52.786,-299.12,-35.191
5.99,-0.048,9.005,-0.766,-35.191,-0.335,10.394,0.287,0.0,-2.588,11.792,1.007,-52.786,-310.85,-17.595
5.995,-0.144,9.005,-0.719,-41.056,0.192,9.532,0.575,0.0,-2.445,10.929,1.294,-82.111,-293.255,0.0
6.0,-0.287,8.67,-0.719,-35.191,0.623,8.622,0.623,-5.865,-2.301,9.778,1.726,-93.842,-299.12,11.73
6.005,-0.383,8.335,-0.719,-35.191,0.671,8.335,0.719,-11.73,-1.582,8.772,1.869,-105.572,-299.12,17.595
6.01,-0.287,8.143,-0.479,-41.056,0.91,7.904,0.479,-23.46,-1.007,8.197,1.869,-111.437,-293.255,11.73
6.015000000000001,0.048,8.143,-0.383,-52.786,1.341,8.143,0.24,-41.056,-0.575,8.484,1.582,-123.167,-293.255,5.865
6.0200000000000005,0.24,8.814,-0.24,-64.516,1.724,8.335,0.144,-58.651,-0.288,9.059,1.726,-129.032,-287.39,0.0
6.025,0.048,10.011,0.096,-76.246,2.012,9.005,0.048,-70.381,-0.144,9.347,1.869,-134.897,-281.525,-11.73
6.03,-0.335,10.73,0.0,-87.977,1.868,8.909,0.144,-93.842,0.431,9.059,2.157,-146.628,-275.66,-23.46
6.035,-0.287,11.4,-0.192,-105.572,1.485,9.341,0.24,-111.437,0.575,9.203,2.445,-158.358,-263.93,-41.056
6.04,-0.527,11.927,-0.383,-123.167,1.724,9.341,0.287,-123.167,0.431,8.916,2.445,-164.223,-252.199,-58.651
