time_aligned_sec,L_Acc_X_aligned,L_Acc_Y_aligned,L_Acc_Z_aligned,L_Gyro_Z_aligned,R_Acc_X_aligned,R_Acc_Y_aligned,R_Acc_Z_aligned,R_Gyro_Z_aligned,T_Acc_X_aligned,T_Acc_Y_aligned,T_Acc_Z_aligned,T_Gyro_X_aligned,T_Gyro_Y_aligned,T_Gyro_Z_aligned
0.0,-1.15,9.628,-4.455,-23.46,1.293,9.293,4.503,-17.595,1.582,9.347,-4.602,46.921,-29.326,-17.595
0.005,-1.15,9.676,-4.407,-23.46,1.293,9.388,4.359,-17.595,1.438,9.347,-4.458,46.921,-29.326,-17.595
0.01,-1.054,9.628,-4.455,-23.46,1.293,9.532,4.311,-23.46,1.582,9.491,-4.458,52.786,-29.326,-17.595
0.015,-0.958,9.676,-4.598,-23.46,1.245,9.628,4.311,-23.46,1.438,9.778,-4.314,52.786,-29.326,-17.595
0.02,-0.814,9.724,-4.742,-23.46,1.198,9.676,4.407,-23.46,1.438,9.778,-4.458,52.786,-35.191,-23.46
0.025,-0.623,9.772,-4.838,-23.46,1.15,9.628,4.551,-23.46,1.582,9.778,-4.602,52.786,-35.191,-23.46
0.03,-0.575,9.724,-4.838,-29.326,1.054,9.724,4.646,-23.46,1.438,9.778,-4.745,52.786,-35.191,-23.46
0.035,-0.575,9.724,-4.838,-29.326,0.958,9.772,4.646,-23.46,1.438,9.922,-4.745,58.651,-35.191,-23.46
0.04,-0.575,9.772,-4.694,-29.326,0.91,9.82,4.694,-29.326,1.294,10.066,-4.745,58.651,-35.191,-23.46
0.045,-0.623,9.915,-4.551,-29.326,0.91,9.915,4.646,-29.326,1.294,10.21,-4.745,58.651,-35.191,-23.46
0.05,-0.575,10.059,-4.503,-29.326,0.862,10.011,4.503,-29.326,1.294,10.21,-4.602,52.786,-35.191,-23.46
0.055,-0.575,10.155,-4.503,-35.191,0.766,10.059,4.407,-29.326,1.15,10.354,-4.458,52.786,-35.191,-23.46
0.06,-0.575,10.011,-4.503,-41.056,0.814,10.155,4.359,-35.191,1.007,10.354,-4.458,52.786,-35.191,-29.326
0.065,-0.623,9.867,-4.694,-41.056,0.814,10.107,4.359,-35.191,1.15,10.354,-4.458,52.786,-35.191,-35.191
0.07,-0.527,9.628,-4.934,-41.056,0.862,10.011,4.503,-41.056,1.007,10.21,-4.458,52.786,-35.191,-41.056
0.075,-0.383,9.436,-5.125,-46.921,0.862,9.772,4.694,-41.056,1.294,10.066,-4.745,52.786,-41.056,-41.056
0.08,-0.24,9.341,-5.221,-46.921,0.814,9.58,4.886,-46.921,1.15,9.778,-4.889,52.786,-41.056,-46.921
0.085,-0.144,9.341,-5.269,-46.921,0.671,9.436,5.03,-46.921,1.15,9.778,-5.033,52.786,-41.056,-46.921
0.09,-0.096,9.293,-5.221,-46.921,0.623,9.436,5.125,-46.921,1.15,9.635,-5.177,52.786,-41.056,-46.921
0.095,-0.096,9.197,-5.173,-46.921,0.623,9.388,5.077,-46.921,1.15,9.635,-5.177,52.786,-41.056,-46.921
0.1,-0.144,9.149,-5.077,-46.921,0.623,9.341,4.982,-46.921,1.15,9.635,-5.177,52.786,-35.191,-46.921
0.105,-0.144,9.149,-5.077,-46.921,0.575,9.245,4.934,-46.921,1.007,9.491,-5.033,52.786,-35.191,-46.921
0.11,-0.144,9.197,-4.982,-46.921,0.575,9.197,4.934,-46.921,1.007,9.491,-5.033,52.786,-29.326,-41.056
0.115,-0.144,9.245,-4.886,-46.921,0.575,9.245,4.838,-46.921,1.007,9.491,-5.033,52.786,-29.326,-46.921
0.12,-0.144,9.197,-4.79,-46.921,0.527,9.293,4.742,-46.921,0.863,9.491,-4.889,46.921,-29.326,-41.056
0.125,-0.144,9.149,-4.694,-46.921,0.479,9.245,4.694,-46.921,0.863,9.491,-4.745,46.921,-29.326,-41.056
0.13,-0.048,8.957,-4.646,-46.921,0.479,9.149,4.598,-46.921,0.863,9.347,-4.745,46.921,-29.326,-46.921
0.135,0.048,8.814,-4.646,-46.921,0.431,9.005,4.551,-46.921,0.719,9.203,-4.745,46.921,-29.326,-46.921
0.14,0.096,8.766,-4.646,-46.921,0.383,8.766,4.503,-46.921,0.719,8.916,-4.602,52.786,-29.326,-46.921
0.145,0.192,8.67,-4.598,-46.921,0.335,8.622,4.551,-46.921,0.719,8.772,-4.602,52.786,-29.326,-46.921
0.15,0.24,8.574,-4.598,-46.921,0.24,8.526,4.503,-46.921,0.575,8.484,-4.602,52.786,-29.326,-46.921
0.155,0.24,8.478,-4.598,-41.056,0.24,8.383,4.455,-46.921,0.719,8.34,-4.602,52.786,-23.46,-41.056
0.16,0.335,8.383,-4.551,-41.056,0.24,8.239,4.503,-41.056,0.719,8.197,-4.602,58.651,-23.46,-41.056
0.165,0.383,8.335,-4.503,-35.191,0.192,8.239,4.455,-41.056,0.719,8.197,-4.602,58.651,-23.46,-41.056
0.17,0.24,8.287,-4.503,-35.191,0.144,8.239,4.359,-35.191,0.575,8.197,-4.458,64.516,-23.46,-35.191
0.17500000000000002,0.144,8.287,-4.407,-35.191,0.192,8.239,4.359,-35.191,0.575,8.34,-4.458,64.516,-17.595,-35.191
0.18,0.192,8.287,-4.263,-29.326,0.24,8.239,4.311,-35.191,0.575,8.34,-4.458,70.381,-17.595,-35.191
0.185,0.144,8.335,-4.167,-29.326,0.24,8.335,4.167,-29.326,0.719,8.484,-4.314,70.381,-17.595,-35.191
0.19,0.096,8.335,-4.072,-29.326,0.24,8.43,4.024,-29.326,0.575,8.628,-4.17,70.381,-17.595,-29.326
0.195,0.096,8.287,-4.024,-29.326,0.287,8.478,3.976,-29.326,0.575,8.772,-4.026,70.381,-11.73,-23.46
0.2,0.096,8.143,-4.024,-29.326,0.335,8.526,3.928,-29.326,0.719,8.772,-4.026,70.381,-11.73,-23.46
0.20500000000000002,0.096,8.143,-3.928,-29.326,0.287,8.478,3.88,-29.326,0.719,8.916,-4.026,64.516,-11.73,-23.46
0.21,0.096,8.143,-3.832,-23.46,0.335,8.43,3.832,-29.326,0.719,8.772,-4.026,64.516,-11.73,-23.46
0.215,0.096,8.095,-3.784,-23.46,0.335,8.43,3.784,-29.326,0.719,8.772,-3.883,64.516,-11.73,-23.46
0.22,0.096,8.143,-3.736,-29.326,0.287,8.383,3.688,-23.46,0.719,8.772,-3.739,58.651,-11.73,-23.46
0.225,0.144,8.143,-3.688,-29.326,0.335,8.383,3.64,-29.326,0.719,8.772,-3.739,52.786,-5.865,-23.46
0.23,0.144,8.143,-3.688,-29.326,0.287,8.383,3.593,-23.46,0.719,8.772,-3.739,52.786,-5.865,-23.46
0.23500000000000001,0.096,8.191,-3.688,-23.46,0.287,8.335,3.545,-29.326,0.719,8.628,-3.739,52.786,-5.865,-23.46
0.24,0.192,8.239,-3.64,-23.46,0.335,8.287,3.593,-29.326,0.719,8.484,-3.739,46.921,-5.865,-23.46
0.245,0.287,8.335,-3.545,-23.46,0.287,8.335,3.545,-23.46,0.719,8.628,-3.595,46.921,-5.865,-23.46
0.25,0.335,8.335,-3.497,-23.46,0.192,8.383,3.449,-23.46,0.719,8.628,-3.595,46.921,0.0,-17.595
0.255,0.144,8.239,-3.353,-23.46,0.144,8.383,3.401,-23.46,0.575,8.628,-3.451,46.921,0.0,-17.595
0.26,-0.048,8.095,-3.209,-23.46,0.192,8.383,3.305,-23.46,0.575,8.628,-3.451,41.056,0.0,-17.595
0.265,-0.096,8.143,-3.161,-23.46,0.287,8.287,3.209,-23.46,0.575,8.628,-3.307,41.056,0.0,-23.46
0.27,-0.048,8.287,-3.114,-23.46,0.335,8.239,3.066,-23.46,0.575,8.484,-3.164,41.056,5.865,-23.46
0.275,0.048,8.383,-3.114,-23.46,0.287,8.239,3.018,-23.46,0.575,8.484,-3.164,41.056,0.0,-23.46
0.28,0.096,8.383,-3.161,-23.46,0.335,8.335,3.018,-23.46,0.575,8.34,-3.02,41.056,0.0,-17.595
0.28500000000000003,0.048,8.43,-3.305,-17.595,0.287,8.335,3.018,-17.595,0.575,8.484,-3.164,41.056,0.0,-17.595
0.29,0.048,8.43,-3.305,-17.595,0.287,8.335,3.114,-23.46,0.575,8.484,-3.164,41.056,0.0,-17.595
0.295,0.096,8.478,-3.305,-17.595,0.335,8.383,3.209,-17.595,0.719,8.484,-3.307,41.056,0.0,-17.595
0.3,0.048,8.526,-3.305,-17.595,0.335,8.43,3.161,-17.595,0.719,8.484,-3.307,41.056,0.0,-17.595
0.305,0.048,8.526,-3.305,-11.73,0.335,8.478,3.161,-11.73,0.719,8.628,-3.307,46.921,0.0,-11.73
0.31,0.096,8.574,-3.401,-11.73,0.335,8.574,3.209,-11.73,0.719,8.772,-3.307,46.921,5.865,-11.73
0.315,0.192,8.574,-3.497,-11.73,0.335,8.622,3.257,-11.73,0.719,8.772,-3.307,46.921,5.865,-11.73
0.32,0.335,8.622,-3.593,-11.73,0.287,8.67,3.353,-11.73,0.719,8.916,-3.451,46.921,5.865,-11.73
0.325,0.383,8.718,-3.593,-11.73,0.192,8.766,3.449,-11.73,0.719,9.059,-3.595,46.921,5.865,-5.865
0.33,0.383,8.718,-3.593,-11.73,0.144,8.862,3.497,-11.73,0.575,9.203,-3.595,41.056,5.865,-5.865
0.335,0.335,8.718,-3.497,-11.73,0.096,8.957,3.449,-11.73,0.575,9.347,-3.595,41.056,11.73,-5.865
0.34,0.383,8.814,-3.449,-11.73,0.096,9.005,3.401,-11.73,0.575,9.347,-3.595,41.056,11.73,-5.865
0.34500000000000003,0.335,8.862,-3.449,-11.73,0.096,9.005,3.353,-11.73,0.575,9.491,-3.451,35.191,11.73,-11.73
0.35000000000000003,0.287,8.909,-3.401,-11.73,0.096,9.005,3.305,-11.73,0.575,9.347,-3.451,35.191,17.595,-11.73
0.355,0.335,8.909,-3.353,-17.595,0.096,9.053,3.305,-11.73,0.575,9.347,-3.451,29.326,17.595,-11.73
0.36,0.287,8.957,-3.209,-17.595,0.048,9.053,3.257,-11.73,0.431,9.347,-3.307,29.326,17.595,-11.73
0.365,0.287,9.053,-3.161,-17.595,0.048,9.005,3.161,-11.73,0.431,9.347,-3.307,29.326,17.595,-11.73
0.37,0.335,9.005,-3.114,-17.595,0.0,8.957,3.114,-11.73,0.431,9.203,-3.164,23.46,17.595,-11.73
0.375,0.287,8.862,-3.161,-17.595,0.048,8.909,3.018,-11.73,0.431,9.059,-3.164,23.46,17.595,-11.73
0.38,0.24,8.718,-3.305,-17.595,0.0,8.814,3.018,-11.73,0.288,8.916,-3.164,23.46,17.595,-11.73
0.385,0.287,8.67,-3.449,-11.73,0.096,8.622,3.161,-11.73,0.431,8.772,-3.164,23.46,17.595,-11.73
0.39,0.431,8.67,-3.545,-11.73,0.096,8.526,3.305,-11.73,0.431,8.484,-3.307,29.326,17.595,-11.73
0.395,0.527,8.814,-3.593,-5.865,0.048,8.478,3.401,-11.73,0.431,8.484,-3.451,29.326,17.595,-11.73
0.4,0.575,8.909,-3.593,-5.865,-0.048,8.574,3.449,-5.865,0.431,8.484,-3.595,29.326,17.595,-5.865
0.405,0.479,9.005,-3.545,-0.0,-0.048,8.67,3.449,0.0,0.431,8.628,-3.595,35.191,23.46,0.0
0.41000000000000003,0.431,9.101,-3.449,-0.0,-0.048,8.814,3.449,0.0,0.431,8.772,-3.595,41.056,23.46,0.0
0.41500000000000004,0.431,9.149,-3.353,-0.0,0.0,8.957,3.353,0.0,0.431,8.916,-3.451,41.056,23.46,0.0
0.42,0.479,9.197,-3.353,5.865,0.0,9.053,3.257,5.865,0.431,9.203,-3.451,41.056,23.46,5.865
0.425,0.527,9.197,-3.305,5.865,0.048,9.149,3.209,5.865,0.431,9.347,-3.307,41.056,29.326,5.865
0.43,0.527,9.101,-3.209,-0.0,0.0,9.149,3.161,5.865,0.431,9.347,-3.307,41.056,29.326,5.865
0.435,0.383,9.053,-3.161,5.865,0.0,9.149,3.066,5.865,0.431,9.347,-3.164,46.921,29.326,5.865
0.44,0.24,9.101,-3.114,5.865,0.048,9.197,3.018,5.865,0.575,9.491,-3.164,41.056,29.326,5.865
0.445,0.24,9.149,-2.922,5.865,0.192,9.293,3.018,5.865,0.575,9.635,-3.164,41.056,35.191,5.865
0.45,0.24,9.293,-2.778,-0.0,0.24,9.436,2.874,5.865,0.719,9.778,-3.02,41.056,35.191,5.865
0.455,0.096,9.484,-2.539,-0.0,0.144,9.532,2.682,5.865,0.575,9.922,-2.876,41.056,35.191,5.865
0.46,-0.048,9.628,-2.395,-0.0,0.24,9.676,2.491,5.865,0.575,10.066,-2.588,35.191,35.191,5.865
0.465,-0.048,9.628,-2.347,-5.865,0.287,9.82,2.347,0.0,0.575,10.21,-2.445,29.326,41.056,5.865
0.47000000000000003,-0.048,9.532,-2.443,-5.865,0.287,9.82,2.251,0.0,0.575,10.21,-2.301,29.326,41.056,0.0
0.47500000000000003,0.048,9.388,-2.587,-5.865,0.335,9.772,2.299,0.0,0.575,10.21,-2.301,23.46,35.191,0.0
0.48,0.192,9.245,-2.73,-5.865,0.383,9.628,2.395,-5.865,0.719,10.066,-2.445,23.46,35.191,0.0
0.485,0.192,9.101,-2.922,-5.865,0.335,9.436,2.539,-5.865,0.719,9.778,-2.588,23.46,41.056,0.0
0.49,0.192,8.909,-3.066,-5.865,0.287,9.245,2.73,-5.865,0.719,9.491,-2.732,17.595,35.191,0.0
0.495,0.192,8.814,-3.114,-5.865,0.335,9.149,2.874,-5.865,0.863,9.491,-2.876,17.595,41.056,0.0
0.5,0.24,8.766,-3.161,-0.0,0.335,9.053,2.97,0.0,0.863,9.347,-3.02,17.595,41.056,0.0
0.505,0.192,8.766,-3.209,-0.0,0.335,9.005,3.018,0.0,0.863,9.347,-3.164,5.865,46.921,0.0
0.51,0.192,8.766,-3.257,5.865,0.287,8.909,3.066,0.0,0.719,9.203,-3.164,5.865,46.921,5.865
0.515,0.24,8.957,-3.209,5.865,0.383,8.862,3.066,5.865,0.863,9.059,-3.164,5.865,46.921,5.865
0.52,0.24,9.053,-3.114,11.73,0.383,8.909,3.114,5.865,1.007,9.059,-3.164,5.865,52.786,5.865
0.525,0.096,9.245,-2.922,11.73,0.335,9.053,3.018,11.73,0.863,9.203,-3.164,5.865,52.786,11.73
0.53,-0.048,9.484,-2.682,11.73,0.335,9.245,2.874,11.73,0.863,9.347,-3.02,5.865,58.651,11.73
0.535,-0.192,9.676,-2.347,11.73,0.431,9.388,2.635,11.73,0.863,9.635,-2.732,5.865,58.651,11.73
0.54,-0.383,9.867,-2.012,11.73,0.527,9.58,2.347,11.73,1.007,9.635,-2.588,5.865,58.651,11.73
0.545,-0.479,9.867,-1.629,5.865,0.671,9.724,2.06,11.73,1.007,9.778,-2.157,5.865,64.516,11.73
0.55,-0.623,9.963,-1.389,5.865,0.671,9.724,1.677,11.73,1.007,9.778,-1.869,5.865,64.516,11.73
0.555,-0.623,10.011,-1.054,5.865,0.766,9.772,1.437,11.73,1.007,9.778,-1.582,5.865,64.516,11.73
0.56,-0.671,9.963,-0.719,5.865,0.862,9.772,1.102,11.73,1.15,9.778,-1.294,5.865,64.516,11.73
0.5650000000000001,-0.671,9.963,-0.335,5.865,0.862,9.772,0.766,5.865,1.15,9.778,-0.863,17.595,58.651,11.73
0.5700000000000001,-0.766,10.011,0.096,5.865,0.862,9.82,0.431,5.865,1.15,9.778,-0.575,17.595,58.651,11.73
0.5750000000000001,-0.91,9.963,0.575,5.865,0.958,9.772,0.0,5.865,1.294,9.778,-0.144,23.46,58.651,11.73
0.58,-1.054,10.059,1.15,5.865,1.006,9.772,-0.431,5.865,1.294,9.635,0.288,23.46,58.651,11.73
0.585,-1.15,10.203,1.82,5.865,1.054,9.772,-0.958,11.73,1.294,9.778,0.863,23.46,58.651,11.73
0.59,-1.245,10.442,2.443,11.73,1.054,9.915,-1.581,11.73,1.15,9.922,1.438,29.326,52.786,11.73
0.595,-1.389,10.73,3.018,11.73,1.102,10.155,-2.203,11.73,1.15,10.066,2.013,29.326,52.786,11.73
0.6,-1.581,11.017,3.545,5.865,1.15,10.394,-2.826,11.73,1.15,10.354,2.732,35.191,46.921,11.73
0.605,-1.629,11.161,3.928,5.865,1.198,10.634,-3.353,11.73,1.15,10.497,3.164,35.191,41.056,11.73
0.61,-1.629,11.113,4.167,-0.0,1.293,10.825,-3.784,5.865,1.15,10.785,3.739,35.191,35.191,11.73
0.615,-1.629,10.969,4.263,-5.865,1.245,10.873,-4.119,0.0,1.15,10.929,4.17,41.056,29.326,5.865
0.62,-1.629,10.778,4.263,-11.73,1.245,10.873,-4.215,0.0,1.15,11.073,4.314,41.056,23.46,0.0
0.625,-1.485,10.442,4.215,-17.595,1.245,10.825,-4.263,-5.865,1.007,11.073,4.314,41.056,17.595,-5.865
0.63,-1.389,10.011,4.024,-17.595,1.15,10.586,-4.215,-11.73,1.007,10.929,4.314,41.056,5.865,-11.73
0.635,-1.341,9.58,3.784,-23.46,1.102,10.251,-4.119,-17.595,1.007,10.641,4.17,41.056,0.0,-11.73
0.64,-1.198,9.053,3.497,-29.326,1.054,9.82,-3.88,-23.46,1.007,10.21,4.026,41.056,-5.865,-17.595
0.645,-1.102,8.622,3.114,-29.326,0.958,9.388,-3.593,-23.46,0.863,9.778,3.739,41.056,-17.595,-23.46
0.65,-0.91,8.287,2.778,-29.326,0.91,9.053,-3.257,-29.326,0.863,9.491,3.451,35.191,-23.46,-23.46
0.655,-0.671,8.095,2.299,-29.326,0.766,8.766,-2.874,-29.326,0.719,9.347,3.02,35.191,-29.326,-23.46
0.66,-0.383,7.951,1.677,-29.326,0.575,8.574,-2.491,-29.326,0.575,9.203,2.732,29.326,-35.191,-23.46
0.665,-0.096,7.76,0.814,-23.46,0.335,8.335,-1.964,-23.46,0.431,8.916,2.157,29.326,-41.056,-23.46
0.67,0.383,7.568,-0.335,-23.46,0.144,8.143,-1.198,-23.46,0.144,8.628,1.582,23.46,-46.921,-23.46
0.675,0.958,7.616,-1.485,-23.46,-0.096,7.904,-0.192,-23.46,0.0,8.484,0.575,17.595,-46.921,-23.46
0.68,1.389,7.616,-2.635,-17.595,-0.383,7.808,0.958,-23.46,-0.144,8.34,-0.575,5.865,-52.786,-23.46
0.685,1.581,7.616,-3.928,-17.595,-0.719,7.76,2.06,-23.46,-0.288,8.197,-1.726,5.865,-52.786,-17.595
0.6900000000000001,1.916,7.616,-5.077,-17.595,-0.766,7.712,3.257,-17.595,-0.288,8.053,-3.02,5.865,-52.786,-17.595
0.6950000000000001,2.347,7.712,-6.035,-11.73,-0.862,7.76,4.455,-17.595,-0.144,8.053,-4.17,5.865,-52.786,-17.595
0.7000000000000001,2.635,7.76,-6.946,-5.865,-1.102,7.856,5.461,-11.73,-0.288,8.197,-5.321,5.865,-46.921,-11.73
0.705,2.73,7.808,-7.664,-0.0,-1.293,7.951,6.323,-5.865,-0.288,8.197,-6.183,5.865,-41.056,-5.865
0.71,2.778,8.095,-8.191,5.865,-1.389,7.951,7.137,0.0,-0.288,8.34,-7.046,0.0,-29.326,0.0
0.715,2.682,8.574,-8.383,11.73,-1.437,8.095,7.712,5.865,-0.288,8.34,-7.765,0.0,-17.595,5.865
0.72,2.539,9.101,-8.383,11.73,-1.341,8.43,8.047,11.73,-0.288,8.484,-8.197,0.0,-11.73,5.865
0.725,2.443,9.772,-8.335,17.595,-1.341,8.862,8.143,11.73,-0.288,8.916,-8.34,-5.865,0.0,11.73
0.73,2.443,10.203,-7.999,17.595,-1.245,9.341,8.047,17.595,-0.288,9.347,-8.197,-5.865,17.595,23.46
0.735,2.299,10.203,-7.472,17.595,-1.198,9.82,7.856,23.46,-0.144,9.778,-8.197,-5.865,23.46,23.46
0.74,1.916,9.867,-6.946,11.73,-1.293,10.059,7.425,17.595,-0.431,10.21,-7.765,0.0,35.191,23.46
0.745,1.533,9.293,-6.083,17.595,-1.102,9.867,6.898,17.595,-0.288,10.066,-7.19,0.0,41.056,17.595
0.75,1.245,8.957,-5.03,17.595,-0.91,9.388,6.275,17.595,-0.288,9.635,-6.615,0.0,52.786,17.595
0.755,0.814,8.957,-4.072,17.595,-0.766,8.957,5.269,17.595,-0.288,9.203,-5.608,5.865,58.651,17.595
0.76,0.766,8.957,-3.114,17.595,-0.527,8.718,4.311,17.595,-0.288,8.772,-4.745,5.865,58.651,17.595
0.765,0.671,9.053,-2.251,17.595,-0.479,8.766,3.353,17.595,-0.288,8.772,-3.739,5.865,64.516,23.46
0.77,0.575,9.101,-1.485,23.46,-0.431,8.814,2.491,17.595,-0.288,8.772,-2.732,5.865,64.516,23.46
0.775,0.479,9.197,-0.623,23.46,-0.287,8.862,1.724,23.46,0.0,8.772,-2.013,5.865,64.516,23.46
0.78,0.335,9.341,0.192,23.46,-0.287,8.909,0.91,23.46,0.0,8.916,-1.15,5.865,64.516,23.46
0.785,0.048,9.436,1.006,23.46,-0.192,9.149,0.096,23.46,0.0,9.203,-0.288,17.595,58.651,29.326
0.79,-0.335,9.532,1.772,17.595,-0.048,9.388,-0.719,23.46,0.0,9.491,0.575,17.595,58.651,29.326
0.795,-0.623,9.628,2.443,17.595,0.144,9.58,-1.485,23.46,0.0,9.778,1.294,17.595,58.651,23.46
0.8,-0.814,9.772,2.874,17.595,0.335,9.724,-2.203,23.46,0.288,10.066,2.013,17.595,58.651,23.46
0.805,-0.958,9.915,3.114,17.595,0.479,9.82,-2.73,17.595,0.288,10.21,2.588,17.595,52.786,23.46
0.81,-1.054,10.251,3.257,11.73,0.623,10.011,-3.018,17.595,0.431,10.354,3.02,5.865,46.921,23.46
0.8150000000000001,-0.91,10.538,3.161,11.73,0.719,10.203,-3.161,17.595,0.575,10.497,3.164,5.865,41.056,17.595
0.8200000000000001,-0.766,10.586,2.874,5.865,0.719,10.442,-3.209,11.73,0.575,10.641,3.307,5.865,29.326,17.595
0.8250000000000001,-0.958,10.346,2.539,5.865,0.623,10.538,-3.018,5.865,0.575,10.641,3.164,5.865,23.46,11.73
0.8300000000000001,-1.006,9.915,2.012,-0.0,0.719,10.49,-2.73,5.865,0.863,10.641,2.876,5.865,17.595,5.865
0.835,-0.766,9.628,1.533,-5.865,0.766,10.011,-2.203,5.865,0.719,10.354,2.445,5.865,17.595,5.865
0.84,-0.431,9.484,0.862,-5.865,0.766,9.628,-1.772,0.0,0.863,9.922,1.869,5.865,5.865,0.0
0.845,-0.24,9.341,0.192,-5.865,0.575,9.628,-1.15,-5.865,0.575,9.778,1.294,5.865,0.0,-5.865
0.85,-0.048,9.341,-0.383,-0.0,0.527,9.58,-0.527,-5.865,0.719,9.778,0.719,5.865,-5.865,-5.865
0.855,0.144,9.341,-0.862,-0.0,0.431,9.532,0.096,0.0,0.863,9.778,0.144,0.0,-5.865,0.0
0.86,0.192,9.436,-1.198,-0.0,0.335,9.436,0.575,0.0,0.719,9.778,-0.431,0.0,-5.865,5.865
0.865,0.192,9.532,-1.533,-0.0,0.24,9.532,1.006,0.0,0.719,9.778,-1.007,0.0,-5.865,5.865
0.87,0.287,9.628,-1.82,-0.0,0.287,9.676,1.341,0.0,0.719,9.922,-1.294,0.0,-5.865,0.0
0.875,0.383,9.772,-2.06,-0.0,0.192,9.724,1.581,0.0,0.719,10.066,-1.582,-5.865,-5.865,0.0
0.88,0.479,9.676,-2.251,-5.865,0.144,9.772,1.868,0.0,0.575,10.066,-1.869,-5.865,0.0,0.0
0.885,0.431,9.676,-2.443,-0.0,0.096,9.724,2.06,0.0,0.575,9.922,-2.157,-5.865,0.0,0.0
0.89,0.431,9.915,-2.443,-0.0,0.096,9.58,2.251,0.0,0.575,9.778,-2.301,-5.865,0.0,0.0
0.895,0.431,10.059,-2.347,-0.0,0.096,9.628,2.347,0.0,0.575,9.635,-2.445,-5.865,0.0,0.0
0.9,0.335,10.107,-2.299,-0.0,0.048,9.724,2.299,0.0,0.575,9.635,-2.445,-5.865,5.865,0.0
0.905,0.24,10.155,-2.251,5.865,0.048,9.772,2.203,0.0,0.431,9.635,-2.301,-5.865,5.865,5.865
0.91,0.24,10.251,-2.203,5.865,0.144,9.772,2.156,5.865,0.575,9.635,-2.301,0.0,5.865,5.865
0.915,0.335,10.346,-2.108,5.865,0.144,9.772,2.156,5.865,0.575,9.635,-2.157,0.0,11.73,5.865
0.92,0.335,10.442,-1.964,-0.0,0.096,9.915,2.06,5.865,0.431,9.778,-2.157,5.865,11.73,5.865
0.925,0.24,10.49,-1.82,5.865,0.096,10.011,1.916,5.865,0.575,9.922,-2.013,5.865,11.73,5.865
0.93,0.144,10.394,-1.629,5.865,0.096,10.155,1.772,5.865,0.575,10.066,-1.869,17.595,11.73,5.865
0.935,0.048,10.251,-1.485,5.865,0.192,10.251,1.629,5.865,0.575,10.21,-1.726,23.46,11.73,5.865
0.9400000000000001,0.048,10.203,-1.389,5.865,0.192,10.299,1.437,5.865,0.575,10.354,-1.582,23.46,17.595,5.865
0.9450000000000001,0.144,10.203,-1.293,5.865,0.24,10.251,1.341,5.865,0.575,10.497,-1.438,23.46,17.595,5.865
0.9500000000000001,0.144,10.251,-1.102,5.865,0.192,10.251,1.245,5.865,0.575,10.497,-1.294,23.46,11.73,11.73
0.9550000000000001,0.096,10.299,-0.91,5.865,0.24,10.299,1.102,5.865,0.575,10.497,-1.15,23.46,11.73,11.73
0.96,0.0,10.394,-0.766,5.865,0.24,10.346,0.91,5.865,0.575,10.641,-1.007,23.46,11.73,11.73
0.965,-0.048,10.538,-0.575,5.865,0.287,10.49,0.719,5.865,0.719,10.785,-0.863,23.46,11.73,11.73
0.97,-0.096,10.73,-0.335,5.865,0.383,10.682,0.575,5.865,0.719,10.929,-0.719,23.46,17.595,5.865
0.975,-0.192,10.873,-0.144,5.865,0.431,10.825,0.383,5.865,0.719,11.216,-0.431,17.595,11.73,11.73
0.98,-0.287,10.969,0.048,-0.0,0.431,11.017,0.144,5.865,0.719,11.36,-0.288,5.865,17.595,5.865
0.985,-0.383,10.921,0.144,-0.0,0.479,11.161,0.0,5.865,0.719,11.504,-0.0,5.865,17.595,5.865
0.99,-0.335,10.825,0.144,-5.865,0.479,11.209,-0.192,0.0,0.719,11.648,0.144,5.865,11.73,5.865
0.995,-0.287,10.682,0.048,-5.865,0.431,11.113,-0.192,-5.865,0.719,11.648,0.144,5.865,11.73,0.0
1.0,-0.144,10.538,-0.24,-11.73,0.383,10.921,-0.144,-5.865,0.575,11.504,0.144,0.0,5.865,-5.865
1.0050000000000001,0.048,10.251,-0.527,-11.73,0.335,10.634,0.096,-11.73,0.575,11.073,-0.0,0.0,5.865,-5.865
1.01,0.24,10.107,-0.766,-11.73,0.24,10.299,0.383,-11.73,0.575,10.641,-0.288,-5.865,0.0,-11.73
1.0150000000000001,0.24,10.011,-0.958,-17.595,0.096,9.963,0.623,-11.73,0.431,10.21,-0.575,-5.865,0.0,-11.73
1.02,0.287,9.867,-1.15,-17.595,0.048,9.724,0.814,-11.73,0.431,9.778,-0.863,-5.865,0.0,-11.73
1.025,0.383,9.676,-1.293,-11.73,0.096,9.532,1.006,-11.73,0.431,9.491,-1.007,-5.865,0.0,-11.73
1.03,0.431,9.628,-1.437,-11.73,0.048,9.293,1.15,-17.595,0.431,9.203,-1.15,0.0,0.0,-11.73
1.035,0.479,9.484,-1.389,-11.73,0.048,9.245,1.341,-11.73,0.431,9.059,-1.294,5.865,0.0,-11.73
1.04,0.383,9.388,-1.437,-11.73,-0.048,9.245,1.341,-11.73,0.288,9.203,-1.438,5.865,0.0,-11.73
1.045,0.383,9.341,-1.437,-5.865,0.048,9.245,1.341,-11.73,0.431,9.203,-1.438,5.865,0.0,-11.73
1.05,0.479,9.388,-1.341,-5.865,0.0,9.197,1.341,-5.865,0.431,9.203,-1.438,17.595,0.0,-5.865
1.055,0.383,9.58,-1.293,-5.865,0.0,9.293,1.245,-5.865,0.431,9.347,-1.294,17.595,5.865,0.0
1.06,0.431,9.58,-1.245,-5.865,0.048,9.484,1.245,-5.865,0.431,9.491,-1.294,23.46,5.865,0.0
1.065,0.431,9.628,-1.245,-5.865,-0.048,9.628,1.245,0.0,0.431,9.778,-1.294,23.46,5.865,0.0
1.07,0.383,9.772,-1.293,-5.865,0.0,9.724,1.198,0.0,0.431,10.066,-1.294,23.46,5.865,0.0
1.075,0.335,10.059,-1.245,-0.0,-0.048,9.772,1.198,0.0,0.288,10.066,-1.294,17.595,5.865,0.0
1.08,0.383,10.203,-1.102,-0.0,0.048,9.963,1.198,0.0,0.431,10.21,-1.294,17.595,5.865,0.0
1.085,0.335,10.251,-1.102,-5.865,-0.048,10.203,1.054,0.0,0.431,10.497,-1.15,17.595,5.865,0.0
1.09,0.335,10.203,-1.198,-5.865,-0.096,10.299,1.054,-5.865,0.144,10.641,-1.007,17.595,5.865,0.0
1.095,0.335,10.155,-1.245,-11.73,-0.048,10.251,1.102,-5.865,0.144,10.641,-1.15,5.865,5.865,0.0
1.1,0.431,10.203,-1.293,-5.865,0.0,10.203,1.15,-5.865,0.288,10.497,-1.15,5.865,5.865,-5.865
1.105,0.383,10.203,-1.293,-11.73,-0.048,10.203,1.198,-5.865,0.431,10.497,-1.294,5.865,5.865,-5.865
1.11,0.287,10.299,-1.245,-11.73,0.0,10.155,1.198,-5.865,0.431,10.354,-1.294,5.865,5.865,-5.865
1.115,0.24,10.442,-1.198,-11.73,0.048,10.155,1.198,-5.865,0.431,10.21,-1.294,5.865,5.865,-5.865
1.12,0.192,10.634,-1.102,-5.865,0.096,10.203,1.102,-5.865,0.431,10.354,-1.15,5.865,5.865,-5.865
1.125,0.287,10.682,-1.006,-11.73,0.096,10.346,1.054,-5.865,0.431,10.354,-1.15,5.865,5.865,-5.865
1.1300000000000001,0.192,10.825,-0.862,-5.865,0.096,10.442,0.958,-5.865,0.431,10.497,-1.007,5.865,5.865,-5.865
1.135,0.144,10.969,-0.671,-5.865,0.144,10.586,0.814,-5.865,0.431,10.497,-0.863,17.595,5.865,-5.865
1.1400000000000001,0.096,11.017,-0.479,-5.865,0.192,10.73,0.671,-5.865,0.575,10.785,-0.863,17.595,5.865,0.0
1.145,0.048,11.065,-0.383,-11.73,0.192,10.825,0.479,-5.865,0.575,10.929,-0.575,23.46,5.865,-5.865
1.1500000000000001,-0.048,11.257,-0.24,-11.73,0.192,10.921,0.335,-5.865,0.575,11.073,-0.431,23.46,5.865,-5.865
1.155,0.048,11.4,-0.144,-11.73,0.287,11.017,0.24,-11.73,0.575,11.073,-0.288,23.46,5.865,-5.865
1.16,-0.048,11.448,-0.096,-11.73,0.24,11.161,0.096,-11.73,0.575,11.216,-0.144,23.46,5.865,-5.865
1.165,-0.048,11.496,-0.144,-17.595,0.24,11.257,0.048,-11.73,0.431,11.36,-0.0,23.46,5.865,-11.73
1.17,-0.048,11.544,-0.192,-17.595,0.24,11.304,0.096,-17.595,0.431,11.36,-0.144,29.326,5.865,-11.73
1.175,0.096,11.448,-0.192,-23.46,0.287,11.352,0.144,-17.595,0.575,11.504,-0.144,29.326,0.0,-17.595
1.18,0.096,11.352,-0.287,-23.46,0.192,11.4,0.144,-23.46,0.431,11.648,-0.144,29.326,0.0,-17.595
1.185,0.144,11.065,-0.431,-29.326,0.144,11.304,0.192,-23.46,0.431,11.648,-0.144,29.326,0.0,-17.595
1.19,0.287,10.825,-0.575,-29.326,0.096,11.161,0.335,-29.326,0.431,11.504,-0.288,29.326,0.0,-23.46
1.195,0.335,10.586,-0.719,-35.191,0.0,10.969,0.479,-29.326,0.288,11.36,-0.431,29.326,-5.865,-23.46
1.2,0.431,10.394,-0.958,-35.191,-0.048,10.778,0.623,-35.191,0.288,11.216,-0.575,29.326,-5.865,-23.46
1.205,0.623,10.203,-1.15,-35.191,-0.096,10.538,0.814,-35.191,0.144,10.929,-0.719,23.46,-5.865,-29.326
1.21,0.671,10.299,-1.245,-35.191,-0.192,10.394,1.006,-35.191,0.144,10.785,-1.007,23.46,-5.865,-35.191
1.215,0.719,10.346,-1.245,-35.191,-0.24,10.299,1.102,-35.191,0.144,10.641,-1.15,23.46,-5.865,-35.191
1.22,0.719,10.586,-1.15,-35.191,-0.287,10.299,1.15,-35.191,0.144,10.497,-1.15,17.595,-5.865,-35.191
1.225,0.719,10.586,-1.006,-35.191,-0.335,10.346,1.102,-35.191,0.144,10.497,-1.15,17.595,-5.865,-35.191
1.23,0.671,10.538,-0.91,-35.191,-0.335,10.394,0.958,-35.191,0.0,10.497,-1.007,17.595,-5.865,-35.191
1.235,0.671,10.346,-0.91,-41.056,-0.335,10.299,0.862,-35.191,0.0,10.354,-1.007,17.595,-5.865,-35.191
1.24,0.671,10.251,-0.862,-41.056,-0.335,10.107,0.814,-35.191,0.0,10.21,-0.863,23.46,-5.865,-35.191
1.245,0.719,9.915,-0.766,-41.056,-0.383,10.011,0.814,-35.191,-0.144,10.066,-0.863,23.46,-5.865,-35.191
1.25,0.671,9.676,-0.814,-41.056,-0.479,9.82,0.719,-41.056,-0.144,9.922,-0.863,23.46,-5.865,-41.056
1.2550000000000001,0.719,9.676,-0.814,-41.056,-0.383,9.58,0.719,-41.056,-0.144,9.778,-0.719,29.326,-5.865,-41.056
1.26,0.91,9.532,-0.671,-41.056,-0.383,9.436,0.766,-35.191,-0.144,9.491,-0.719,29.326,-5.865,-35.191
1.2650000000000001,0.862,9.436,-0.671,-41.056,-0.575,9.341,0.671,-35.191,-0.288,9.491,-0.719,29.326,-5.865,-35.191
1.27,0.862,9.436,-0.671,-35.191,-0.527,9.245,0.575,-41.056,-0.288,9.347,-0.575,35.191,-5.865,-35.191
1.2750000000000001,0.958,9.388,-0.575,-35.191,-0.575,9.149,0.575,-35.191,-0.288,9.203,-0.719,35.191,-5.865,-35.191
1.28,0.958,9.197,-0.479,-41.056,-0.623,9.245,0.527,-35.191,-0.431,9.347,-0.575,35.191,-5.865,-35.191
1.285,0.862,9.101,-0.575,-35.191,-0.719,9.197,0.431,-41.056,-0.431,9.347,-0.575,41.056,-5.865,-35.191
1.29,1.054,8.909,-0.623,-35.191,-0.575,9.053,0.479,-35.191,-0.288,9.347,-0.431,41.056,-5.865,-41.056
1.295,1.15,8.67,-0.671,-41.056,-0.671,8.957,0.527,-41.056,-0.431,9.203,-0.575,41.056,-5.865,-35.191
1.3,1.198,8.526,-0.671,-41.056,-0.814,8.862,0.575,-41.056,-0.575,9.203,-0.575,41.056,-5.865,-41.056
1.305,1.245,8.383,-0.623,-41.056,-0.814,8.67,0.575,-41.056,-0.575,9.059,-0.719,35.191,-5.865,-41.056
1.31,1.293,8.047,-0.623,-41.056,-0.91,8.478,0.575,-41.056,-0.575,8.916,-0.719,35.191,-5.865,-41.056
1.315,1.15,7.808,-0.719,-41.056,-0.958,8.287,0.575,-41.056,-0.719,8.772,-0.575,35.191,-5.865,-41.056
1.32,1.198,7.712,-0.719,-46.921,-0.862,8.047,0.623,-41.056,-0.719,8.484,-0.719,29.326,-5.865,-41.056
1.325,1.437,7.664,-0.671,-46.921,-0.862,7.904,0.671,-46.921,-0.719,8.34,-0.719,29.326,-5.865,-41.056
1.33,1.485,7.664,-0.671,-46.921,-1.006,7.856,0.623,-46.921,-0.719,8.34,-0.719,29.326,-5.865,-41.056
1.335,1.389,7.616,-0.575,-46.921,-1.102,7.808,0.623,-46.921,-0.719,8.197,-0.719,23.46,-5.865,-41.056
1.34,1.389,7.425,-0.431,-46.921,-1.102,7.76,0.623,-46.921,-0.863,8.197,-0.719,17.595,-5.865,-41.056
1.345,1.293,7.281,-0.383,-46.921,-1.15,7.616,0.431,-46.921,-1.007,8.053,-0.575,17.595,-5.865,-46.921
1.35,1.389,7.185,-0.383,-52.786,-1.102,7.425,0.383,-46.921,-1.007,7.909,-0.431,5.865,-5.865,-46.921
1.355,1.629,7.041,-0.335,-52.786,-1.15,7.233,0.383,-52.786,-1.007,7.621,-0.431,5.865,-5.865,-46.921
1.36,1.772,7.041,-0.431,-52.786,-1.293,6.946,0.335,-52.786,-1.15,7.19,-0.431,5.865,-11.73,-52.786
1.365,1.868,6.85,-0.479,-58.651,-1.437,6.658,0.383,-52.786,-1.294,6.759,-0.431,5.865,-11.73,-52.786
1.37,1.916,6.275,-0.719,-64.516,-1.533,6.419,0.431,-58.651,-1.294,6.471,-0.431,5.865,-11.73,-52.786
1.375,1.677,4.934,-1.341,-64.516,-1.485,6.035,0.575,-58.651,-1.294,6.04,-0.575,5.865,-11.73,-58.651
1.3800000000000001,1.964,3.449,-1.916,-64.516,-1.341,5.173,1.054,-64.516,-1.15,5.464,-0.863,17.595,-11.73,-58.651
1.385,2.491,2.347,-2.108,-64.516,-1.389,4.072,1.724,-64.516,-1.15,4.602,-1.582,23.46,-11.73,-64.516
1.3900000000000001,2.826,1.341,-2.395,-52.786,-1.677,3.114,2.012,-64.516,-1.294,3.883,-2.013,23.46,-11.73,-64.516
1.395,3.018,0.91,-2.395,-41.056,-2.108,2.06,2.156,-58.651,-1.582,2.876,-2.157,23.46,-11.73,-58.651
1.4000000000000001,3.209,0.527,-2.347,-29.326,-2.156,1.341,2.395,-46.921,-1.582,1.869,-2.445,17.595,-5.865,-46.921
1.405,2.874,-0.431,-2.299,-17.595,-2.347,0.719,2.251,-29.326,-1.869,1.007,-2.445,5.865,0.0,-35.191
1.41,2.587,-1.581,-2.251,-5.865,-2.347,0.048,2.251,-23.46,-1.869,0.431,-2.445,5.865,5.865,-23.46
1.415,2.682,-2.587,-2.156,5.865,-2.108,-0.719,2.299,-11.73,-1.869,-0.288,-2.445,5.865,11.73,-11.73
1.42,2.922,-3.305,-2.108,23.46,-2.108,-1.629,2.203,5.865,-1.869,-0.863,-2.301,5.865,17.595,0.0
1.425,3.066,-4.072,-2.156,46.921,-2.156,-2.539,2.156,17.595,-1.869,-2.013,-2.301,5.865,17.595,17.595
1.43,3.161,-4.934,-2.203,70.381,-2.299,-3.305,2.108,41.056,-1.869,-2.876,-2.157,0.0,23.46,35.191
1.435,3.545,-5.652,-2.443,93.842,-2.299,-4.024,2.156,58.651,-1.869,-3.595,-2.301,0.0,29.326,58.651
1.44,3.114,-6.083,-2.826,123.167,-2.251,-4.694,2.251,82.111,-1.582,-4.17,-2.301,-5.865,35.191,82.111
1.445,2.012,-5.988,-3.066,152.493,-2.108,-5.077,2.587,105.572,-1.438,-4.745,-2.588,-5.865,41.056,99.707
1.45,0.91,-3.928,-3.066,181.818,-1.389,-4.886,2.922,134.897,-0.863,-4.458,-3.02,-11.73,52.786,129.032
1.455,0.192,-0.383,-2.587,205.279,-0.431,-3.497,2.97,164.223,0.0,-3.307,-3.164,-17.595,64.516,158.358
1.46,-0.383,3.114,-2.012,222.874,0.431,-0.623,2.682,193.548,0.863,-1.007,-2.876,-29.326,70.381,187.683
1.465,15.184,-7.233,5.365,193.548,0.766,2.874,1.964,217.009,1.438,2.588,-2.157,-35.191,82.111,211.144
1.47,-13.316,12.119,11.257,82.111,-1.629,19.831,-9.82,228.739,1.438,6.04,-1.869,-46.921,87.977,228.739
1.475,-18.202,24.142,2.395,23.46,2.539,19.591,-2.73,140.762,-3.164,21.714,1.294,46.921,105.572,181.818
1.48,0.0,24.285,-3.64,-46.921,6.562,24.046,-9.867,70.381,7.19,72.044,16.537,52.786,111.437,93.842
1.485,4.838,19.304,10.49,-64.516,9.005,24.046,3.784,-23.46,2.301,14.38,2.013,-252.199,11.73,-46.921
1.49,1.245,12.454,7.904,-87.977,4.119,10.059,-8.766,-64.516,15.962,0.431,4.889,-416.422,-82.111,-93.842
1.495,-1.293,16.238,1.772,-99.707,-3.497,9.82,-10.538,-76.246,-0.863,5.033,12.367,-392.962,-35.191,-76.246
1.5,-2.443,11.304,-2.06,-52.786,0.91,12.071,-4.79,-99.707,-2.157,8.916,7.046,-310.85,-5.865,-93.842
1.5050000000000001,0.287,12.933,-0.766,29.326,3.401,7.52,1.102,-76.246,4.602,2.732,0.575,-269.795,-11.73,-93.842
1.51,0.527,18.489,-0.91,82.111,0.91,7.904,1.293,-5.865,1.869,2.732,-1.869,-205.279,-5.865,-23.46
1.5150000000000001,0.575,20.597,-4.311,111.437,-0.91,12.071,0.383,64.516,-0.719,6.902,-0.431,-140.762,-5.865,46.921
1.52,1.533,20.98,-6.083,129.032,-0.623,15.759,2.73,99.707,-1.007,10.929,-1.726,-93.842,-5.865,93.842
1.5250000000000001,2.299,20.741,-4.215,134.897,-0.048,16.621,5.604,123.167,0.144,13.086,-5.177,-41.056,-11.73,117.302
1.53,0.814,19.639,-2.97,123.167,-0.862,16.43,4.886,129.032,0.575,13.23,-5.752,5.865,-11.73,129.032
1.5350000000000001,-0.91,17.1,-2.587,105.572,-0.91,16.382,2.97,129.032,-0.431,13.373,-3.451,58.651,-5.865,134.897
1.54,0.0,15.041,-2.587,76.246,0.431,15.759,2.491,111.437,0.0,14.38,-2.588,105.572,0.0,123.167
1.545,1.054,14.083,-2.97,52.786,0.527,14.849,2.299,87.977,0.575,14.668,-2.157,134.897,0.0,99.707
1.55,1.006,13.364,-3.545,35.191,-0.192,14.657,2.443,58.651,0.431,15.099,-2.301,152.493,-5.865,70.381
1.555,1.006,12.789,-3.784,29.326,-0.335,14.61,2.922,41.056,0.144,15.674,-2.732,152.493,-11.73,46.921
1.56,1.437,12.215,-3.545,11.73,-0.144,14.562,3.449,29.326,0.431,16.249,-3.307,146.628,-11.73,35.191
1.565,1.341,11.257,-3.114,-11.73,-0.383,14.274,3.401,17.595,0.431,16.537,-3.451,129.032,-5.865,23.46
1.57,0.91,10.203,-2.778,-35.191,-0.479,13.652,3.018,-5.865,0.288,16.106,-3.164,111.437,-5.865,5.865
1.575,0.814,9.772,-2.251,-41.056,-0.24,12.789,2.682,-29.326,0.431,15.387,-2.732,87.977,0.0,-17.595
1.58,0.958,9.915,-1.677,-46.921,-0.048,12.119,2.299,-41.056,0.575,14.524,-2.445,58.651,5.865,-35.191
1.585,0.719,10.203,-0.958,-52.786,-0.24,11.688,1.724,-46.921,0.431,13.805,-2.013,29.326,11.73,-41.056
1.59,0.671,10.394,-0.527,-52.786,-0.335,11.496,1.15,-46.921,0.144,13.23,-1.438,5.865,17.595,-46.921
1.595,0.575,10.299,-0.144,-58.651,-0.335,11.352,0.575,-52.786,-0.288,12.798,-0.719,-17.595,17.595,-46.921
1.6,0.479,10.155,-0.096,-52.786,-0.335,11.161,0.192,-52.786,-0.144,12.223,-0.288,-29.326,17.595,-52.786
1.605,0.527,10.155,-0.096,-46.921,-0.24,10.825,0.0,-58.651,-0.144,11.792,-0.0,-46.921,17.595,-58.651
1.61,1.006,10.346,0.048,-46.921,-0.24,10.251,0.048,-52.786,-0.144,10.929,-0.0,-52.786,17.595,-52.786
1.615,1.15,10.538,-0.048,-46.921,-0.527,9.772,-0.048,-46.921,-0.288,9.922,-0.0,-58.651,17.595,-46.921
1.62,1.054,10.251,-0.335,-46.921,-0.766,9.484,-0.096,-46.921,-0.575,9.203,0.144,-58.651,11.73,-46.921
1.625,0.862,9.963,-0.671,-46.921,-0.766,9.149,0.144,-46.921,-0.575,8.484,-0.144,-52.786,11.73,-46.921
1.6300000000000001,0.862,9.772,-0.719,-35.191,-0.623,8.814,0.479,-46.921,-0.575,7.909,-0.431,-41.056,11.73,-46.921
1.635,1.102,9.58,-0.719,-29.326,-0.527,8.622,0.671,-41.056,-0.431,7.765,-0.719,-29.326,11.73,-41.056
1.6400000000000001,1.341,9.388,-0.814,-23.46,-0.671,8.478,0.671,-35.191,-0.431,7.621,-0.719,-11.73,5.865,-35.191
1.645,1.245,9.293,-0.958,-17.595,-0.814,8.335,0.671,-29.326,-0.575,7.478,-0.719,0.0,11.73,-23.46
1.6500000000000001,1.15,9.245,-1.006,-11.73,-0.814,8.43,0.862,-17.595,-0.575,7.621,-0.863,5.865,5.865,-17.595
1.655,1.102,9.101,-1.102,-5.865,-0.719,8.766,0.958,-11.73,-0.431,8.34,-1.007,29.326,11.73,-11.73
1.6600000000000001,1.006,9.053,-1.102,-0.0,-0.671,9.053,1.006,-5.865,-0.431,8.916,-1.007,35.191,11.73,-5.865
1.665,0.958,9.293,-1.006,-0.0,-0.671,9.149,1.054,0.0,-0.431,9.347,-1.007,41.056,11.73,0.0
1.67,0.958,9.484,-0.91,-0.0,-0.623,9.341,1.006,0.0,-0.431,9.635,-1.007,41.056,11.73,0.0
1.675,0.91,9.532,-0.862,-5.865,-0.623,9.676,0.862,0.0,-0.431,10.066,-1.007,41.056,11.73,5.865
1.68,0.91,9.388,-0.862,-5.865,-0.575,9.867,0.814,0.0,-0.431,10.354,-0.863,35.191,11.73,0.0
1.685,0.814,9.245,-0.862,-11.73,-0.527,9.82,0.766,-5.865,-0.288,10.497,-0.863,29.326,11.73,0.0
1.69,0.766,9.388,-0.766,-11.73,-0.527,9.676,0.766,-5.865,-0.288,10.354,-0.863,23.46,11.73,-5.865
1.695,0.814,9.388,-0.623,-17.595,-0.479,9.628,0.719,-5.865,-0.288,10.21,-0.863,23.46,11.73,-5.865
1.7,0.814,9.484,-0.527,-17.595,-0.479,9.724,0.623,-11.73,-0.288,10.21,-0.719,5.865,11.73,-5.865
1.705,0.719,9.484,-0.575,-11.73,-0.527,9.628,0.527,-17.595,-0.431,10.066,-0.575,5.865,11.73,-11.73
1.71,0.814,9.341,-0.335,-11.73,-0.335,9.484,0.479,-11.73,-0.144,9.778,-0.575,5.865,11.73,-11.73
1.715,0.671,9.436,-0.335,-11.73,-0.479,9.293,0.383,-11.73,-0.288,9.491,-0.431,5.865,5.865,-11.73
1.72,0.671,9.484,-0.383,-5.865,-0.431,9.101,0.24,-11.73,-0.431,9.203,-0.288,5.865,5.865,-11.73
1.725,0.862,9.341,-0.383,-5.865,-0.24,9.053,0.335,-11.73,-0.144,8.916,-0.431,5.865,5.865,-5.865
1.73,0.814,9.293,-0.431,-0.0,-0.479,9.101,0.335,-5.865,-0.288,8.916,-0.431,5.865,5.865,-5.865
1.735,0.766,9.436,-0.431,5.865,-0.431,9.101,0.335,0.0,-0.288,9.059,-0.431,5.865,5.865,0.0
1.74,0.814,9.628,-0.383,5.865,-0.431,9.149,0.383,0.0,-0.288,9.203,-0.431,17.595,5.865,5.865
1.745,0.766,9.724,-0.287,5.865,-0.431,9.341,0.335,5.865,-0.144,9.347,-0.431,17.595,5.865,5.865
1.75,0.623,9.724,-0.287,-0.0,-0.479,9.628,0.287,5.865,-0.288,9.635,-0.288,23.46,5.865,5.865
1.7550000000000001,0.527,9.724,-0.287,5.865,-0.383,9.724,0.24,5.865,-0.288,9.922,-0.288,23.46,5.865,5.865
1.76,0.719,9.82,-0.24,5.865,-0.287,9.724,0.24,5.865,-0.288,10.066,-0.288,23.46,5.865,5.865
1.7650000000000001,0.814,9.724,-0.383,-0.0,-0.431,9.724,0.192,5.865,-0.288,10.066,-0.288,23.46,5.865,5.865
1.77,0.814,9.436,-0.575,-5.865,-0.527,9.772,0.24,0.0,-0.431,10.066,-0.288,17.595,0.0,5.865
1.7750000000000001,0.91,9.197,-0.719,-5.865,-0.527,9.628,0.431,0.0,-0.431,9.922,-0.431,17.595,0.0,0.0
1.78,0.958,8.909,-0.766,-5.865,-0.527,9.436,0.623,-5.865,-0.288,9.922,-0.575,17.595,0.0,0.0
1.7850000000000001,1.006,8.814,-0.814,-5.865,-0.623,9.197,0.671,-5.865,-0.288,9.635,-0.719,5.865,0.0,-5.865
1.79,1.006,8.862,-0.814,-5.865,-0.575,8.957,0.766,-5.865,-0.288,9.491,-0.719,5.865,0.0,-5.865
1.795,1.054,9.005,-0.814,-5.865,-0.575,8.814,0.766,-5.865,-0.288,9.059,-0.863,5.865,0.0,0.0
1.8,1.054,9.197,-0.862,-5.865,-0.623,8.909,0.766,-5.865,-0.288,9.059,-0.863,5.865,0.0,0.0
1.805,1.006,9.293,-0.862,-5.865,-0.623,9.101,0.814,-5.865,-0.431,9.203,-0.863,5.865,0.0,0.0
1.81,0.958,9.293,-0.814,-5.865,-0.671,9.197,0.814,-5.865,-0.431,9.347,-0.863,5.865,0.0,0.0
1.815,0.91,9.245,-0.814,-5.865,-0.623,9.197,0.766,-5.865,-0.431,9.347,-0.863,5.865,0.0,0.0
1.82,0.91,9.245,-0.766,-5.865,-0.575,9.149,0.766,-5.865,-0.431,9.347,-0.863,5.865,0.0,0.0
1.825,0.862,9.245,-0.766,-5.865,-0.527,9.101,0.766,-5.865,-0.431,9.203,-0.863,5.865,0.0,0.0
1.83,0.814,9.197,-0.814,-5.865,-0.575,9.101,0.719,-5.865,-0.431,9.203,-0.863,5.865,0.0,0.0
1.835,0.862,9.197,-0.814,-5.865,-0.527,9.149,0.719,0.0,-0.431,9.347,-0.719,5.865,0.0,0.0
1.84,0.862,9.197,-0.814,-5.865,-0.527,9.197,0.766,-5.865,-0.431,9.347,-0.863,5.865,0.0,0.0
1.845,0.91,9.293,-0.814,-0.0,-0.527,9.197,0.766,0.0,-0.288,9.491,-0.863,5.865,0.0,0.0
1.85,0.91,9.341,-0.862,-0.0,-0.527,9.245,0.766,0.0,-0.288,9.491,-0.863,5.865,0.0,0.0
1.855,0.91,9.341,-0.91,-0.0,-0.575,9.293,0.766,0.0,-0.431,9.491,-0.863,5.865,0.0,5.865
1.86,0.958,9.484,-0.958,-0.0,-0.575,9.388,0.862,0.0,-0.431,9.635,-0.863,5.865,0.0,0.0
1.865,1.006,9.628,-0.958,-0.0,-0.575,9.436,0.91,0.0,-0.431,9.635,-1.007,5.865,0.0,0.0
1.87,1.006,9.676,-0.958,-5.865,-0.575,9.628,0.91,0.0,-0.288,9.922,-1.007,5.865,0.0,0.0
1.875,1.006,9.58,-1.006,-5.865,-0.623,9.724,0.91,0.0,-0.288,10.066,-1.007,5.865,0.0,0.0
1.8800000000000001,0.91,9.388,-1.054,-5.865,-0.623,9.772,0.91,0.0,-0.431,10.21,-1.007,0.0,0.0,0.0
1.885,1.006,9.197,-1.102,-11.73,-0.575,9.628,0.958,-5.865,-0.431,10.066,-1.007,0.0,0.0,0.0
1.8900000000000001,1.15,9.245,-1.102,-11.73,-0.575,9.436,1.006,-5.865,-0.431,9.922,-1.007,0.0,0.0,0.0
1.895,1.054,9.293,-1.198,-5.865,-0.671,9.293,1.006,-5.865,-0.431,9.635,-1.007,-5.865,0.0,-5.865
1.9000000000000001,1.102,9.484,-1.054,-5.865,-0.623,9.197,1.102,-5.865,-0.431,9.491,-1.15,-5.865,0.0,-5.865
1.905,1.102,9.532,-1.15,-5.865,-0.623,9.245,1.006,-5.865,-0.431,9.347,-1.15,-5.865,0.0,-5.865
1.9100000000000001,1.102,9.58,-1.102,-0.0,-0.671,9.245,1.006,-5.865,-0.431,9.347,-1.007,-5.865,0.0,0.0
1.915,1.006,9.628,-1.102,-5.865,-0.671,9.293,1.054,-5.865,-0.431,9.347,-1.15,-5.865,0.0,0.0
1.92,1.006,9.676,-1.102,-0.0,-0.671,9.341,1.006,0.0,-0.431,9.347,-1.15,-5.865,0.0,0.0
1.925,1.054,9.724,-1.054,-0.0,-0.623,9.341,1.054,0.0,-0.431,9.347,-1.007,0.0,0.0,0.0
1.93,1.006,9.724,-1.054,-0.0,-0.671,9.388,1.006,0.0,-0.431,9.347,-1.007,0.0,0.0,5.865
1.935,0.958,9.724,-1.006,5.865,-0.623,9.388,1.006,5.865,-0.431,9.347,-1.007,5.865,0.0,5.865
1.94,1.006,9.724,-0.958,5.865,-0.575,9.436,1.006,5.865,-0.431,9.347,-1.007,5.865,0.0,5.865
1.945,1.006,9.628,-0.91,5.865,-0.575,9.532,0.91,5.865,-0.431,9.491,-1.007,5.865,0.0,5.865
1.95,0.91,9.628,-0.91,5.865,-0.623,9.532,0.862,5.865,-0.431,9.635,-1.007,5.865,0.0,5.865
1.955,0.958,9.628,-0.91,5.865,-0.575,9.532,0.862,5.865,-0.431,9.635,-0.863,5.865,0.0,5.865
1.96,0.958,9.58,-0.91,5.865,-0.527,9.58,0.862,5.865,-0.288,9.778,-0.863,5.865,0.0,5.865
1.965,0.91,9.676,-0.958,-0.0,-0.527,9.628,0.862,5.865,-0.288,9.778,-0.863,5.865,0.0,5.865
1.97,0.91,9.676,-0.91,-0.0,-0.527,9.676,0.862,0.0,-0.288,9.922,-0.863,5.865,0.0,5.865
1.975,0.862,9.58,-0.958,-0.0,-0.479,9.82,0.862,0.0,-0.288,10.066,-0.863,5.865,0.0,5.865
1.98,0.862,9.484,-0.958,-0.0,-0.479,9.867,0.862,0.0,-0.288,10.21,-0.863,5.865,0.0,5.865
1.985,0.862,9.436,-0.958,-5.865,-0.479,9.82,0.91,0.0,-0.288,10.354,-0.863,5.865,5.865,0.0
1.99,0.862,9.388,-0.862,-0.0,-0.479,9.724,0.91,0.0,-0.288,10.21,-0.863,5.865,0.0,0.0
1.995,0.814,9.484,-0.719,-0.0,-0.479,9.628,0.814,0.0,-0.288,10.066,-0.863,0.0,5.865,0.0
2.0,0.814,9.58,-0.719,-0.0,-0.527,9.532,0.719,0.0,-0.288,9.922,-0.719,0.0,5.865,0.0
2.005,0.862,9.676,-0.671,-0.0,-0.479,9.484,0.671,0.0,-0.288,9.778,-0.719,-5.865,5.865,0.0
2.0100000000000002,0.958,9.676,-0.671,-0.0,-0.527,9.484,0.623,0.0,-0.288,9.635,-0.719,-5.865,0.0,0.0
2.015,1.006,9.676,-0.671,-0.0,-0.575,9.484,0.623,0.0,-0.431,9.635,-0.719,-5.865,0.0,0.0
2.02,1.006,9.532,-0.719,-0.0,-0.623,9.388,0.623,0.0,-0.431,9.491,-0.719,-5.865,0.0,5.865
2.025,0.958,9.436,-0.719,-0.0,-0.623,9.293,0.623,0.0,-0.431,9.347,-0.719,-5.865,0.0,5.865
2.0300000000000002,1.054,9.532,-0.719,-0.0,-0.623,9.293,0.671,0.0,-0.431,9.347,-0.719,0.0,0.0,5.865
2.035,1.006,9.676,-0.719,5.865,-0.575,9.245,0.623,5.865,-0.431,9.347,-0.719,0.0,0.0,5.865
2.04,1.102,9.676,-0.719,5.865,-0.575,9.484,0.671,5.865,-0.288,9.491,-0.719,5.865,0.0,5.865
2.045,0.91,9.676,-0.814,5.865,-0.719,9.676,0.623,5.865,-0.575,9.778,-0.719,5.865,0.0,5.865
2.05,0.91,9.724,-0.862,5.865,-0.527,9.724,0.719,5.865,-0.288,9.922,-0.719,5.865,0.0,5.865
2.055,0.91,9.82,-0.91,5.865,-0.527,9.676,0.766,5.865,-0.288,9.922,-0.719,5.865,0.0,5.865
2.06,0.958,9.867,-0.958,5.865,-0.527,9.82,0.814,5.865,-0.288,10.066,-0.863,5.865,0.0,11.73
2.065,0.91,10.059,-1.006,5.865,-0.575,9.963,0.862,5.865,-0.431,10.21,-0.863,5.865,0.0,5.865
2.07,0.958,10.203,-1.006,-0.0,-0.479,10.059,0.91,5.865,-0.288,10.354,-1.007,0.0,0.0,5.865
2.075,0.91,10.251,-1.054,-0.0,-0.527,10.107,0.958,5.865,-0.288,10.354,-1.007,0.0,0.0,5.865
2.08,0.814,10.346,-1.15,-0.0,-0.527,10.155,0.958,0.0,-0.288,10.354,-1.007,0.0,0.0,5.865
2.085,0.958,10.394,-1.15,-0.0,-0.431,10.203,1.054,0.0,-0.288,10.354,-1.15,-5.865,0.0,0.0
2.09,1.006,10.394,-1.198,-0.0,-0.527,10.107,1.102,0.0,-0.288,10.21,-1.15,-5.865,5.865,0.0
2.095,1.006,10.346,-1.245,-0.0,-0.575,10.059,1.102,0.0,-0.288,10.066,-1.15,0.0,0.0,5.865
2.1,1.006,10.155,-1.293,-5.865,-0.623,10.011,1.15,0.0,-0.431,9.922,-1.15,0.0,0.0,0.0
2.105,1.006,9.963,-1.293,-0.0,-0.575,9.963,1.15,0.0,-0.288,9.922,-1.15,5.865,0.0,0.0
2.11,1.054,9.82,-1.245,-0.0,-0.575,9.867,1.198,-5.865,-0.288,9.922,-1.294,5.865,0.0,0.0
2.115,1.054,9.724,-1.15,-0.0,-0.575,9.772,1.198,0.0,-0.288,9.922,-1.294,5.865,5.865,0.0
2.12,1.006,9.628,-1.102,-0.0,-0.575,9.724,1.102,0.0,-0.288,9.922,-1.15,5.865,5.865,0.0
2.125,1.006,9.676,-1.006,-0.0,-0.575,9.628,1.054,0.0,-0.288,9.922,-1.15,5.865,5.865,5.865
2.13,1.006,9.724,-0.862,-0.0,-0.527,9.628,1.006,0.0,-0.288,9.778,-1.007,5.865,5.865,5.865
2.1350000000000002,0.91,9.724,-0.814,-0.0,-0.575,9.628,0.862,0.0,-0.288,9.922,-1.007,5.865,5.865,5.865
2.14,0.766,9.772,-0.862,-0.0,-0.575,9.724,0.719,5.865,-0.431,9.922,-0.863,5.865,5.865,5.865
2.145,0.766,9.82,-0.958,-0.0,-0.479,9.772,0.766,0.0,-0.288,10.066,-0.719,5.865,5.865,5.865
2.15,0.91,9.82,-1.15,-0.0,-0.479,9.867,0.862,0.0,-0.288,10.21,-0.863,5.865,5.865,5.865
2.1550000000000002,1.006,9.772,-1.485,-0.0,-0.479,9.915,1.006,0.0,-0.288,10.21,-1.007,5.865,5.865,0.0
2.16,1.15,9.58,-1.772,-0.0,-0.527,9.867,1.245,0.0,-0.288,10.21,-1.294,5.865,5.865,0.0
2.165,1.245,9.436,-2.06,-5.865,-0.575,9.82,1.581,0.0,-0.288,10.21,-1.582,0.0,5.865,0.0
2.17,1.341,9.388,-2.251,-5.865,-0.623,9.724,1.868,0.0,-0.288,10.21,-1.869,0.0,5.865,0.0
2.1750000000000003,1.389,9.245,-2.395,-5.865,-0.719,9.58,2.06,-5.865,-0.288,10.066,-2.013,-5.865,11.73,0.0
2.18,1.437,9.053,-2.539,-5.865,-0.766,9.436,2.203,0.0,-0.288,9.922,-2.157,-5.865,11.73,0.0
2.185,1.485,8.909,-2.682,-0.0,-0.766,9.293,2.347,-5.865,-0.288,9.635,-2.301,-5.865,17.595,0.0
2.19,1.581,8.957,-2.682,-0.0,-0.766,9.101,2.491,0.0,-0.288,9.491,-2.588,-11.73,17.595,0.0
2.195,1.629,9.005,-2.587,-0.0,-0.814,9.053,2.539,0.0,-0.288,9.347,-2.588,-11.73,23.46,0.0
2.2,1.581,9.149,-2.395,-0.0,-0.814,9.005,2.491,0.0,-0.288,9.347,-2.588,-17.595,23.46,5.865
2.205,1.389,9.245,-2.06,5.865,-0.814,9.053,2.299,0.0,-0.288,9.203,-2.445,-17.595,29.326,5.865
2.21,1.198,9.484,-1.629,5.865,-0.766,9.101,2.06,5.865,-0.288,9.203,-2.301,-17.595,35.191,5.865
2.215,0.91,9.724,-0.958,5.865,-0.671,9.245,1.724,5.865,-0.288,9.347,-1.869,-17.595,41.056,5.865
2.22,0.623,9.82,-0.192,11.73,-0.575,9.388,1.15,11.73,-0.288,9.347,-1.438,-17.595,41.056,11.73
2.225,0.383,9.915,0.383,5.865,-0.479,9.484,0.431,11.73,-0.288,9.491,-0.719,-17.595,46.921,11.73
2.23,0.192,9.867,0.958,5.865,-0.335,9.58,-0.192,11.73,-0.288,9.491,-0.0,-11.73,46.921,11.73
2.235,0.0,9.772,1.389,5.865,-0.24,9.58,-0.719,11.73,-0.288,9.491,0.575,-11.73,46.921,11.73
2.24,-0.24,9.772,1.772,5.865,-0.144,9.484,-1.245,5.865,-0.288,9.491,1.15,-5.865,41.056,11.73
2.245,-0.24,9.867,2.108,5.865,0.0,9.388,-1.629,5.865,-0.288,9.347,1.582,-5.865,35.191,5.865
2.25,-0.192,10.011,2.395,-0.0,0.096,9.436,-1.964,5.865,-0.144,9.347,1.869,0.0,29.326,5.865
2.255,-0.144,10.011,2.587,-0.0,0.0,9.436,-2.251,5.865,-0.288,9.347,2.301,0.0,23.46,5.865
2.2600000000000002,-0.096,9.867,2.682,-0.0,-0.048,9.436,-2.491,5.865,-0.288,9.203,2.445,5.865,17.595,5.865
2.265,-0.096,9.724,2.73,-0.0,-0.048,9.388,-2.635,0.0,-0.288,9.203,2.588,5.865,11.73,5.865
2.27,-0.192,9.484,2.682,-5.865,-0.048,9.341,-2.682,0.0,-0.288,9.203,2.732,17.595,5.865,5.865
2.275,-0.335,9.053,2.443,-5.865,0.0,9.197,-2.682,0.0,-0.144,9.203,2.732,23.46,0.0,0.0
2.2800000000000002,-0.335,8.574,2.012,-5.865,0.144,9.005,-2.539,-5.865,-0.144,9.059,2.732,23.46,-5.865,0.0
2.285,-0.096,8.383,1.533,-5.865,0.192,8.718,-2.203,-5.865,0.0,8.916,2.445,29.326,-11.73,0.0
2.29,0.287,8.43,1.006,-5.865,0.192,8.526,-1.724,-5.865,0.0,8.772,1.869,29.326,-17.595,0.0
2.295,0.527,8.574,0.383,-0.0,0.0,8.478,-1.245,0.0,0.0,8.772,1.438,29.326,-23.46,0.0
2.3000000000000003,0.671,8.718,-0.24,-0.0,-0.144,8.574,-0.671,0.0,0.0,8.772,0.863,29.326,-29.326,0.0
2.305,0.766,8.862,-0.958,5.865,-0.192,8.766,-0.096,0.0,0.0,8.916,0.288,29.326,-29.326,5.865
2.31,0.814,8.957,-1.868,5.865,-0.24,9.005,0.575,5.865,0.0,9.203,-0.288,23.46,-29.326,5.865
2.315,1.15,9.005,-2.73,5.865,-0.192,9.341,1.341,5.865,0.288,9.778,-1.15,23.46,-29.326,11.73
2.32,1.533,9.197,-3.593,11.73,-0.287,9.772,2.251,11.73,0.288,10.354,-2.013,23.46,-29.326,11.73
2.325,1.82,9.436,-4.455,11.73,-0.431,10.059,3.066,11.73,0.288,10.929,-2.876,5.865,-23.46,11.73
2.33,2.06,9.58,-5.221,11.73,-0.575,10.251,3.88,11.73,0.288,11.216,-3.739,0.0,-17.595,11.73
2.335,2.108,9.82,-5.7,11.73,-0.671,10.394,4.646,11.73,0.431,11.36,-4.602,-5.865,-11.73,17.595
2.34,2.108,10.251,-5.748,11.73,-0.766,10.49,5.221,11.73,0.431,11.504,-5.177,-17.595,0.0,11.73
2.345,2.012,10.873,-5.509,11.73,-0.814,10.778,5.461,11.73,0.144,11.648,-5.608,-29.326,5.865,11.73
2.35,1.724,11.496,-4.982,11.73,-0.814,11.065,5.365,11.73,0.144,11.648,-5.608,-41.056,23.46,11.73
2.355,1.341,11.879,-4.263,5.865,-0.766,11.257,4.934,11.73,0.0,11.648,-5.177,-46.921,29.326,11.73
2.36,1.054,11.879,-3.449,5.865,-0.719,11.448,4.359,11.73,-0.144,11.504,-4.602,-46.921,41.056,11.73
2.365,0.719,11.879,-2.73,-0.0,-0.671,11.4,3.593,5.865,-0.288,11.36,-3.883,-46.921,46.921,5.865
2.37,0.719,11.688,-2.06,-0.0,-0.479,11.161,2.874,5.865,-0.288,11.073,-3.164,-46.921,46.921,5.865
2.375,0.719,11.4,-1.485,-5.865,-0.479,10.873,2.203,0.0,-0.431,10.641,-2.445,-41.056,46.921,5.865
2.38,0.479,11.017,-0.958,-5.865,-0.479,10.586,1.724,-5.865,-0.431,10.21,-1.869,-35.191,46.921,0.0
2.3850000000000002,0.335,10.73,-0.383,-5.865,-0.479,10.203,1.102,-5.865,-0.431,9.635,-1.294,-23.46,46.921,0.0
2.39,0.24,10.299,0.24,-0.0,-0.24,9.915,0.575,-5.865,-0.288,9.491,-0.863,-17.595,41.056,0.0
2.395,0.287,10.346,0.719,-0.0,-0.287,9.628,0.0,0.0,-0.575,9.347,-0.288,-5.865,41.056,0.0
2.4,0.287,10.203,1.15,-0.0,-0.24,9.532,-0.527,0.0,-0.431,9.059,0.431,5.865,35.191,0.0
2.4050000000000002,0.192,10.011,1.437,-0.0,-0.24,9.532,-1.006,0.0,-0.288,8.916,0.863,5.865,29.326,0.0
2.41,0.096,9.724,1.533,-0.0,-0.24,9.58,-1.341,0.0,-0.431,9.203,1.294,23.46,29.326,5.865
2.415,0.144,9.484,1.581,5.865,-0.192,9.58,-1.485,5.865,-0.288,9.491,1.582,29.326,23.46,5.865
2.42,0.24,9.197,1.629,5.865,-0.144,9.532,-1.581,5.865,-0.288,9.635,1.582,35.191,17.595,5.865
2.4250000000000003,0.144,9.053,1.533,-0.0,-0.192,9.436,-1.629,5.865,-0.288,9.778,1.582,35.191,11.73,5.865
2.43,0.144,8.957,1.485,-0.0,-0.144,9.293,-1.581,5.865,-0.288,9.778,1.726,35.191,5.865,5.865
2.435,0.144,9.005,1.389,5.865,-0.096,9.245,-1.485,5.865,-0.144,9.635,1.582,35.191,5.865,5.865
2.44,0.096,9.005,1.198,-0.0,-0.048,9.245,-1.437,5.865,0.0,9.635,1.582,29.326,0.0,5.865
2.445,0.096,9.053,0.862,-0.0,0.0,9.293,-1.293,5.865,0.0,9.778,1.438,23.46,0.0,5.865
2.45,0.287,9.101,0.383,-0.0,0.096,9.341,-1.054,0.0,0.144,9.922,1.15,23.46,-5.865,5.865
2.455,0.479,9.149,-0.096,-0.0,0.048,9.388,-0.623,0.0,0.144,9.922,0.719,17.595,-11.73,5.865
2.46,0.527,9.053,-0.575,-0.0,-0.048,9.484,-0.144,0.0,0.144,9.922,0.288,5.865,-11.73,5.865
2.465,0.623,8.957,-1.006,-5.865,-0.096,9.484,0.287,0.0,0.144,10.066,-0.144,5.865,-11.73,0.0
2.47,0.719,9.101,-1.293,-0.0,-0.144,9.388,0.766,0.0,0.144,10.066,-0.575,5.865,-11.73,0.0
2.475,0.814,9.341,-1.485,-0.0,-0.144,9.341,1.102,0.0,0.144,9.922,-1.007,0.0,-11.73,0.0
2.48,0.814,9.628,-1.724,-0.0,-0.24,9.341,1.293,0.0,0.144,9.635,-1.294,-5.865,-11.73,0.0
2.485,0.719,9.915,-1.868,-0.0,-0.24,9.388,1.533,0.0,0.144,9.635,-1.438,-11.73,-5.865,0.0
2.49,0.719,10.251,-1.916,-0.0,-0.144,9.58,1.772,0.0,0.144,9.635,-1.726,-11.73,-5.865,0.0
2.495,0.671,10.634,-1.868,5.865,-0.144,9.772,1.82,0.0,0.288,9.635,-1.869,-11.73,-5.865,0.0
2.5,0.527,11.017,-1.772,5.865,-0.144,10.059,1.772,5.865,0.288,9.778,-1.869,-5.865,0.0,5.865
2.505,0.383,11.448,-1.629,5.865,-0.048,10.346,1.724,5.865,0.288,10.066,-1.869,-5.865,0.0,5.865
2.5100000000000002,0.287,11.736,-1.341,5.865,0.048,10.73,1.581,5.865,0.431,10.354,-1.726,0.0,0.0,5.865
2.515,0.24,11.927,-1.198,5.865,0.096,11.113,1.389,5.865,0.431,10.785,-1.582,5.865,5.865,11.73
2.52,0.287,11.927,-1.102,5.865,0.144,11.448,1.15,5.865,0.431,11.216,-1.294,5.865,5.865,11.73
2.525,0.24,11.927,-1.054,-0.0,0.144,11.64,1.054,5.865,0.431,11.648,-1.15,17.595,5.865,11.73
2.5300000000000002,0.287,11.975,-0.958,-0.0,0.144,11.736,1.006,5.865,0.431,11.792,-1.007,23.46,5.865,5.865
2.535,0.335,12.119,-0.766,-0.0,0.096,11.927,0.91,5.865,0.431,12.079,-1.007,23.46,5.865,5.865
2.54,0.287,12.31,-0.719,-5.865,0.048,12.119,0.719,0.0,0.431,12.367,-0.863,23.46,5.865,5.865
2.545,0.287,12.454,-0.623,-11.73,0.096,12.262,0.623,0.0,0.288,12.511,-0.719,23.46,5.865,0.0
2.5500000000000003,0.335,12.502,-0.527,-11.73,0.096,12.454,0.575,-5.865,0.431,12.798,-0.719,23.46,5.865,0.0
2.555,0.431,12.598,-0.383,-17.595,0.0,12.598,0.479,-11.73,0.288,12.942,-0.575,23.46,5.865,-5.865
2.56,0.335,12.55,-0.287,-17.595,0.0,12.646,0.335,-11.73,0.288,12.942,-0.431,17.595,0.0,-11.73
2.565,0.24,12.406,-0.096,-23.46,0.0,12.55,0.24,-17.595,0.288,12.942,-0.288,5.865,0.0,-17.595
2.57,0.335,12.406,0.048,-23.46,0.048,12.406,0.096,-23.46,0.288,12.654,-0.144,5.865,0.0,-17.595
2.575,0.335,12.454,0.287,-23.46,0.0,12.215,0.0,-23.46,0.144,12.367,-0.0,5.865,0.0,-17.595
2.58,0.24,12.646,0.431,-29.326,-0.048,12.119,-0.24,-23.46,0.144,12.223,0.144,5.865,0.0,-17.595
2.585,0.192,12.646,0.575,-29.326,0.0,12.167,-0.431,-23.46,0.144,12.079,0.431,5.865,0.0,-23.46
2.59,0.192,12.646,0.719,-29.326,0.048,12.262,-0.575,-29.326,0.144,12.223,0.575,17.595,0.0,-23.46
2.595,0.144,12.598,0.814,-29.326,0.048,12.262,-0.719,-29.326,0.144,12.223,0.719,23.46,-5.865,-23.46
2.6,0.144,12.598,0.91,-29.326,0.048,12.215,-0.814,-29.326,0.144,12.223,0.863,23.46,-5.865,-23.46
2.605,0.144,12.55,0.958,-35.191,0.048,12.215,-0.91,-29.326,0.144,12.223,0.863,29.326,-5.865,-23.46
2.61,0.096,12.502,0.91,-35.191,0.0,12.215,-1.006,-29.326,0.0,12.223,1.007,29.326,-11.73,-29.326
2.615,0.144,12.262,0.766,-35.191,0.0,12.215,-1.006,-35.191,0.0,12.223,1.007,35.191,-11.73,-35.191
2.62,0.287,12.023,0.479,-41.056,0.0,12.167,-0.91,-35.191,0.0,12.223,1.007,35.191,-17.595,-35.191
2.625,0.431,11.688,0.144,-46.921,-0.096,11.927,-0.671,-41.056,-0.144,12.223,0.863,41.056,-17.595,-41.056
2.63,0.671,11.352,-0.287,-46.921,-0.144,11.688,-0.383,-41.056,-0.144,11.935,0.431,41.056,-23.46,-41.056
2.6350000000000002,0.862,11.017,-0.623,-52.786,-0.24,11.448,0.048,-46.921,0.0,11.792,0.144,41.056,-23.46,-46.921
2.64,1.054,10.73,-0.958,-52.786,-0.431,11.209,0.383,-52.786,-0.144,11.648,-0.288,41.056,-29.326,-46.921
2.645,1.15,10.538,-1.198,-58.651,-0.527,10.921,0.719,-52.786,-0.144,11.36,-0.719,41.056,-29.326,-52.786
2.65,1.293,10.346,-1.341,-58.651,-0.623,10.682,1.006,-52.786,-0.288,11.216,-1.007,35.191,-29.326,-52.786
2.6550000000000002,1.245,10.107,-1.389,-58.651,-0.719,10.394,1.198,-58.651,-0.288,10.785,-1.15,35.191,-23.46,-58.651
2.66,1.245,9.772,-1.389,-58.651,-0.766,10.155,1.245,-58.651,-0.431,10.497,-1.294,35.191,-23.46,-58.651
2.665,1.293,9.484,-1.437,-64.516,-0.814,9.915,1.293,-58.651,-0.575,10.21,-1.294,29.326,-23.46,-58.651
2.67,1.389,9.293,-1.485,-58.651,-0.862,9.58,1.341,-58.651,-0.575,9.922,-1.438,29.326,-23.46,-58.651
2.6750000000000003,1.485,9.101,-1.437,-58.651,-0.91,9.245,1.389,-58.651,-0.719,9.491,-1.438,29.326,-17.595,-58.651
2.68,1.533,8.909,-1.437,-58.651,-1.006,9.005,1.389,-58.651,-0.719,9.203,-1.438,29.326,-23.46,-58.651
2.685,1.533,8.718,-1.485,-58.651,-1.102,8.766,1.389,-58.651,-0.863,8.916,-1.438,29.326,-17.595,-58.651
2.69,1.677,8.478,-1.485,-58.651,-1.102,8.526,1.389,-58.651,-0.863,8.628,-1.438,29.326,-17.595,-58.651
2.695,1.772,8.191,-1.437,-52.786,-1.15,8.383,1.389,-58.651,-0.863,8.484,-1.438,35.191,-17.595,-58.651
2.7,1.772,7.951,-1.533,-52.786,-1.245,8.191,1.389,-52.786,-1.007,8.34,-1.438,35.191,-17.595,-58.651
2.705,1.868,7.712,-1.629,-52.786,-1.341,7.951,1.437,-52.786,-1.15,8.197,-1.438,35.191,-17.595,-52.786
2.71,1.868,7.568,-1.581,-52.786,-1.389,7.712,1.533,-52.786,-1.15,8.053,-1.582,41.056,-17.595,-52.786
2.715,1.868,7.472,-1.533,-52.786,-1.437,7.568,1.533,-52.786,-1.15,7.765,-1.582,41.056,-11.73,-52.786
2.72,1.964,7.329,-1.533,-46.921,-1.437,7.52,1.485,-46.921,-1.294,7.765,-1.582,41.056,-11.73,-46.921
2.725,2.012,7.281,-1.629,-46.921,-1.485,7.425,1.485,-46.921,-1.294,7.765,-1.582,41.056,-11.73,-46.921
2.73,2.108,7.185,-1.772,-46.921,-1.533,7.329,1.533,-46.921,-1.294,7.621,-1.582,35.191,-11.73,-46.921
2.735,2.203,7.041,-1.82,-46.921,-1.581,7.185,1.629,-46.921,-1.294,7.478,-1.582,35.191,-11.73,-46.921
2.74,2.299,6.993,-1.82,-46.921,-1.677,7.089,1.724,-46.921,-1.438,7.334,-1.869,35.191,-11.73,-46.921
2.745,2.299,6.85,-1.772,-46.921,-1.772,7.041,1.772,-46.921,-1.438,7.334,-1.869,35.191,-11.73,-46.921
2.75,2.347,6.658,-1.629,-46.921,-1.82,6.946,1.724,-46.921,-1.582,7.334,-1.869,29.326,-5.865,-46.921
2.755,2.347,6.371,-1.533,-46.921,-1.82,6.754,1.629,-46.921,-1.582,7.046,-1.726,29.326,-5.865,-46.921
2.7600000000000002,2.251,6.035,-1.485,-46.921,-1.868,6.514,1.533,-46.921,-1.726,6.902,-1.582,29.326,-5.865,-46.921
2.765,2.299,5.796,-1.341,-46.921,-1.868,6.227,1.485,-46.921,-1.726,6.615,-1.582,29.326,-5.865,-46.921
2.77,2.299,5.7,-1.245,-41.056,-1.868,5.94,1.341,-46.921,-1.726,6.327,-1.438,23.46,0.0,-46.921
2.775,2.251,5.604,-1.245,-41.056,-1.868,5.796,1.245,-41.056,-1.726,6.04,-1.294,23.46,0.0,-41.056
2.7800000000000002,2.251,5.461,-1.293,-41.056,-1.868,5.652,1.198,-41.056,-1.726,5.896,-1.294,23.46,0.0,-41.056
2.785,2.347,5.461,-1.15,-41.056,-1.868,5.556,1.245,-41.056,-1.726,5.896,-1.294,23.46,0.0,-41.056
2.79,2.395,5.221,-1.102,-41.056,-1.916,5.509,1.198,-41.056,-1.726,5.896,-1.294,17.595,0.0,-41.056
2.795,2.395,4.79,-1.054,-41.056,-1.964,5.317,1.102,-41.056,-1.726,5.752,-1.15,17.595,0.0,-41.056
2.8000000000000003,2.299,4.119,-1.102,-41.056,-1.964,4.982,1.054,-41.056,-1.726,5.464,-1.15,5.865,0.0,-41.056
2.805,2.395,3.401,-1.15,-41.056,-1.964,4.503,1.054,-41.056,-1.869,5.033,-1.15,5.865,0.0,-41.056
2.81,2.395,2.251,-1.485,-41.056,-1.916,3.928,1.102,-41.056,-1.726,4.602,-1.15,5.865,0.0,-41.056
2.815,2.395,1.629,-1.677,-35.191,-2.06,3.018,1.198,-41.056,-1.726,3.883,-1.15,5.865,0.0,-41.056
2.82,2.73,1.15,-1.82,-29.326,-1.82,2.347,1.629,-35.191,-1.582,3.164,-1.582,5.865,5.865,-41.056
2.825,3.066,0.814,-1.772,-29.326,-2.06,1.772,1.724,-35.191,-1.869,2.588,-1.726,0.0,5.865,-35.191
2.83,3.018,0.479,-1.772,-23.46,-2.203,1.533,1.772,-29.326,-1.869,2.157,-1.869,-5.865,5.865,-23.46
2.835,2.778,-0.192,-1.629,-11.73,-2.251,1.054,1.724,-23.46,-1.869,1.582,-1.726,-11.73,11.73,-23.46
2.84,2.347,-1.437,-1.629,-0.0,-2.251,0.335,1.677,-11.73,-1.869,0.863,-1.726,-17.595,17.595,-11.73
2.845,2.299,-2.682,-1.581,11.73,-1.964,-0.623,1.581,-5.865,-1.869,0.0,-1.726,-23.46,23.46,-5.865
2.85,2.587,-3.497,-1.629,23.46,-1.916,-1.724,1.629,5.865,-1.869,-1.007,-1.726,-23.46,23.46,5.865
2.855,2.874,-4.359,-1.677,46.921,-1.868,-2.682,1.629,17.595,-1.726,-2.013,-1.726,-29.326,29.326,17.595
2.86,3.018,-5.461,-2.06,70.381,-2.06,-3.497,1.629,35.191,-1.726,-3.164,-1.726,-35.191,29.326,35.191
2.865,3.545,-6.61,-2.156,99.707,-1.868,-4.551,1.868,58.651,-1.294,-4.17,-1.869,-35.191,35.191,52.786
2.87,3.257,-7.041,-2.299,123.167,-2.251,-5.7,2.012,87.977,-1.582,-5.321,-2.157,-35.191,41.056,82.111
2.875,2.108,-7.041,-1.868,152.493,-1.964,-6.419,2.156,111.437,-1.007,-6.183,-2.157,-41.056,52.786,105.572
2.88,1.102,-7.041,-1.245,193.548,-1.437,-6.275,1.964,140.762,-0.719,-6.471,-2.157,-41.056,64.516,134.897
2.8850000000000002,0.527,-7.041,-1.198,234.604,-0.479,-5.652,1.389,175.953,0.0,-5.608,-1.726,-41.056,76.246,170.088
2.89,-0.24,-4.694,-2.203,269.795,0.0,-5.365,0.958,211.144,0.431,-4.745,-1.007,-41.056,93.842,205.279
2.895,-2.97,2.203,-3.305,304.985,1.006,-4.551,1.485,252.199,1.294,-4.17,-1.294,-52.786,99.707,246.334
2.9,-4.646,9.628,-1.964,334.311,2.874,-0.383,2.635,287.39,3.595,-2.157,-2.301,-64.516,111.437,281.525
2.9050000000000002,-5.652,16.765,-0.479,340.176,4.598,6.706,2.443,316.715,5.033,3.739,-3.02,-64.516,129.032,310.85
2.91,3.88,9.388,20.645,246.334,4.646,14.035,0.766,334.311,5.033,11.935,-1.15,-58.651,140.762,334.311
2.915,-24.333,24.237,6.562,-82.111,5.317,23.806,-16.669,328.446,7.478,8.916,5.896,-52.786,140.762,334.311
2.92,-7.52,24.285,-3.161,-205.279,5.413,24.046,-15.184,117.302,-13.23,73.626,28.472,76.246,158.358,234.604
2.9250000000000003,4.598,20.07,6.083,-99.707,16.478,24.046,0.192,-193.548,9.203,55.938,4.458,-181.818,46.921,-175.953
2.93,7.377,9.436,5.748,-29.326,7.137,12.837,-5.413,-158.358,19.269,8.484,2.876,-398.827,-117.302,-199.413
2.935,2.682,10.682,0.192,-35.191,-4.024,2.012,-7.568,-52.786,1.869,-4.314,8.053,-375.366,-87.977,-70.381
2.94,-2.826,11.736,-3.784,-17.595,-3.018,2.06,-3.161,-35.191,-3.307,-5.752,4.745,-263.93,-35.191,-23.46
2.945,-1.054,17.627,-3.545,46.921,2.778,7.856,2.539,-29.326,2.732,0.575,-1.438,-170.088,-5.865,-35.191
2.95,-0.24,21.747,-1.533,117.302,1.437,14.945,4.024,17.595,2.013,11.216,-4.026,-93.842,11.73,0.0
2.955,-0.096,24.19,-1.102,152.493,0.096,18.394,2.108,87.977,-0.575,15.962,-2.876,-58.651,17.595,70.381
2.96,0.719,24.237,-1.245,146.628,-0.096,19.687,1.102,140.762,-0.575,16.825,-1.294,-35.191,5.865,134.897
2.965,1.198,21.986,-1.964,105.572,0.096,19.352,0.958,146.628,0.288,15.962,-1.007,0.0,0.0,152.493
2.97,0.144,18.585,-2.922,58.651,-0.575,18.681,1.389,123.167,-0.144,15.674,-1.294,46.921,-11.73,134.897
2.975,0.575,16.19,-3.736,17.595,-0.335,18.346,2.299,76.246,-0.431,17.256,-2.013,93.842,-11.73,93.842
2.98,1.629,15.089,-3.784,-0.0,0.192,17.531,3.257,35.191,0.144,18.694,-2.876,123.167,-17.595,46.921
2.985,1.964,14.226,-3.401,-17.595,-0.335,16.861,3.497,5.865,0.288,18.982,-3.451,129.032,-23.46,17.595
2.99,1.198,13.316,-2.97,-29.326,-1.006,16.19,3.257,-11.73,-0.288,18.263,-3.307,117.302,-23.46,-5.865
2.995,1.054,12.31,-2.203,-46.921,-0.479,15.089,2.922,-23.46,0.144,17.256,-3.02,93.842,-17.595,-17.595
3.0,1.15,11.257,-1.485,-64.516,-0.287,13.987,2.347,-35.191,0.144,16.106,-2.588,76.246,-11.73,-35.191
3.005,0.671,10.346,-1.15,-70.381,-0.479,13.029,1.629,-52.786,0.0,14.955,-1.869,52.786,-5.865,-46.921
3.0100000000000002,0.91,10.203,-0.862,-64.516,-0.24,12.071,1.15,-70.381,0.0,13.805,-1.294,41.056,-5.865,-64.516
3.015,1.389,9.963,-0.431,-70.381,-0.287,11.161,0.958,-64.516,0.0,12.654,-1.007,23.46,0.0,-64.516
3.02,1.245,10.011,-0.431,-70.381,-0.862,10.682,0.479,-64.516,-0.575,11.792,-0.719,5.865,0.0,-64.516
3.025,1.102,9.532,-0.287,-64.516,-0.814,10.346,0.24,-70.381,-0.863,11.073,-0.288,-5.865,0.0,-64.516
3.0300000000000002,1.15,9.676,-0.287,-58.651,-0.814,10.107,0.335,-64.516,-0.575,10.641,-0.431,-11.73,0.0,-64.516
3.035,1.389,9.293,-0.287,-64.516,-0.719,9.82,0.287,-64.516,-0.575,10.354,-0.288,-17.595,0.0,-64.516
3.04,1.437,9.149,-0.575,-58.651,-1.006,9.341,0.192,-58.651,-1.007,9.778,-0.288,-23.46,-5.865,-58.651
3.045,1.677,8.862,-0.671,-52.786,-0.862,8.814,0.383,-58.651,-0.719,8.916,-0.431,-23.46,-5.865,-58.651
3.0500000000000003,1.868,8.43,-0.719,-52.786,-0.958,8.335,0.623,-58.651,-0.719,8.197,-0.575,-17.595,-5.865,-58.651
3.055,1.677,8.047,-0.814,-46.921,-1.198,7.951,0.623,-52.786,-0.863,7.621,-0.719,-17.595,-5.865,-52.786
3.06,1.629,7.712,-0.766,-41.056,-1.102,7.52,0.719,-52.786,-0.863,7.19,-0.719,-11.73,0.0,-52.786
3.065,1.772,7.52,-0.719,-35.191,-1.054,7.185,0.766,-41.056,-0.863,6.759,-0.863,0.0,0.0,-41.056
3.0700000000000003,1.677,7.329,-0.623,-23.46,-1.15,7.041,0.671,-35.191,-0.863,6.615,-0.719,5.865,0.0,-35.191
3.075,1.485,7.281,-0.575,-17.595,-1.198,6.993,0.623,-29.326,-1.007,6.759,-0.719,5.865,5.865,-29.326
3.08,1.389,7.568,-0.479,-11.73,-1.054,6.993,0.575,-23.46,-1.007,6.759,-0.575,17.595,5.865,-23.46
3.085,1.341,7.951,-0.335,-5.865,-0.958,7.185,0.479,-11.73,-0.863,7.046,-0.575,23.46,5.865,-11.73
3.09,1.15,8.287,-0.335,-5.865,-0.91,7.568,0.335,-5.865,-0.719,7.478,-0.431,29.326,5.865,-5.865
3.095,1.006,8.478,-0.431,-5.865,-0.862,8.047,0.287,-5.865,-0.719,8.053,-0.288,29.326,5.865,-5.865
3.1,0.91,8.478,-0.527,-11.73,-0.719,8.43,0.335,-5.865,-0.719,8.628,-0.288,29.326,5.865,0.0
3.105,0.91,8.095,-0.623,-11.73,-0.623,8.622,0.431,-5.865,-0.575,8.916,-0.431,29.326,5.865,-5.865
3.11,0.91,8.143,-0.862,-11.73,-0.527,8.574,0.575,-11.73,-0.575,9.059,-0.575,29.326,5.865,-5.865
3.115,0.766,8.191,-0.862,-11.73,-0.527,8.335,0.766,-11.73,-0.431,8.628,-0.719,29.326,5.865,-11.73
3.12,1.054,8.43,-0.958,-11.73,-0.479,8.239,0.814,-11.73,-0.431,8.628,-0.863,23.46,5.865,-5.865
3.125,0.958,8.239,-1.006,-17.595,-0.575,8.43,0.91,-11.73,-0.288,8.772,-1.007,17.595,5.865,-5.865
3.13,0.719,8.335,-1.006,-11.73,-0.527,8.478,0.91,-17.595,-0.431,8.772,-1.007,17.595,5.865,-11.73
3.1350000000000002,0.814,8.574,-0.91,-5.865,-0.383,8.335,0.958,-11.73,-0.144,8.484,-1.007,5.865,5.865,-11.73
3.14,1.006,8.574,-0.862,-5.865,-0.335,8.383,0.814,-5.865,-0.144,8.628,-0.863,5.865,5.865,-5.865
3.145,0.719,8.574,-0.862,-0.0,-0.479,8.43,0.766,-5.865,-0.288,8.484,-0.863,5.865,5.865,0.0
3.15,0.719,8.622,-0.862,-0.0,-0.335,8.478,0.862,-5.865,-0.144,8.34,-0.863,5.865,5.865,-5.865
3.1550000000000002,0.719,8.862,-0.814,5.865,-0.287,8.478,0.814,0.0,-0.288,8.484,-0.863,5.865,5.865,0.0
3.16,0.766,9.197,-0.671,5.865,-0.287,8.67,0.766,5.865,-0.144,8.772,-0.863,17.595,5.865,5.865
3.165,0.671,9.436,-0.575,5.865,-0.335,8.957,0.671,5.865,-0.144,9.059,-0.719,17.595,5.865,5.865
3.17,0.671,9.388,-0.479,5.865,-0.287,9.341,0.527,5.865,-0.144,9.347,-0.575,17.595,5.865,11.73
3.1750000000000003,0.671,9.293,-0.527,5.865,-0.287,9.436,0.479,5.865,-0.144,9.635,-0.575,17.595,5.865,11.73
3.18,0.575,9.293,-0.479,5.865,-0.287,9.436,0.431,5.865,-0.144,9.778,-0.431,17.595,5.865,5.865
3.185,0.671,9.197,-0.431,5.865,-0.24,9.436,0.431,5.865,-0.144,9.778,-0.431,17.595,5.865,5.865
3.19,0.671,9.197,-0.383,5.865,-0.287,9.436,0.383,5.865,-0.144,9.922,-0.431,5.865,5.865,5.865
3.1950000000000003,0.623,9.293,-0.383,5.865,-0.287,9.388,0.335,5.865,-0.144,9.778,-0.431,5.865,5.865,5.865
3.2,0.623,9.484,-0.383,5.865,-0.287,9.388,0.335,5.865,-0.144,9.778,-0.431,5.865,5.865,5.865
3.205,0.671,9.724,-0.335,5.865,-0.287,9.484,0.335,5.865,-0.144,9.778,-0.431,5.865,0.0,5.865
3.21,0.719,9.82,-0.335,-0.0,-0.287,9.58,0.287,5.865,-0.144,9.778,-0.288,5.865,0.0,5.865
3.215,0.766,9.724,-0.479,-0.0,-0.335,9.628,0.287,5.865,-0.288,9.778,-0.288,0.0,0.0,5.865
3.22,0.814,9.58,-0.575,-0.0,-0.383,9.628,0.383,5.865,-0.288,9.778,-0.431,0.0,0.0,5.865
3.225,0.91,9.436,-0.575,-0.0,-0.383,9.532,0.479,0.0,-0.288,9.635,-0.431,0.0,0.0,5.865
3.23,0.862,9.58,-0.623,5.865,-0.431,9.341,0.527,0.0,-0.288,9.491,-0.575,5.865,0.0,5.865
3.235,0.958,9.82,-0.527,5.865,-0.431,9.293,0.527,5.865,-0.288,9.347,-0.575,5.865,0.0,5.865
3.24,0.91,9.867,-0.527,5.865,-0.479,9.484,0.527,5.865,-0.288,9.491,-0.575,5.865,0.0,11.73
3.245,0.862,9.963,-0.623,-0.0,-0.527,9.724,0.431,5.865,-0.431,9.778,-0.575,5.865,-5.865,5.865
3.25,0.91,9.867,-0.575,-0.0,-0.479,9.82,0.479,5.865,-0.288,9.922,-0.431,5.865,-5.865,5.865
3.255,1.054,9.772,-0.575,-0.0,-0.479,9.915,0.527,5.865,-0.288,10.21,-0.575,5.865,-5.865,5.865
3.2600000000000002,1.102,9.82,-0.575,-0.0,-0.575,9.867,0.479,5.865,-0.431,10.21,-0.575,5.865,-5.865,5.865
3.265,1.15,9.58,-0.575,-0.0,-0.623,9.82,0.479,5.865,-0.431,10.21,-0.575,5.865,-5.865,5.865
3.27,1.15,9.341,-0.623,-0.0,-0.671,9.724,0.527,0.0,-0.431,10.066,-0.575,5.865,-5.865,5.865
3.275,1.054,9.149,-0.671,-0.0,-0.671,9.532,0.527,0.0,-0.575,9.922,-0.575,5.865,-5.865,0.0
3.2800000000000002,0.958,9.388,-0.719,-0.0,-0.623,9.293,0.575,0.0,-0.431,9.635,-0.575,0.0,-5.865,0.0
3.285,1.006,9.867,-0.575,-0.0,-0.623,9.245,0.623,0.0,-0.431,9.491,-0.575,0.0,-5.865,5.865
3.29,1.054,10.251,-0.479,-0.0,-0.575,9.628,0.575,0.0,-0.431,9.635,-0.719,0.0,-5.865,5.865
3.295,1.054,10.394,-0.623,-0.0,-0.671,9.963,0.431,0.0,-0.575,10.066,-0.431,0.0,-5.865,5.865
3.3000000000000003,1.102,10.346,-0.814,-0.0,-0.719,10.155,0.527,0.0,-0.719,10.21,-0.431,0.0,-5.865,5.865
3.305,1.245,10.107,-1.054,-5.865,-0.671,10.155,0.671,0.0,-0.575,10.21,-0.719,0.0,-5.865,0.0
3.31,1.341,9.82,-1.198,-11.73,-0.766,10.011,0.862,-5.865,-0.575,10.21,-0.863,0.0,-5.865,0.0
3.315,1.389,9.58,-1.293,-11.73,-0.814,9.82,1.054,-5.865,-0.575,10.066,-1.007,0.0,-5.865,-5.865
3.3200000000000003,1.437,9.484,-1.293,-11.73,-0.862,9.628,1.198,-11.73,-0.575,9.922,-1.15,0.0,-5.865,-5.865
3.325,1.437,9.341,-1.341,-11.73,-0.862,9.484,1.245,-11.73,-0.575,9.778,-1.294,0.0,-5.865,-5.865
3.33,1.437,9.005,-1.437,-11.73,-0.91,9.388,1.245,-5.865,-0.719,9.635,-1.294,0.0,-5.865,-5.865
3.335,1.389,8.574,-1.581,-11.73,-0.862,9.197,1.293,-11.73,-0.575,9.491,-1.294,0.0,-5.865,-5.865
3.34,1.389,8.43,-1.581,-11.73,-0.862,8.909,1.437,-11.73,-0.719,9.347,-1.438,0.0,-5.865,-5.865
3.345,1.341,8.718,-1.485,-5.865,-0.814,8.67,1.533,-5.865,-0.575,9.203,-1.582,0.0,0.0,-5.865
3.35,1.245,9.197,-1.389,-5.865,-0.814,8.718,1.485,-5.865,-0.575,9.059,-1.582,-5.865,0.0,-5.865
3.355,1.15,9.628,-1.293,-0.0,-0.766,9.005,1.341,0.0,-0.575,9.059,-1.438,-5.865,0.0,0.0
3.36,1.15,9.963,-1.293,-0.0,-0.719,9.388,1.245,0.0,-0.575,9.491,-1.294,-11.73,0.0,0.0
3.365,1.198,10.107,-1.389,-0.0,-0.719,9.676,1.245,0.0,-0.575,9.635,-1.294,-11.73,0.0,5.865
3.37,1.293,10.107,-1.437,-0.0,-0.671,9.82,1.293,5.865,-0.575,9.922,-1.294,-11.73,5.865,5.865
3.375,1.293,9.963,-1.437,-0.0,-0.719,9.867,1.341,5.865,-0.575,9.922,-1.294,-5.865,5.865,5.865
3.38,1.341,9.772,-1.437,-0.0,-0.766,9.82,1.341,5.865,-0.575,9.922,-1.438,-5.865,5.865,5.865
3.3850000000000002,1.389,9.628,-1.341,-0.0,-0.766,9.724,1.341,0.0,-0.575,9.922,-1.438,-5.865,5.865,5.865
3.39,1.389,9.484,-1.245,5.865,-0.766,9.628,1.293,5.865,-0.431,9.778,-1.294,-5.865,5.865,5.865
3.395,1.293,9.341,-1.245,5.865,-0.766,9.484,1.198,5.865,-0.431,9.778,-1.294,0.0,5.865,5.865
3.4,1.054,9.436,-1.15,5.865,-0.719,9.293,1.102,5.865,-0.431,9.491,-1.15,0.0,5.865,5.865
3.4050000000000002,0.862,9.724,-0.91,5.865,-0.623,9.245,1.15,5.865,-0.431,9.347,-1.15,0.0,11.73,5.865
3.41,0.766,10.107,-0.479,11.73,-0.479,9.532,0.958,5.865,-0.288,9.491,-1.15,0.0,11.73,11.73
3.415,0.671,10.394,-0.287,11.73,-0.527,9.867,0.575,11.73,-0.431,9.922,-0.719,0.0,17.595,11.73
3.42,0.719,10.442,-0.24,5.865,-0.527,10.059,0.335,11.73,-0.575,10.066,-0.431,0.0,17.595,11.73
3.4250000000000003,0.862,10.299,-0.287,5.865,-0.431,10.155,0.24,5.865,-0.431,10.21,-0.288,0.0,11.73,11.73
3.43,0.91,10.059,-0.383,5.865,-0.527,10.059,0.192,5.865,-0.431,10.21,-0.288,0.0,5.865,11.73
3.435,0.958,9.82,-0.335,-0.0,-0.527,9.915,0.287,5.865,-0.431,10.066,-0.288,5.865,5.865,5.865
3.44,0.91,9.772,-0.287,-0.0,-0.527,9.772,0.335,0.0,-0.288,9.922,-0.288,5.865,5.865,5.865
3.4450000000000003,0.862,9.915,-0.144,-0.0,-0.479,9.724,0.287,0.0,-0.288,9.922,-0.288,5.865,5.865,5.865
3.45,0.766,10.011,-0.048,-0.0,-0.383,9.772,0.144,0.0,-0.288,9.922,-0.288,5.865,5.865,5.865
3.455,0.575,9.676,0.096,-0.0,-0.383,9.82,0.048,0.0,-0.144,9.922,-0.144,5.865,5.865,5.865
3.46,0.623,9.724,-0.096,5.865,-0.287,9.915,-0.096,0.0,-0.288,10.066,-0.0,5.865,5.865,5.865
3.465,0.766,10.107,-0.24,5.865,-0.24,9.58,-0.096,5.865,-0.288,9.778,0.144,5.865,5.865,5.865
3.47,1.006,9.82,-0.24,-5.865,-0.335,9.772,0.24,11.73,-0.144,9.778,-0.144,5.865,0.0,11.73
3.475,0.719,9.724,-0.383,-0.0,-0.575,10.155,0.144,0.0,-0.575,10.354,-0.144,5.865,0.0,5.865
3.48,0.766,10.011,-0.335,5.865,-0.335,9.963,0.24,-5.865,-0.288,10.354,-0.288,5.865,0.0,0.0
3.485,1.102,10.251,-0.144,5.865,-0.24,9.724,0.335,5.865,0.0,9.922,-0.431,5.865,0.0,5.865
3.49,0.958,10.394,-0.335,-0.0,-0.575,9.867,0.144,5.865,-0.288,9.922,-0.288,5.865,0.0,11.73
3.495,0.814,10.299,-0.479,-5.865,-0.575,10.155,0.144,0.0,-0.431,10.21,-0.144,5.865,0.0,5.865
3.5,0.862,10.107,-0.479,-5.865,-0.431,10.346,0.383,0.0,-0.288,10.497,-0.431,5.865,0.0,0.0
3.505,0.862,10.155,-0.575,-0.0,-0.479,10.251,0.383,0.0,-0.288,10.641,-0.431,5.865,0.0,0.0
3.5100000000000002,0.91,10.203,-0.527,-5.865,-0.431,10.107,0.479,0.0,-0.288,10.497,-0.431,5.865,0.0,0.0
3.515,0.91,10.107,-0.479,-5.865,-0.431,10.155,0.527,0.0,-0.288,10.354,-0.575,0.0,0.0,0.0
3.52,0.814,10.203,-0.527,-5.865,-0.479,10.155,0.431,-5.865,-0.288,10.354,-0.575,0.0,0.0,0.0
3.525,0.91,10.299,-0.527,-5.865,-0.431,10.059,0.431,-5.865,-0.288,10.354,-0.431,0.0,0.0,-5.865
3.5300000000000002,0.958,10.155,-0.527,-11.73,-0.479,10.059,0.479,-5.865,-0.288,10.21,-0.575,0.0,0.0,0.0
3.535,0.91,9.915,-0.575,-5.865,-0.527,10.059,0.479,-5.865,-0.431,10.21,-0.575,0.0,0.0,-5.865
3.54,0.91,9.915,-0.623,-5.865,-0.527,9.915,0.527,-5.865,-0.431,10.066,-0.575,0.0,0.0,-5.865
3.545,1.054,9.82,-0.623,-5.865,-0.479,9.724,0.575,-5.865,-0.431,9.922,-0.575,5.865,-5.865,-5.865
3.5500000000000003,1.102,9.58,-0.719,-11.73,-0.575,9.628,0.575,-5.865,-0.431,9.635,-0.575,5.865,-5.865,-5.865
3.555,1.006,9.436,-0.814,-5.865,-0.623,9.532,0.575,-5.865,-0.431,9.635,-0.575,5.865,-5.865,-5.865
3.56,1.102,9.293,-0.814,-5.865,-0.575,9.436,0.719,-5.865,-0.431,9.635,-0.719,5.865,-5.865,-5.865
3.565,1.102,9.293,-0.814,-5.865,-0.623,9.341,0.766,-5.865,-0.431,9.635,-0.719,5.865,0.0,0.0
3.5700000000000003,1.102,9.341,-0.766,-0.0,-0.623,9.245,0.719,-5.865,-0.431,9.491,-0.719,5.865,0.0,0.0
3.575,1.054,9.341,-0.719,-0.0,-0.623,9.197,0.719,0.0,-0.431,9.347,-0.719,5.865,0.0,0.0
3.58,1.006,9.388,-0.719,-0.0,-0.623,9.245,0.671,0.0,-0.431,9.347,-0.719,5.865,0.0,0.0
3.585,1.006,9.388,-0.671,-0.0,-0.575,9.293,0.671,0.0,-0.431,9.347,-0.719,5.865,0.0,0.0
3.59,0.958,9.484,-0.766,-0.0,-0.575,9.341,0.623,0.0,-0.431,9.491,-0.719,5.865,0.0,0.0
3.595,0.958,9.532,-0.862,-0.0,-0.575,9.388,0.671,0.0,-0.431,9.491,-0.719,5.865,0.0,0.0
3.6,1.054,9.628,-0.958,-0.0,-0.527,9.484,0.766,0.0,-0.431,9.635,-0.863,5.865,0.0,0.0
3.605,1.102,9.724,-1.006,-0.0,-0.575,9.628,0.862,0.0,-0.288,9.778,-0.863,5.865,0.0,0.0
3.61,1.102,9.772,-1.054,-0.0,-0.623,9.724,0.91,0.0,-0.431,9.922,-0.863,5.865,0.0,0.0
3.615,1.102,9.628,-1.15,-5.865,-0.671,9.772,0.958,0.0,-0.431,10.066,-1.007,5.865,0.0,0.0
3.62,1.15,9.436,-1.198,-5.865,-0.671,9.772,1.054,-5.865,-0.431,10.066,-1.007,5.865,0.0,0.0
3.625,1.102,9.388,-1.245,-5.865,-0.671,9.58,1.102,-5.865,-0.431,9.922,-1.15,5.865,0.0,0.0
3.63,1.198,9.341,-1.293,-5.865,-0.623,9.388,1.15,-5.865,-0.431,9.635,-1.15,5.865,0.0,-5.865
3.6350000000000002,1.245,9.341,-1.293,-5.865,-0.671,9.293,1.198,-5.865,-0.431,9.491,-1.294,0.0,0.0,-5.865
3.64,1.293,9.245,-1.341,-5.865,-0.719,9.245,1.198,-5.865,-0.575,9.491,-1.294,0.0,0.0,0.0
3.645,1.245,9.149,-1.389,-5.865,-0.719,9.197,1.245,-5.865,-0.431,9.347,-1.294,0.0,0.0,0.0
3.65,1.293,9.053,-1.341,-0.0,-0.719,9.149,1.293,0.0,-0.431,9.347,-1.294,0.0,0.0,0.0
3.6550000000000002,1.293,9.101,-1.15,-0.0,-0.766,9.101,1.293,0.0,-0.575,9.347,-1.294,0.0,0.0,0.0
3.66,1.15,9.101,-1.006,-0.0,-0.766,9.053,1.15,0.0,-0.575,9.347,-1.294,0.0,0.0,0.0
3.665,1.054,9.101,-0.862,-0.0,-0.719,9.053,1.006,0.0,-0.575,9.203,-1.15,0.0,5.865,5.865
3.67,1.006,9.149,-0.766,-0.0,-0.623,9.053,0.862,0.0,-0.431,9.203,-1.007,0.0,5.865,5.865
3.6750000000000003,0.958,9.293,-0.719,5.865,-0.623,9.053,0.766,5.865,-0.431,9.203,-0.863,0.0,5.865,5.865
3.68,0.958,9.484,-0.671,5.865,-0.575,9.149,0.671,5.865,-0.431,9.203,-0.719,0.0,5.865,5.865
3.685,0.862,9.676,-0.671,5.865,-0.575,9.245,0.623,5.865,-0.431,9.347,-0.719,0.0,5.865,5.865
3.69,0.91,9.724,-0.623,-0.0,-0.527,9.484,0.623,5.865,-0.431,9.635,-0.719,0.0,5.865,5.865
3.6950000000000003,0.958,9.82,-0.623,-0.0,-0.479,9.628,0.575,5.865,-0.431,9.778,-0.719,0.0,5.865,5.865
3.7,0.958,9.772,-0.671,-0.0,-0.527,9.628,0.575,5.865,-0.431,9.778,-0.575,0.0,0.0,5.865
3.705,0.91,9.484,-0.671,-0.0,-0.527,9.628,0.575,5.865,-0.288,9.778,-0.575,5.865,0.0,5.865
3.71,0.862,9.532,-0.671,5.865,-0.527,9.628,0.575,0.0,-0.288,9.922,-0.719,5.865,0.0,5.865
3.715,0.958,9.532,-0.575,5.865,-0.431,9.532,0.623,5.865,-0.288,9.778,-0.719,5.865,5.865,5.865
3.72,0.814,9.628,-0.527,5.865,-0.479,9.484,0.575,5.865,-0.288,9.778,-0.575,5.865,5.865,5.865
3.725,0.862,9.676,-0.479,5.865,-0.431,9.532,0.479,5.865,-0.288,9.635,-0.575,5.865,5.865,5.865
3.73,0.862,9.82,-0.479,-0.0,-0.431,9.628,0.431,5.865,-0.288,9.778,-0.431,0.0,5.865,5.865
3.735,0.91,9.963,-0.479,-0.0,-0.431,9.676,0.383,5.865,-0.288,9.922,-0.431,0.0,5.865,5.865
3.74,0.814,10.011,-0.479,-0.0,-0.431,9.772,0.431,5.865,-0.288,9.922,-0.431,0.0,0.0,5.865
3.745,0.814,9.963,-0.479,-0.0,-0.383,9.915,0.431,5.865,-0.288,10.066,-0.431,5.865,0.0,5.865
3.75,0.814,10.059,-0.479,-0.0,-0.431,9.915,0.431,0.0,-0.288,10.066,-0.431,0.0,5.865,5.865
3.755,0.814,10.155,-0.431,-0.0,-0.431,10.011,0.431,5.865,-0.288,10.21,-0.431,0.0,5.865,5.865
3.7600000000000002,0.862,10.251,-0.335,-0.0,-0.431,10.059,0.383,0.0,-0.288,10.21,-0.431,0.0,0.0,5.865
3.765,0.862,10.346,-0.335,-0.0,-0.431,10.107,0.287,0.0,-0.288,10.21,-0.431,0.0,0.0,5.865
3.77,0.814,10.299,-0.335,-5.865,-0.479,10.107,0.287,0.0,-0.288,10.21,-0.288,0.0,0.0,5.865
3.775,0.814,10.155,-0.335,-5.865,-0.479,10.203,0.24,0.0,-0.288,10.354,-0.288,0.0,0.0,0.0
3.7800000000000002,0.862,10.107,-0.335,-0.0,-0.479,10.107,0.287,0.0,-0.431,10.354,-0.288,5.865,0.0,0.0
3.785,0.958,10.059,-0.383,-5.865,-0.479,9.963,0.287,0.0,-0.288,10.21,-0.288,5.865,0.0,0.0
3.79,0.91,9.963,-0.431,-5.865,-0.527,9.867,0.335,0.0,-0.431,10.066,-0.288,5.865,0.0,0.0
3.795,0.958,9.82,-0.575,-5.865,-0.575,9.772,0.383,0.0,-0.431,9.922,-0.431,5.865,0.0,0.0
3.8000000000000003,1.006,9.867,-0.766,-0.0,-0.527,9.724,0.431,0.0,-0.431,9.922,-0.431,5.865,-5.865,0.0
3.805,1.102,9.82,-0.958,-0.0,-0.575,9.676,0.623,0.0,-0.431,9.922,-0.575,5.865,-5.865,0.0
3.81,1.198,9.628,-1.198,-0.0,-0.623,9.676,0.814,0.0,-0.431,9.778,-0.863,5.865,-5.865,0.0
3.815,1.293,9.484,-1.581,-0.0,-0.623,9.58,1.006,0.0,-0.431,9.635,-1.007,5.865,-5.865,0.0
3.8200000000000003,1.485,9.341,-1.916,-0.0,-0.719,9.436,1.341,0.0,-0.431,9.635,-1.294,5.865,-5.865,0.0
3.825,1.629,9.245,-2.251,-0.0,-0.814,9.388,1.677,5.865,-0.431,9.635,-1.582,5.865,-5.865,5.865
3.83,1.724,9.149,-2.587,-0.0,-0.862,9.341,1.964,5.865,-0.431,9.635,-1.869,5.865,0.0,5.865
3.835,1.82,9.053,-2.826,-0.0,-0.91,9.341,2.347,5.865,-0.431,9.635,-2.301,5.865,0.0,5.865
3.84,1.82,9.101,-2.97,5.865,-0.958,9.484,2.635,5.865,-0.431,9.922,-2.588,5.865,5.865,5.865
3.845,1.82,9.149,-2.97,5.865,-1.006,9.532,2.778,5.865,-0.431,10.21,-2.876,5.865,5.865,5.865
3.85,1.868,9.101,-2.922,5.865,-0.958,9.484,2.826,5.865,-0.431,10.21,-2.876,0.0,11.73,11.73
3.855,1.772,8.909,-2.826,5.865,-1.006,9.436,2.778,5.865,-0.431,10.066,-2.876,-5.865,17.595,11.73
3.86,1.82,8.766,-2.73,5.865,-0.958,9.341,2.73,5.865,-0.431,9.922,-2.876,-11.73,23.46,5.865
3.865,1.868,8.574,-2.587,5.865,-0.91,9.101,2.587,5.865,-0.431,9.635,-2.732,-17.595,29.326,11.73
3.87,1.82,8.287,-2.443,11.73,-0.958,8.814,2.491,11.73,-0.431,9.347,-2.588,-17.595,35.191,11.73
3.875,1.82,7.76,-2.395,17.595,-0.958,8.526,2.347,11.73,-0.575,8.916,-2.445,-23.46,35.191,11.73
3.88,1.82,7.568,-2.395,17.595,-0.958,8.143,2.251,11.73,-0.431,8.628,-2.301,-23.46,41.056,17.595
3.8850000000000002,1.293,8.191,-2.251,23.46,-0.958,7.808,2.203,17.595,-0.575,8.197,-2.301,-29.326,46.921,17.595
3.89,1.15,9.053,-1.677,29.326,-0.719,7.808,2.203,23.46,-0.288,7.909,-2.301,-29.326,52.786,23.46
3.895,1.006,10.107,-0.958,35.191,-0.479,8.526,1.82,29.326,-0.144,8.34,-2.013,-29.326,58.651,29.326
3.9,0.814,10.921,-0.096,35.191,-0.575,9.293,1.15,29.326,-0.288,9.059,-1.294,-29.326,64.516,29.326
3.9050000000000002,0.575,11.113,0.814,29.326,-0.527,10.107,0.383,35.191,-0.431,9.778,-0.719,-23.46,64.516,35.191
3.91,-0.383,11.113,1.389,23.46,-0.431,10.538,-0.527,29.326,-0.431,10.354,0.288,-23.46,64.516,35.191
3.915,-1.102,10.682,2.012,11.73,-0.24,10.682,-1.15,29.326,-0.575,10.641,1.15,-17.595,64.516,29.326
3.92,-1.437,10.394,2.73,5.865,0.383,10.586,-1.677,17.595,-0.288,10.785,1.582,-11.73,58.651,23.46
3.9250000000000003,-1.293,10.682,3.353,-0.0,0.623,10.442,-2.347,11.73,-0.144,10.785,2.301,-11.73,52.786,11.73
3.93,-1.102,10.969,3.688,-5.865,0.623,10.346,-3.018,0.0,-0.144,10.641,2.876,-11.73,41.056,5.865
3.935,-1.054,11.113,3.688,-5.865,0.527,10.251,-3.497,0.0,-0.144,10.21,3.451,-11.73,23.46,0.0
3.94,-0.958,10.921,3.593,-5.865,0.527,10.107,-3.64,-5.865,-0.144,9.635,3.739,-5.865,11.73,0.0
3.9450000000000003,-1.102,10.73,3.257,-5.865,0.575,9.915,-3.593,-5.865,-0.144,9.203,3.595,0.0,0.0,-5.865
3.95,-0.958,10.442,2.682,-5.865,0.719,9.772,-3.401,-5.865,0.288,9.059,3.451,5.865,-11.73,-5.865
3.955,-0.719,10.107,1.916,-5.865,0.719,9.676,-2.922,-5.865,0.288,9.059,3.164,23.46,-17.595,-5.865
3.96,-0.383,9.772,1.102,-5.865,0.766,9.532,-2.251,-5.865,0.431,9.059,2.588,29.326,-29.326,-5.865
3.9650000000000003,-0.048,9.676,0.287,-0.0,0.623,9.436,-1.485,-5.865,0.431,9.059,1.726,41.056,-35.191,-5.865
3.97,0.335,9.772,-0.527,5.865,0.479,9.436,-0.671,-5.865,0.575,9.203,1.007,46.921,-41.056,0.0
3.975,0.671,9.963,-1.293,5.865,0.287,9.58,0.096,0.0,0.575,9.491,0.144,52.786,-46.921,0.0
3.98,0.91,10.059,-1.868,11.73,0.192,9.963,0.862,5.865,0.719,10.066,-0.719,52.786,-41.056,5.865
3.985,1.006,10.299,-2.539,11.73,0.0,10.394,1.437,11.73,0.575,10.785,-1.294,58.651,-41.056,11.73
3.99,1.293,10.346,-3.066,11.73,-0.048,10.969,2.108,11.73,0.575,11.648,-1.869,52.786,-35.191,11.73
3.995,1.485,10.299,-3.401,5.865,-0.24,11.304,2.682,11.73,0.575,12.223,-2.588,46.921,-35.191,11.73
4.0,1.724,10.251,-3.736,5.865,-0.335,11.544,3.066,5.865,0.431,12.798,-3.02,41.056,-29.326,11.73
4.005,1.82,10.059,-3.832,-0.0,-0.479,11.496,3.353,5.865,0.431,12.942,-3.307,23.46,-23.46,5.865
4.01,1.772,9.963,-3.736,-5.865,-0.623,11.352,3.545,5.865,0.288,12.798,-3.595,5.865,-17.595,5.865
4.015,1.772,9.867,-3.688,-5.865,-0.671,11.065,3.593,0.0,0.144,12.511,-3.595,-5.865,-5.865,0.0
4.0200000000000005,1.82,9.82,-3.545,-11.73,-0.623,10.682,3.497,-5.865,0.144,11.935,-3.595,-17.595,0.0,0.0
4.025,1.629,10.203,-3.305,-11.73,-0.671,10.442,3.401,-5.865,0.144,11.36,-3.451,-29.326,5.865,-5.865
4.03,1.533,10.442,-2.778,-17.595,-0.671,10.49,3.161,-11.73,0.144,11.216,-3.307,-41.056,17.595,-5.865
4.035,1.198,10.873,-2.06,-11.73,-0.719,10.538,2.826,-11.73,-0.144,11.073,-3.02,-46.921,23.46,-11.73
4.04,0.719,11.209,-1.15,-17.595,-0.527,10.538,2.203,-11.73,-0.144,10.785,-2.445,-52.786,29.326,-11.73
4.045,0.383,11.161,-0.144,-17.595,-0.431,10.538,1.437,-11.73,-0.144,10.497,-1.726,-58.651,35.191,-11.73
4.05,-0.048,10.969,0.527,-23.46,-0.335,10.442,0.479,-17.595,-0.431,10.21,-0.863,-52.786,35.191,-11.73
4.055,-0.192,10.825,0.91,-23.46,-0.144,10.059,-0.335,-23.46,-0.431,9.778,0.144,-46.921,35.191,-17.595
4.0600000000000005,-0.144,10.634,1.245,-23.46,0.048,9.628,-0.719,-23.46,-0.288,9.059,0.719,-41.056,29.326,-17.595
4.065,-0.144,10.394,1.389,-17.595,0.048,9.341,-1.102,-23.46,-0.144,8.484,1.007,-29.326,23.46,-17.595
4.07,-0.048,10.299,1.341,-11.73,0.048,9.197,-1.341,-17.595,-0.144,8.34,1.294,-17.595,17.595,-17.595
4.075,0.048,10.251,1.15,-11.73,0.096,9.149,-1.389,-17.595,-0.144,8.197,1.438,-5.865,11.73,-11.73
4.08,0.096,10.011,1.006,-5.865,0.096,9.197,-1.245,-11.73,-0.144,8.34,1.294,5.865,5.865,-11.73
4.085,0.192,9.915,0.814,-0.0,0.048,9.436,-1.054,-5.865,0.0,8.772,1.15,29.326,0.0,0.0
4.09,0.287,10.011,0.575,5.865,0.048,9.676,-0.91,0.0,0.0,9.491,1.007,35.191,0.0,0.0
4.095,0.527,10.107,0.479,5.865,0.0,9.82,-0.719,5.865,0.0,9.778,0.863,41.056,-5.865,5.865
4.1,0.527,10.203,0.335,5.865,-0.096,10.059,-0.575,5.865,0.0,10.21,0.719,46.921,-5.865,11.73
4.105,0.575,10.251,0.192,5.865,-0.144,10.299,-0.479,5.865,0.0,10.497,0.575,46.921,-5.865,11.73
4.11,0.575,10.394,0.048,-0.0,-0.144,10.538,-0.335,5.865,0.0,10.929,0.431,46.921,-11.73,11.73
4.115,0.623,10.394,-0.096,-0.0,-0.192,10.73,-0.192,5.865,0.0,11.36,0.288,41.056,-11.73,11.73
4.12,0.671,10.346,-0.287,-0.0,-0.144,10.825,0.0,0.0,0.0,11.504,0.144,35.191,-11.73,5.865
4.125,0.719,10.394,-0.479,-5.865,-0.144,10.778,0.144,0.0,0.0,11.504,-0.144,29.326,-11.73,5.865
4.13,0.719,10.586,-0.623,-11.73,-0.192,10.778,0.287,0.0,0.0,11.504,-0.288,23.46,-11.73,0.0
4.135,0.623,10.73,-0.719,-11.73,-0.192,10.825,0.431,-5.865,0.0,11.504,-0.431,17.595,-11.73,0.0
4.14,0.623,11.017,-0.766,-11.73,-0.144,10.921,0.575,-11.73,0.144,11.504,-0.575,5.865,-11.73,-5.865
4.1450000000000005,0.575,11.304,-0.671,-11.73,-0.096,10.969,0.671,-11.73,0.144,11.36,-0.719,5.865,-11.73,-11.73
4.15,0.479,11.64,-0.623,-11.73,-0.096,11.065,0.623,-11.73,0.144,11.216,-0.719,5.865,-5.865,-11.73
4.155,0.383,11.927,-0.623,-17.595,-0.048,11.209,0.575,-11.73,0.144,11.36,-0.575,0.0,-5.865,-11.73
4.16,0.431,12.167,-0.623,-17.595,0.0,11.448,0.575,-11.73,0.144,11.36,-0.575,5.865,-5.865,-11.73
4.165,0.479,12.31,-0.719,-17.595,-0.048,11.592,0.575,-17.595,0.144,11.504,-0.575,5.865,-5.865,-17.595
4.17,0.527,12.31,-0.814,-17.595,-0.048,11.64,0.575,-17.595,0.0,11.504,-0.575,5.865,-11.73,-17.595
4.175,0.671,12.262,-0.958,-23.46,-0.048,11.688,0.671,-17.595,0.0,11.504,-0.719,5.865,-11.73,-17.595
4.18,0.814,12.262,-1.006,-23.46,-0.144,11.736,0.766,-23.46,0.144,11.504,-0.863,23.46,-11.73,-17.595
4.1850000000000005,0.91,12.167,-1.054,-23.46,-0.24,11.831,0.862,-23.46,0.0,11.648,-0.863,23.46,-11.73,-17.595
4.19,0.958,11.927,-1.006,-23.46,-0.335,11.879,0.91,-23.46,0.0,11.792,-1.007,29.326,-11.73,-17.595
4.195,1.006,11.688,-0.958,-23.46,-0.431,11.879,0.91,-23.46,-0.144,12.079,-1.007,35.191,-11.73,-17.595
4.2,1.102,11.448,-0.862,-23.46,-0.479,11.736,0.862,-23.46,-0.144,12.079,-0.863,35.191,-11.73,-17.595
4.205,1.198,11.161,-0.814,-29.326,-0.575,11.592,0.766,-29.326,-0.288,11.935,-0.863,35.191,-5.865,-23.46
4.21,1.15,10.921,-0.719,-29.326,-0.671,11.4,0.719,-29.326,-0.431,11.792,-0.719,35.191,-5.865,-23.46
4.215,1.198,10.778,-0.623,-35.191,-0.671,11.113,0.671,-29.326,-0.431,11.648,-0.719,35.191,-5.865,-23.46
4.22,1.198,10.682,-0.575,-35.191,-0.719,10.873,0.575,-29.326,-0.575,11.36,-0.575,29.326,-5.865,-23.46
4.225,1.198,10.586,-0.479,-35.191,-0.766,10.682,0.527,-35.191,-0.575,11.073,-0.575,29.326,-5.865,-29.326
4.23,1.198,10.682,-0.383,-35.191,-0.766,10.538,0.479,-35.191,-0.575,10.785,-0.575,29.326,-5.865,-35.191
4.235,1.102,10.682,-0.287,-35.191,-0.766,10.442,0.335,-35.191,-0.575,10.641,-0.431,23.46,-5.865,-35.191
4.24,1.102,10.442,-0.24,-41.056,-0.766,10.442,0.24,-35.191,-0.719,10.641,-0.288,29.326,-5.865,-35.191
4.245,1.006,10.538,-0.335,-41.056,-0.766,10.346,0.144,-41.056,-0.719,10.497,-0.144,23.46,-5.865,-35.191
4.25,1.054,10.442,-0.335,-41.056,-0.719,10.203,0.192,-41.056,-0.575,10.354,-0.288,29.326,-11.73,-41.056
4.255,1.006,10.251,-0.383,-41.056,-0.766,10.203,0.287,-35.191,-0.719,10.21,-0.288,29.326,-11.73,-35.191
4.26,1.006,10.107,-0.527,-41.056,-0.766,10.251,0.24,-41.056,-0.863,10.354,-0.288,29.326,-11.73,-41.056
4.265,1.198,9.963,-0.671,-41.056,-0.719,10.107,0.431,-41.056,-0.719,10.354,-0.431,29.326,-11.73,-41.056
4.2700000000000005,1.389,9.82,-0.862,-46.921,-0.814,9.915,0.575,-41.056,-0.719,10.21,-0.575,29.326,-17.595,-41.056
4.275,1.533,9.532,-1.054,-46.921,-0.958,9.82,0.719,-41.056,-0.863,10.066,-0.719,29.326,-17.595,-41.056
4.28,1.677,9.101,-1.245,-46.921,-1.054,9.58,0.958,-46.921,-0.863,9.922,-0.863,29.326,-17.595,-46.921
4.285,1.82,8.622,-1.437,-46.921,-1.15,9.293,1.15,-46.921,-1.007,9.635,-1.15,29.326,-17.595,-46.921
4.29,1.964,8.191,-1.581,-46.921,-1.245,8.862,1.293,-46.921,-1.007,9.347,-1.294,29.326,-17.595,-46.921
4.295,2.06,7.808,-1.629,-46.921,-1.293,8.383,1.485,-46.921,-1.007,8.772,-1.438,29.326,-17.595,-46.921
4.3,2.06,7.712,-1.581,-46.921,-1.389,7.999,1.581,-46.921,-1.007,8.34,-1.582,29.326,-17.595,-46.921
4.305,2.012,7.712,-1.437,-41.056,-1.389,7.76,1.533,-46.921,-1.007,8.053,-1.582,23.46,-17.595,-46.921
4.3100000000000005,2.012,7.616,-1.293,-41.056,-1.389,7.712,1.437,-46.921,-1.15,7.909,-1.582,23.46,-11.73,-46.921
4.315,1.916,7.664,-1.102,-41.056,-1.485,7.616,1.293,-41.056,-1.294,7.909,-1.438,23.46,-11.73,-41.056
4.32,1.964,7.712,-0.862,-35.191,-1.437,7.568,1.15,-41.056,-1.294,7.765,-1.294,23.46,-5.865,-41.056
4.325,1.916,7.712,-0.719,-41.056,-1.485,7.568,0.91,-35.191,-1.294,7.765,-1.007,23.46,-5.865,-35.191
4.33,1.772,7.616,-0.671,-41.056,-1.485,7.52,0.719,-41.056,-1.438,7.621,-0.863,23.46,-5.865,-35.191
4.335,1.772,7.568,-0.527,-35.191,-1.389,7.472,0.671,-41.056,-1.294,7.621,-0.719,23.46,-5.865,-41.056
4.34,1.82,7.616,-0.383,-35.191,-1.341,7.425,0.575,-35.191,-1.294,7.478,-0.719,23.46,-5.865,-41.056
4.345,1.772,7.616,-0.335,-35.191,-1.389,7.425,0.431,-35.191,-1.294,7.478,-0.575,23.46,-5.865,-35.191
4.3500000000000005,1.772,7.616,-0.335,-35.191,-1.437,7.425,0.287,-35.191,-1.438,7.478,-0.431,29.326,-5.865,-35.191
4.355,1.82,7.616,-0.24,-35.191,-1.389,7.425,0.24,-35.191,-1.294,7.478,-0.288,29.326,-5.865,-35.191
4.36,1.82,7.568,-0.192,-29.326,-1.389,7.472,0.24,-35.191,-1.294,7.621,-0.288,29.326,-5.865,-35.191
4.365,1.82,7.616,-0.144,-35.191,-1.437,7.472,0.192,-35.191,-1.438,7.621,-0.288,29.326,-5.865,-29.326
4.37,1.82,7.568,-0.048,-35.191,-1.437,7.52,0.144,-35.191,-1.438,7.765,-0.144,29.326,-5.865,-29.326
4.375,1.82,7.472,-0.096,-35.191,-1.437,7.52,0.048,-35.191,-1.294,7.765,-0.144,29.326,-5.865,-29.326
4.38,1.916,7.281,-0.096,-35.191,-1.437,7.472,0.048,-35.191,-1.294,7.765,-0.0,29.326,-5.865,-29.326
4.385,1.964,7.137,0.0,-35.191,-1.485,7.425,0.048,-35.191,-1.294,7.765,-0.144,29.326,-5.865,-29.326
4.39,1.868,7.233,0.096,-35.191,-1.533,7.281,0.0,-35.191,-1.438,7.765,-0.0,29.326,-5.865,-35.191
4.3950000000000005,1.916,7.377,0.335,-35.191,-1.485,7.233,-0.048,-35.191,-1.438,7.621,0.144,29.326,-5.865,-35.191
4.4,1.82,7.616,0.527,-41.056,-1.533,7.329,-0.24,-35.191,-1.438,7.621,0.144,23.46,-5.865,-35.191
4.405,1.82,7.808,0.671,-41.056,-1.533,7.52,-0.479,-35.191,-1.438,7.765,0.431,23.46,-5.865,-35.191
4.41,1.724,7.856,0.719,-46.921,-1.533,7.664,-0.671,-41.056,-1.582,7.909,0.719,23.46,-5.865,-35.191
4.415,1.772,7.904,0.623,-52.786,-1.485,7.712,-0.719,-41.056,-1.582,8.053,0.719,17.595,-11.73,-41.056
4.42,1.916,7.999,0.575,-52.786,-1.485,7.76,-0.671,-46.921,-1.438,8.053,0.719,17.595,-11.73,-41.056
4.425,2.06,8.047,0.623,-58.651,-1.485,7.76,-0.623,-52.786,-1.438,8.053,0.719,17.595,-11.73,-52.786
4.43,2.251,7.951,0.766,-64.516,-1.581,7.76,-0.623,-58.651,-1.438,7.909,0.575,5.865,-11.73,-58.651
4.4350000000000005,1.916,7.808,0.623,-76.246,-1.724,7.664,-0.814,-64.516,-1.438,7.909,0.719,17.595,-17.595,-58.651
4.44,1.198,7.041,0.0,-82.111,-1.677,7.377,-0.814,-70.381,-1.582,7.621,0.863,17.595,-17.595,-70.381
4.445,0.958,5.509,-0.719,-87.977,-1.293,6.898,-0.287,-76.246,-1.438,6.902,0.431,17.595,-17.595,-70.381
4.45,1.341,3.64,-1.293,-93.842,-0.862,5.988,0.431,-82.111,-1.007,6.327,-0.288,23.46,-17.595,-82.111
4.455,2.012,2.156,-1.629,-87.977,-1.054,4.79,1.102,-87.977,-1.007,5.608,-1.007,23.46,-17.595,-87.977
4.46,2.395,0.671,-1.916,-82.111,-1.437,3.545,1.485,-87.977,-1.294,4.602,-1.438,23.46,-23.46,-87.977
4.465,2.635,-1.293,-2.203,-64.516,-1.677,2.108,1.772,-82.111,-1.294,3.307,-1.726,17.595,-23.46,-87.977
4.47,2.682,-2.443,-2.251,-41.056,-1.964,0.287,2.06,-70.381,-1.582,1.438,-2.013,5.865,-23.46,-70.381
4.4750000000000005,2.874,-3.928,-2.395,-23.46,-1.964,-1.341,2.347,-52.786,-1.582,-0.431,-2.445,0.0,-17.595,-58.651
4.48,2.73,-5.556,-2.395,-0.0,-2.06,-2.73,2.251,-29.326,-1.869,-2.013,-2.301,0.0,-11.73,-35.191
4.485,2.874,-6.85,-2.635,35.191,-2.06,-3.928,2.395,-5.865,-1.582,-3.164,-2.445,-5.865,-5.865,-11.73
4.49,3.114,-8.191,-2.778,64.516,-2.156,-5.077,2.539,17.595,-1.869,-4.026,-2.588,-11.73,0.0,17.595
4.495,3.688,-9.293,-2.826,99.707,-1.964,-6.371,2.635,46.921,-1.726,-5.321,-2.732,-23.46,5.865,41.056
4.5,4.263,-10.873,-3.449,140.762,-2.156,-7.808,2.778,82.111,-1.294,-7.046,-2.876,-29.326,11.73,76.246
4.505,3.736,-11.783,-4.072,187.683,-2.203,-9.436,2.97,123.167,-1.007,-8.772,-3.02,-35.191,23.46,111.437
4.51,2.299,-11.736,-4.072,234.604,-2.156,-10.682,3.593,164.223,-0.863,-10.497,-3.595,-41.056,41.056,152.493
4.515,1.581,-11.017,-3.88,287.39,-1.245,-10.251,4.024,211.144,-0.288,-10.354,-4.17,-41.056,58.651,199.413
4.5200000000000005,0.431,-8.957,-4.694,340.176,-0.192,-8.766,3.64,263.93,0.863,-8.34,-3.883,-46.921,82.111,252.199
4.525,-3.066,-2.443,-5.556,381.232,0.335,-7.377,3.832,310.85,1.438,-6.471,-3.739,-58.651,105.572,299.12
4.53,-5.94,6.85,-4.694,410.557,2.73,-3.305,4.934,357.771,3.164,-3.739,-4.745,-76.246,123.167,351.906
4.535,-1.389,23.423,12.646,422.287,5.317,4.359,4.694,398.827,5.752,2.445,-4.889,-87.977,146.628,392.962
4.54,-21.699,19.831,16.334,140.762,6.946,14.035,2.97,422.287,6.471,10.354,-3.739,-93.842,158.358,416.422
4.545,-17.915,24.237,-2.778,-52.786,12.023,23.998,-14.131,404.692,17.4,55.075,20.851,-46.921,164.223,422.287
4.55,5.173,24.285,12.837,-46.921,9.532,24.046,1.102,76.246,-22.433,73.913,7.765,-29.326,193.548,111.437
4.555,-0.91,20.214,9.676,-5.865,17.579,24.046,-12.358,-64.516,29.767,37.244,8.053,-351.906,-46.921,-199.413
4.5600000000000005,2.826,8.047,1.15,-46.921,-0.144,12.598,-13.364,-23.46,7.621,2.732,15.099,-516.129,-105.572,-64.516
4.565,-0.335,7.041,-5.988,-70.381,-0.431,5.413,-5.365,-29.326,-2.013,1.007,7.621,-369.501,-35.191,-17.595
4.57,2.874,15.376,-6.083,-17.595,1.964,1.629,3.545,-70.381,4.17,-2.301,-1.294,-246.334,-29.326,-58.651
4.575,0.575,20.693,-5.748,70.381,-0.24,9.053,6.083,-46.921,0.719,2.013,-6.615,-170.088,-11.73,-58.651
4.58,0.24,23.95,-4.263,117.302,-0.575,16.238,5.556,35.191,-0.863,10.929,-5.896,-117.302,5.865,11.73
4.585,-0.192,24.285,-1.82,111.437,0.192,19.447,4.982,99.707,-0.719,16.393,-5.608,-70.381,23.46,93.842
4.59,0.0,24.237,-1.868,87.977,-0.048,20.262,2.443,111.437,-0.863,16.825,-3.451,-29.326,17.595,117.302
4.595,1.581,20.118,-3.449,64.516,0.287,20.07,1.389,93.842,-0.863,15.962,-1.869,5.865,5.865,105.572
4.6000000000000005,1.293,15.903,-4.646,58.651,0.0,18.537,2.347,70.381,-0.431,15.818,-2.013,70.381,-5.865,82.111
4.605,2.156,13.268,-4.311,46.921,-0.335,16.382,4.119,58.651,-0.575,15.53,-3.739,123.167,-11.73,64.516
4.61,1.629,11.975,-4.072,29.326,-0.958,14.849,4.167,52.786,-0.575,16.106,-4.026,152.493,-11.73,58.651
4.615,2.06,11.352,-3.449,-0.0,-0.479,13.747,3.784,35.191,-0.144,15.818,-3.595,152.493,-11.73,41.056
4.62,2.682,11.879,-2.826,-29.326,-0.91,13.316,3.497,17.595,-0.575,15.53,-3.451,140.762,-11.73,23.46
4.625,1.533,11.783,-2.299,-46.921,-1.054,13.556,2.682,-11.73,-0.288,15.818,-2.732,123.167,-5.865,0.0
4.63,0.527,11.113,-1.389,-58.651,-0.766,13.747,2.299,-41.056,-0.288,15.818,-2.301,93.842,0.0,-35.191
4.635,0.623,10.586,-0.431,-76.246,0.048,13.22,1.724,-52.786,0.144,15.387,-1.726,70.381,5.865,-52.786
4.64,0.719,10.059,0.335,-87.977,-0.096,12.502,0.766,-64.516,-0.144,14.811,-0.863,46.921,11.73,-58.651
4.6450000000000005,0.287,9.963,0.91,-87.977,-0.335,11.64,-0.144,-82.111,-0.431,13.661,0.144,23.46,11.73,-76.246
4.65,0.431,9.628,1.293,-82.111,-0.048,10.921,-0.671,-87.977,-0.431,12.079,0.719,0.0,11.73,-87.977
4.655,0.431,9.293,1.485,-76.246,-0.096,10.011,-1.15,-87.977,-0.431,10.641,1.15,-11.73,5.865,-82.111
4.66,0.814,9.915,1.293,-70.381,-0.192,9.388,-1.437,-82.111,-0.719,9.778,1.438,-17.595,5.865,-82.111
4.665,1.006,9.724,0.958,-70.381,-0.335,9.245,-1.341,-70.381,-0.575,9.059,1.438,-23.46,0.0,-70.381
4.67,1.15,9.628,0.527,-70.381,-0.575,9.293,-1.102,-70.381,-0.863,8.916,1.294,-17.595,-5.865,-64.516
4.675,1.293,9.293,0.192,-64.516,-0.623,9.149,-0.719,-70.381,-0.863,8.916,1.007,-17.595,-5.865,-70.381
4.68,1.389,8.862,0.048,-58.651,-0.671,8.862,-0.335,-64.516,-0.719,8.628,0.431,-5.865,-11.73,-64.516
4.6850000000000005,1.293,8.718,-0.048,-52.786,-0.814,8.478,-0.144,-58.651,-0.863,8.34,0.144,-5.865,-11.73,-64.516
4.69,1.341,8.478,-0.24,-46.921,-0.719,8.239,-0.048,-58.651,-0.719,7.909,0.144,5.865,-11.73,-58.651
4.695,1.437,8.287,-0.335,-41.056,-0.719,8.047,0.144,-52.786,-0.719,7.765,-0.144,5.865,-11.73,-52.786
4.7,1.437,8.239,-0.527,-41.056,-0.814,7.999,0.24,-46.921,-0.863,7.765,-0.288,17.595,-11.73,-46.921
4.705,1.389,8.095,-0.623,-35.191,-0.862,8.047,0.431,-41.056,-0.863,7.909,-0.431,23.46,-11.73,-41.056
4.71,1.341,7.904,-0.766,-35.191,-0.814,8.095,0.575,-35.191,-0.863,8.197,-0.575,23.46,-11.73,-35.191
4.715,1.437,7.808,-0.91,-29.326,-0.814,8.143,0.623,-35.191,-0.863,8.484,-0.575,29.326,-5.865,-35.191
4.72,1.485,7.712,-1.102,-29.326,-0.814,8.095,0.814,-29.326,-0.863,8.484,-0.719,23.46,-5.865,-29.326
4.7250000000000005,1.533,7.52,-1.293,-23.46,-0.862,8.047,0.958,-29.326,-0.863,8.484,-0.863,23.46,-5.865,-23.46
4.73,1.629,7.568,-1.341,-23.46,-0.814,7.904,1.15,-29.326,-0.863,8.34,-1.007,23.46,-5.865,-23.46
4.735,1.629,7.808,-1.533,-23.46,-0.958,7.76,1.293,-23.46,-0.863,8.197,-1.294,5.865,-5.865,-23.46
4.74,1.485,7.808,-1.533,-17.595,-0.862,7.808,1.389,-23.46,-0.719,8.053,-1.294,5.865,-5.865,-17.595
4.745,1.389,7.951,-1.533,-17.595,-0.862,7.999,1.437,-23.46,-0.863,8.197,-1.438,5.865,-5.865,-17.595
4.75,1.389,8.143,-1.437,-11.73,-0.719,7.999,1.485,-17.595,-0.719,8.197,-1.438,5.865,0.0,-17.595
4.755,1.341,8.287,-1.293,-5.865,-0.719,7.951,1.341,-11.73,-0.719,8.053,-1.438,5.865,0.0,-11.73
4.76,1.293,8.622,-1.198,-5.865,-0.719,7.951,1.293,-5.865,-0.719,7.909,-1.438,5.865,0.0,-5.865
4.765,1.102,8.909,-1.198,-5.865,-0.719,8.095,1.198,-5.865,-0.719,7.909,-1.294,5.865,0.0,-5.865
4.7700000000000005,1.054,9.101,-1.054,-0.0,-0.575,8.383,1.15,-5.865,-0.575,8.053,-1.15,5.865,5.865,0.0
4.775,1.006,9.197,-1.006,-0.0,-0.431,8.67,1.054,-5.865,-0.575,8.34,-1.15,5.865,5.865,0.0
4.78,1.15,9.341,-0.958,5.865,-0.383,8.862,0.958,0.0,-0.431,8.628,-1.007,17.595,5.865,0.0
4.785,1.054,9.388,-0.862,-0.0,-0.527,9.053,0.91,5.865,-0.575,9.203,-1.007,23.46,5.865,5.865
4.79,1.006,9.197,-0.814,-0.0,-0.527,9.293,0.814,5.865,-0.575,9.491,-0.863,23.46,5.865,5.865
4.795,1.006,9.005,-0.719,-0.0,-0.431,9.341,0.719,0.0,-0.431,9.635,-0.719,23.46,5.865,0.0
4.8,1.006,9.005,-0.719,-0.0,-0.335,9.245,0.719,0.0,-0.288,9.635,-0.719,23.46,5.865,0.0
4.805,0.958,9.149,-0.719,-5.865,-0.335,9.197,0.671,0.0,-0.431,9.635,-0.719,23.46,5.865,0.0
4.8100000000000005,0.958,9.341,-0.671,-0.0,-0.287,9.293,0.671,0.0,-0.288,9.635,-0.719,23.46,5.865,0.0
4.815,1.006,9.532,-0.575,-0.0,-0.287,9.532,0.623,0.0,-0.288,9.922,-0.575,17.595,5.865,0.0
4.82,1.006,9.58,-0.527,-0.0,-0.335,9.724,0.527,0.0,-0.431,10.21,-0.575,5.865,5.865,0.0
4.825,1.006,9.532,-0.527,-0.0,-0.335,9.772,0.479,0.0,-0.431,10.21,-0.431,5.865,5.865,0.0
4.83,1.054,9.58,-0.479,-5.865,-0.335,9.676,0.479,0.0,-0.431,10.066,-0.431,5.865,5.865,0.0
4.835,0.862,9.628,-0.431,-5.865,-0.431,9.58,0.431,0.0,-0.431,9.922,-0.431,5.865,5.865,0.0
4.84,0.719,9.676,-0.24,-5.865,-0.335,9.58,0.383,0.0,-0.431,9.778,-0.431,0.0,5.865,0.0
4.845,0.623,9.963,-0.096,-5.865,-0.287,9.628,0.24,-5.865,-0.431,9.778,-0.288,0.0,5.865,0.0
4.8500000000000005,0.766,10.107,-0.096,-5.865,-0.24,9.676,0.096,-5.865,-0.431,9.778,-0.144,0.0,5.865,0.0
4.855,0.862,9.963,-0.24,-5.865,-0.287,9.676,0.048,-5.865,-0.431,9.635,-0.0,0.0,5.865,0.0
4.86,0.958,9.82,-0.431,-5.865,-0.287,9.58,0.096,-5.865,-0.431,9.491,-0.144,5.865,0.0,0.0
4.865,1.15,9.676,-0.479,-5.865,-0.335,9.436,0.287,-5.865,-0.431,9.347,-0.288,5.865,0.0,0.0
4.87,1.102,9.628,-0.431,-0.0,-0.479,9.436,0.383,0.0,-0.431,9.347,-0.431,5.865,0.0,0.0
4.875,1.006,9.628,-0.287,-0.0,-0.479,9.532,0.383,0.0,-0.431,9.491,-0.431,5.865,0.0,0.0
4.88,1.006,9.532,-0.144,-0.0,-0.479,9.58,0.287,0.0,-0.431,9.778,-0.288,17.595,0.0,0.0
4.885,1.006,9.436,-0.096,-0.0,-0.479,9.58,0.144,0.0,-0.431,9.778,-0.144,17.595,0.0,0.0
4.89,1.054,9.293,-0.144,-0.0,-0.431,9.484,0.048,0.0,-0.575,9.635,-0.0,17.595,0.0,5.865
4.8950000000000005,1.054,9.388,-0.24,-0.0,-0.431,9.436,0.096,0.0,-0.575,9.778,-0.0,17.595,0.0,5.865
4.9,1.054,9.436,-0.287,-0.0,-0.479,9.436,0.144,0.0,-0.575,9.778,-0.144,17.595,0.0,0.0
4.905,1.15,9.628,-0.24,-0.0,-0.479,9.676,0.192,0.0,-0.431,10.066,-0.144,5.865,0.0,0.0
4.91,1.245,9.82,-0.287,-0.0,-0.527,9.772,0.192,0.0,-0.575,10.21,-0.144,5.865,-5.865,0.0
4.915,1.198,9.867,-0.383,-5.865,-0.527,9.915,0.24,0.0,-0.575,10.354,-0.144,5.865,-5.865,0.0
4.92,1.245,9.915,-0.479,-5.865,-0.527,9.963,0.24,0.0,-0.575,10.21,-0.288,5.865,-5.865,0.0
4.925,1.293,10.011,-0.431,-5.865,-0.479,9.963,0.383,-5.865,-0.575,10.21,-0.288,0.0,-5.865,0.0
4.93,1.341,10.203,-0.431,-5.865,-0.527,10.011,0.431,-5.865,-0.575,10.21,-0.431,0.0,0.0,0.0
4.9350000000000005,1.341,10.346,-0.383,-5.865,-0.623,10.155,0.335,-5.865,-0.575,10.354,-0.288,0.0,0.0,-5.865
4.94,1.245,10.442,-0.335,-5.865,-0.623,10.203,0.335,-5.865,-0.575,10.354,-0.288,-5.865,0.0,-5.865
4.945,1.15,10.586,-0.24,-11.73,-0.575,10.203,0.287,-5.865,-0.575,10.21,-0.288,-5.865,0.0,-5.865
4.95,1.15,10.825,-0.096,-5.865,-0.527,10.299,0.192,-5.865,-0.575,10.354,-0.288,-5.865,0.0,-5.865
4.955,1.198,11.065,-0.048,-5.865,-0.527,10.442,0.096,-5.865,-0.575,10.354,-0.144,0.0,0.0,-5.865
4.96,1.341,11.161,-0.048,-5.865,-0.575,10.634,0.048,-5.865,-0.719,10.497,-0.0,0.0,0.0,-5.865
4.965,1.389,11.065,-0.096,-11.73,-0.575,10.778,0.0,-5.865,-0.719,10.641,0.144,0.0,0.0,-5.865
4.97,1.389,10.825,-0.144,-11.73,-0.671,10.778,-0.048,-11.73,-0.719,10.785,-0.0,5.865,0.0,-5.865
4.9750000000000005,1.389,10.825,-0.287,-11.73,-0.719,10.682,0.048,-11.73,-0.719,10.785,-0.0,5.865,0.0,-5.865
4.98,1.629,10.778,-0.287,-11.73,-0.623,10.682,0.144,-11.73,-0.575,10.785,-0.144,5.865,0.0,-5.865
4.985,1.581,10.586,-0.335,-11.73,-0.766,10.682,0.192,-11.73,-0.719,10.785,-0.144,5.865,0.0,-11.73
4.99,1.533,10.49,-0.431,-11.73,-0.814,10.634,0.192,-11.73,-0.719,10.785,-0.144,5.865,5.865,-11.73
4.995,1.629,10.394,-0.479,-5.865,-0.719,10.442,0.287,-11.73,-0.719,10.641,-0.288,5.865,5.865,-11.73
5.0,1.724,10.346,-0.623,-11.73,-0.766,10.299,0.335,-5.865,-0.575,10.497,-0.288,5.865,5.865,-5.865
5.005,1.724,10.203,-0.719,-5.865,-0.862,10.299,0.431,-5.865,-0.719,10.497,-0.431,5.865,5.865,-5.865
5.01,1.772,10.107,-0.862,-5.865,-0.862,10.251,0.575,-5.865,-0.719,10.354,-0.575,5.865,11.73,-5.865
5.015,1.772,10.059,-0.91,-0.0,-0.91,10.155,0.719,-5.865,-0.719,10.354,-0.719,5.865,11.73,-5.865
5.0200000000000005,1.724,9.867,-0.814,-0.0,-0.958,10.107,0.814,0.0,-0.863,10.354,-0.863,5.865,17.595,0.0
5.025,1.677,10.203,-0.958,5.865,-0.958,10.011,0.766,0.0,-1.007,10.354,-0.863,5.865,17.595,0.0
5.03,1.82,10.251,-0.862,-0.0,-0.814,9.963,0.814,5.865,-0.719,10.066,-0.719,5.865,23.46,5.865
5.035,1.677,10.346,-0.91,-0.0,-1.102,10.059,0.814,5.865,-1.007,10.21,-0.863,5.865,23.46,5.865
5.04,1.533,10.538,-0.91,-0.0,-1.006,10.346,0.766,0.0,-1.007,10.641,-0.719,5.865,23.46,5.865
5.045,1.677,10.442,-0.766,-0.0,-0.862,10.538,0.862,0.0,-0.863,10.785,-0.863,5.865,29.326,0.0
5.05,1.677,10.442,-0.862,-0.0,-0.958,10.586,0.766,0.0,-1.007,10.929,-0.719,5.865,29.326,0.0
5.055,1.772,10.346,-0.958,-5.865,-0.958,10.49,0.766,0.0,-1.007,10.785,-0.719,5.865,29.326,0.0
5.0600000000000005,1.82,10.155,-1.054,-5.865,-1.006,10.346,0.862,0.0,-1.007,10.641,-0.863,5.865,29.326,0.0
5.065,1.868,10.107,-1.198,-5.865,-1.054,10.299,0.958,-5.865,-1.15,10.497,-0.863,0.0,29.326,0.0
5.07,1.964,10.155,-1.293,-5.865,-1.054,10.203,1.054,-5.865,-1.007,10.497,-1.007,0.0,29.326,0.0
5.075,2.012,10.107,-1.437,-5.865,-1.102,10.155,1.15,0.0,-1.15,10.497,-1.15,0.0,29.326,0.0
5.08,1.964,9.82,-1.533,-0.0,-1.198,10.203,1.245,0.0,-1.15,10.497,-1.294,0.0,35.191,0.0
5.085,2.012,9.724,-1.581,-0.0,-1.15,10.107,1.389,0.0,-1.15,10.497,-1.294,-5.865,35.191,0.0
5.09,2.108,9.628,-1.533,5.865,-1.15,9.963,1.485,0.0,-1.15,10.354,-1.438,-5.865,35.191,0.0
5.095,2.012,9.82,-1.485,5.865,-1.293,9.82,1.437,5.865,-1.294,10.21,-1.438,-5.865,35.191,5.865
5.1000000000000005,1.964,9.963,-1.389,11.73,-1.293,9.82,1.437,5.865,-1.294,10.066,-1.438,-11.73,41.056,11.73
5.105,1.916,10.107,-1.245,11.73,-1.245,10.011,1.389,11.73,-1.294,10.21,-1.438,-11.73,41.056,11.73
5.11,1.772,10.203,-1.102,17.595,-1.293,10.155,1.198,11.73,-1.438,10.354,-1.294,-17.595,41.056,17.595
5.115,1.629,10.394,-0.958,17.595,-1.245,10.203,1.054,17.595,-1.438,10.497,-1.15,-17.595,41.056,17.595
5.12,1.533,10.442,-0.862,23.46,-1.15,10.299,0.958,17.595,-1.438,10.497,-1.007,-17.595,41.056,23.46
5.125,1.533,10.634,-0.814,23.46,-1.15,10.394,0.862,23.46,-1.438,10.641,-0.863,-17.595,41.056,23.46
5.13,1.629,10.969,-0.862,23.46,-1.15,10.49,0.766,23.46,-1.438,10.641,-0.719,-17.595,41.056,23.46
5.135,1.772,11.209,-1.006,23.46,-1.102,10.682,0.814,23.46,-1.438,10.641,-0.719,-17.595,35.191,23.46
5.14,1.772,11.257,-1.245,23.46,-1.102,10.969,0.862,23.46,-1.294,10.929,-0.863,-17.595,35.191,29.326
5.1450000000000005,1.772,11.209,-1.485,23.46,-1.198,11.161,1.054,23.46,-1.294,11.36,-1.007,-17.595,35.191,29.326
5.15,1.724,11.065,-1.629,23.46,-1.102,11.304,1.293,23.46,-1.294,11.504,-1.15,-17.595,29.326,29.326
5.155,1.677,11.017,-1.724,23.46,-1.054,11.4,1.485,23.46,-1.15,11.792,-1.438,-17.595,29.326,23.46
5.16,1.629,11.257,-1.82,29.326,-1.006,11.448,1.581,23.46,-1.15,11.935,-1.582,-17.595,29.326,29.326
5.165,1.581,11.544,-1.964,29.326,-1.006,11.64,1.677,29.326,-1.15,12.223,-1.582,-23.46,29.326,29.326
5.17,1.437,11.927,-2.156,29.326,-0.91,11.831,1.82,29.326,-1.007,12.367,-1.726,-29.326,29.326,29.326
5.175,1.341,12.262,-2.347,29.326,-0.814,12.167,1.964,29.326,-1.007,12.654,-1.869,-35.191,29.326,29.326
5.18,1.341,12.598,-2.539,29.326,-0.671,12.454,2.108,29.326,-0.863,12.942,-2.013,-41.056,29.326,29.326
5.1850000000000005,1.341,12.837,-2.682,29.326,-0.623,12.741,2.299,29.326,-0.719,13.23,-2.157,-46.921,29.326,29.326
5.19,1.293,13.125,-2.778,29.326,-0.575,12.933,2.491,29.326,-0.719,13.373,-2.445,-46.921,29.326,29.326
5.195,1.198,13.412,-2.826,29.326,-0.527,13.125,2.587,29.326,-0.719,13.517,-2.588,-52.786,29.326,29.326
5.2,1.006,13.699,-2.778,29.326,-0.479,13.268,2.635,29.326,-0.575,13.517,-2.588,-52.786,29.326,29.326
5.205,0.766,13.891,-2.587,23.46,-0.383,13.412,2.635,23.46,-0.575,13.517,-2.588,-58.651,29.326,29.326
5.21,0.527,13.891,-2.347,23.46,-0.192,13.556,2.539,23.46,-0.431,13.517,-2.588,-58.651,35.191,29.326
5.215,0.287,13.891,-2.251,23.46,-0.096,13.556,2.299,23.46,-0.431,13.517,-2.445,-52.786,29.326,23.46
5.22,0.096,13.891,-2.299,23.46,0.048,13.46,2.156,23.46,-0.431,13.373,-2.157,-52.786,29.326,23.46
5.2250000000000005,0.287,13.939,-2.395,29.326,0.24,13.364,2.156,23.46,-0.144,13.23,-2.157,-46.921,23.46,23.46
5.23,0.383,13.987,-2.539,29.326,0.287,13.316,2.203,23.46,-0.144,13.086,-2.157,-41.056,23.46,29.326
5.235,0.383,13.891,-2.778,35.191,0.24,13.412,2.347,29.326,-0.144,13.086,-2.301,-35.191,17.595,29.326
5.24,0.431,13.843,-2.97,35.191,0.24,13.508,2.587,29.326,0.0,13.23,-2.588,-29.326,17.595,29.326
5.245,0.527,13.891,-3.018,35.191,0.287,13.604,2.778,35.191,0.144,13.517,-2.732,-23.46,11.73,35.191
5.25,0.575,13.891,-2.922,41.056,0.287,13.699,2.874,35.191,0.144,13.661,-2.876,-23.46,11.73,35.191
5.255,0.479,13.795,-2.826,41.056,0.192,13.843,2.826,35.191,0.144,13.949,-2.876,-17.595,11.73,41.056
5.26,0.383,13.747,-2.682,41.056,0.24,13.843,2.73,35.191,0.144,14.092,-2.732,-17.595,11.73,41.056
5.265,0.287,13.652,-2.491,35.191,0.335,13.843,2.587,35.191,0.144,14.092,-2.588,-17.595,11.73,41.056
5.2700000000000005,0.144,13.508,-2.395,35.191,0.383,13.747,2.443,35.191,0.288,14.092,-2.445,-17.595,11.73,41.056
5.275,0.096,13.412,-2.299,29.326,0.431,13.699,2.299,35.191,0.288,14.092,-2.301,-17.595,11.73,35.191
5.28,0.096,13.364,-2.347,29.326,0.527,13.556,2.251,29.326,0.431,13.949,-2.301,-23.46,11.73,35.191
5.285,0.048,13.316,-2.443,23.46,0.479,13.412,2.203,29.326,0.431,13.805,-2.157,-23.46,5.865,35.191
5.29,0.096,13.268,-2.587,23.46,0.527,13.412,2.299,23.46,0.431,13.661,-2.301,-23.46,5.865,29.326
5.295,0.144,13.173,-2.539,17.595,0.575,13.412,2.395,23.46,0.431,13.805,-2.301,-29.326,5.865,23.46
5.3,-0.048,13.077,-2.491,17.595,0.527,13.364,2.443,17.595,0.431,13.805,-2.445,-29.326,5.865,23.46
5.305,-0.24,12.981,-2.299,11.73,0.527,13.364,2.395,17.595,0.431,13.805,-2.445,-29.326,5.865,23.46
5.3100000000000005,-0.287,12.837,-2.108,5.865,0.575,13.268,2.299,11.73,0.288,13.805,-2.301,-35.191,0.0,17.595
5.315,-0.24,12.694,-2.06,5.865,0.671,13.077,2.108,5.865,0.431,13.661,-2.157,-41.056,0.0,11.73
5.32,-0.192,12.502,-2.06,-0.0,0.623,12.789,1.964,5.865,0.288,13.23,-2.013,-41.056,-5.865,11.73
5.325,-0.096,12.406,-2.06,-0.0,0.623,12.502,1.964,5.865,0.288,12.798,-1.869,-41.056,-5.865,5.865
5.33,0.048,12.31,-2.108,-0.0,0.623,12.262,1.964,0.0,0.431,12.367,-1.869,-46.921,-11.73,5.865
5.335,0.144,12.215,-2.156,5.865,0.575,12.071,2.012,5.865,0.431,12.079,-2.013,-41.056,-17.595,5.865
5.34,0.192,11.927,-2.203,5.865,0.479,11.879,2.012,5.865,0.288,11.792,-2.013,-41.056,-17.595,5.865
5.345,0.24,11.688,-2.108,5.865,0.431,11.688,2.108,5.865,0.431,11.648,-2.157,-35.191,-17.595,5.865
5.3500000000000005,0.335,11.64,-2.012,11.73,0.383,11.544,2.06,5.865,0.144,11.504,-2.157,-35.191,-17.595,5.865
5.355,0.383,11.496,-1.964,11.73,0.335,11.352,1.964,5.865,0.144,11.36,-2.013,-29.326,-23.46,11.73
5.36,0.383,11.113,-1.916,11.73,0.287,11.161,1.868,11.73,0.144,11.073,-1.869,-29.326,-23.46,11.73
5.365,0.335,10.969,-1.964,11.73,0.24,10.921,1.868,11.73,0.144,10.785,-1.869,-23.46,-23.46,11.73
5.37,0.431,10.825,-1.868,11.73,0.287,10.682,1.868,11.73,0.144,10.641,-1.869,-17.595,-23.46,11.73
5.375,0.479,10.778,-1.916,11.73,0.24,10.586,1.82,11.73,0.144,10.641,-1.869,-17.595,-23.46,17.595
5.38,0.479,10.682,-2.012,11.73,0.144,10.538,1.82,11.73,0.144,10.641,-1.869,-11.73,-23.46,17.595
5.385,0.527,10.73,-2.012,11.73,0.144,10.538,1.868,11.73,0.0,10.641,-1.869,-11.73,-23.46,17.595
5.39,0.575,10.682,-1.964,11.73,0.144,10.586,1.916,11.73,0.144,10.641,-1.869,-5.865,-23.46,17.595
5.3950000000000005,0.431,10.49,-1.964,5.865,0.048,10.634,1.868,11.73,0.0,10.785,-1.869,-5.865,-23.46,17.595
5.4,0.287,10.299,-1.916,5.865,0.096,10.634,1.82,11.73,0.0,10.929,-1.869,-5.865,-23.46,11.73
5.405,0.383,10.155,-1.82,5.865,0.192,10.49,1.868,5.865,0.0,10.929,-1.869,-5.865,-23.46,5.865
5.41,0.383,10.107,-1.677,-0.0,0.192,10.442,1.772,5.865,0.0,10.929,-1.869,-11.73,-23.46,5.865
5.415,0.383,10.059,-1.724,-0.0,0.096,10.299,1.677,5.865,0.0,10.785,-1.726,-11.73,-29.326,5.865
5.42,0.383,9.772,-1.677,-0.0,0.144,10.203,1.629,0.0,0.0,10.641,-1.582,-17.595,-29.326,5.865
5.425,0.431,9.532,-1.724,-0.0,0.096,10.059,1.629,0.0,0.0,10.497,-1.582,-17.595,-29.326,0.0
5.43,0.575,9.388,-1.82,-0.0,0.096,9.82,1.677,0.0,-0.144,10.21,-1.582,-17.595,-29.326,0.0
5.4350000000000005,0.671,9.245,-1.916,-0.0,0.0,9.532,1.724,0.0,-0.144,9.922,-1.726,-23.46,-35.191,0.0
5.44,0.719,9.053,-2.012,-0.0,-0.048,9.245,1.82,0.0,-0.144,9.491,-1.726,-23.46,-35.191,0.0
5.445,0.814,8.909,-2.108,-0.0,-0.096,8.957,1.868,0.0,-0.144,9.059,-1.869,-23.46,-35.191,0.0
5.45,0.91,8.909,-2.203,5.865,-0.144,8.718,2.012,0.0,-0.144,8.772,-2.013,-23.46,-35.191,0.0
5.455,0.91,8.909,-2.156,5.865,-0.144,8.526,2.06,0.0,-0.144,8.484,-2.157,-23.46,-35.191,5.865
5.46,0.862,9.053,-2.108,11.73,-0.144,8.478,2.108,5.865,-0.144,8.34,-2.157,-17.595,-35.191,5.865
5.465,0.623,9.197,-1.964,11.73,-0.144,8.526,2.06,11.73,-0.144,8.34,-2.157,-17.595,-35.191,11.73
5.47,0.479,9.436,-1.916,17.595,-0.048,8.766,1.964,11.73,0.0,8.484,-2.013,-11.73,-29.326,11.73
5.4750000000000005,0.383,9.772,-1.916,11.73,0.048,9.005,1.868,17.595,0.0,8.772,-1.869,-5.865,-29.326,17.595
5.48,0.287,10.011,-1.964,11.73,0.096,9.245,1.82,17.595,0.0,9.059,-1.869,0.0,-29.326,17.595
5.485,0.431,10.107,-2.012,11.73,0.24,9.58,1.868,17.595,0.144,9.347,-1.869,5.865,-29.326,17.595
5.49,0.575,10.155,-2.203,11.73,0.144,9.82,1.868,11.73,0.144,9.778,-1.869,5.865,-29.326,17.595
5.495,0.671,9.915,-2.347,5.865,0.096,9.963,2.012,11.73,0.0,10.066,-2.013,5.865,-29.326,11.73
5.5,0.719,9.58,-2.395,-0.0,0.096,9.915,2.203,5.865,0.144,10.21,-2.157,5.865,-29.326,11.73
5.505,0.671,9.197,-2.443,-0.0,0.0,9.724,2.299,0.0,0.0,10.066,-2.301,5.865,-29.326,5.865
5.51,0.623,8.862,-2.299,-5.865,0.0,9.484,2.299,0.0,0.0,9.922,-2.301,5.865,-29.326,5.865
5.515,0.575,8.574,-2.156,-5.865,0.048,9.245,2.299,-5.865,0.144,9.778,-2.301,5.865,-29.326,0.0
5.5200000000000005,0.575,8.335,-2.012,-11.73,0.048,8.957,2.156,-5.865,0.144,9.635,-2.157,5.865,-29.326,-5.865
5.525,0.575,8.095,-1.868,-5.865,0.048,8.718,2.012,-5.865,0.0,9.347,-2.013,0.0,-29.326,-5.865
5.53,0.623,7.904,-1.82,-5.865,0.048,8.383,1.868,-5.865,0.0,8.916,-1.869,0.0,-29.326,-5.865
5.535,0.671,7.664,-1.868,-5.865,0.0,8.047,1.772,-5.865,0.0,8.484,-1.869,-5.865,-29.326,-5.865
5.54,0.671,7.52,-1.916,-5.865,-0.048,7.808,1.772,-5.865,0.0,8.053,-1.726,-5.865,-29.326,-5.865
5.545,0.719,7.425,-1.964,-5.865,0.0,7.616,1.82,-5.865,0.0,7.909,-1.869,-5.865,-29.326,-5.865
5.55,0.719,7.616,-1.868,-0.0,-0.048,7.472,1.868,-5.865,0.0,7.765,-1.869,-5.865,-23.46,-5.865
5.555,0.623,7.856,-1.677,-0.0,-0.096,7.472,1.82,-5.865,0.0,7.621,-1.869,-5.865,-23.46,0.0
5.5600000000000005,0.479,7.904,-1.533,-0.0,0.0,7.616,1.677,0.0,0.0,7.621,-1.726,-11.73,-23.46,0.0
5.565,0.335,7.904,-1.389,-0.0,0.0,7.664,1.533,0.0,0.0,7.621,-1.582,-5.865,-23.46,5.865
5.57,0.287,7.951,-1.341,-0.0,0.144,7.664,1.389,0.0,0.144,7.621,-1.438,-5.865,-23.46,0.0
5.575,0.24,7.856,-1.245,-0.0,0.192,7.616,1.293,0.0,0.144,7.621,-1.294,-5.865,-23.46,5.865
5.58,0.048,7.712,-1.245,-5.865,0.24,7.616,1.245,0.0,0.144,7.621,-1.294,0.0,-23.46,0.0
5.585,-0.048,7.616,-1.245,-5.865,0.335,7.52,1.198,0.0,0.144,7.621,-1.294,0.0,-23.46,0.0
5.59,-0.048,7.568,-1.245,-5.865,0.431,7.377,1.198,-5.865,0.431,7.334,-1.294,5.865,-23.46,0.0
5.595,-0.096,7.472,-1.341,-5.865,0.479,7.329,1.198,-5.865,0.431,7.334,-1.294,5.865,-23.46,0.0
5.6000000000000005,0.0,7.425,-1.437,-5.865,0.527,7.329,1.245,-5.865,0.431,7.334,-1.294,5.865,-23.46,0.0
5.605,0.048,7.377,-1.485,-5.865,0.575,7.329,1.341,-5.865,0.575,7.334,-1.294,5.865,-29.326,0.0
5.61,0.096,7.281,-1.533,-5.865,0.527,7.329,1.389,-5.865,0.575,7.478,-1.438,5.865,-29.326,0.0
5.615,0.048,7.233,-1.533,-5.865,0.479,7.329,1.437,-5.865,0.575,7.478,-1.438,5.865,-29.326,0.0
5.62,0.096,7.137,-1.533,-5.865,0.527,7.281,1.485,-5.865,0.575,7.478,-1.582,5.865,-29.326,0.0
5.625,0.048,6.946,-1.533,-5.865,0.479,7.233,1.485,-5.865,0.575,7.478,-1.582,17.595,-29.326,-5.865
5.63,0.0,6.754,-1.485,-11.73,0.479,7.185,1.485,-5.865,0.575,7.478,-1.582,5.865,-29.326,-5.865
5.635,0.0,6.658,-1.437,-11.73,0.479,6.993,1.437,-5.865,0.575,7.478,-1.438,5.865,-23.46,-5.865
5.64,-0.096,6.562,-1.389,-11.73,0.479,6.85,1.389,-11.73,0.575,7.19,-1.438,5.865,-29.326,-5.865
5.6450000000000005,-0.144,6.514,-1.437,-11.73,0.527,6.706,1.341,-11.73,0.575,7.046,-1.438,5.865,-23.46,-11.73
5.65,-0.192,6.61,-1.389,-11.73,0.575,6.562,1.389,-11.73,0.575,6.759,-1.438,5.865,-23.46,-11.73
5.655,-0.192,6.754,-1.293,-11.73,0.623,6.562,1.389,-11.73,0.575,6.759,-1.438,5.865,-29.326,-11.73
5.66,-0.24,6.898,-1.293,-11.73,0.623,6.658,1.293,-11.73,0.575,6.759,-1.294,5.865,-29.326,-5.865
5.665,-0.287,7.089,-1.341,-11.73,0.623,6.754,1.245,-11.73,0.575,6.902,-1.294,5.865,-29.326,-5.865
5.67,-0.335,7.233,-1.293,-11.73,0.719,6.802,1.293,-11.73,0.719,6.759,-1.294,5.865,-29.326,-11.73
5.675,-0.383,7.233,-1.245,-11.73,0.814,6.946,1.245,-11.73,0.719,6.902,-1.294,5.865,-29.326,-11.73
5.68,-0.383,7.185,-1.245,-17.595,0.814,7.041,1.245,-11.73,0.863,7.046,-1.294,5.865,-29.326,-11.73
5.6850000000000005,-0.431,7.089,-1.245,-17.595,0.814,7.041,1.198,-11.73,0.863,7.19,-1.15,5.865,-29.326,-11.73
5.69,-0.479,7.089,-1.293,-17.595,0.862,6.993,1.15,-17.595,0.863,7.046,-1.294,17.595,-29.326,-11.73
5.695,-0.575,7.089,-1.341,-17.595,0.958,6.946,1.198,-17.595,1.007,7.046,-1.294,17.595,-29.326,-11.73
5.7,-0.575,7.185,-1.437,-17.595,1.006,6.993,1.245,-17.595,1.007,7.046,-1.294,17.595,-29.326,-11.73
5.705,-0.575,7.233,-1.533,-17.595,1.054,7.137,1.341,-17.595,1.15,7.19,-1.294,23.46,-29.326,-17.595
5.71,-0.527,7.233,-1.581,-17.595,1.102,7.233,1.437,-17.595,1.15,7.334,-1.438,23.46,-29.326,-11.73
5.715,-0.575,7.233,-1.629,-17.595,1.102,7.329,1.485,-11.73,1.15,7.478,-1.438,23.46,-29.326,-11.73
5.72,-0.575,7.233,-1.677,-11.73,1.15,7.329,1.533,-17.595,1.294,7.621,-1.582,23.46,-29.326,-11.73
5.7250000000000005,-0.623,7.281,-1.629,-11.73,1.198,7.329,1.581,-11.73,1.294,7.621,-1.582,23.46,-29.326,-11.73
5.73,-0.719,7.329,-1.485,-11.73,1.198,7.377,1.581,-11.73,1.294,7.621,-1.582,23.46,-29.326,-11.73
5.735,-0.958,7.377,-1.389,-11.73,1.245,7.425,1.485,-11.73,1.294,7.621,-1.582,17.595,-29.326,-11.73
5.74,-1.102,7.425,-1.198,-11.73,1.341,7.52,1.389,-11.73,1.438,7.765,-1.438,17.595,-29.326,-11.73
5.745,-1.198,7.425,-1.054,-11.73,1.437,7.568,1.245,-11.73,1.438,7.909,-1.294,17.595,-29.326,-11.73
5.75,-1.198,7.377,-1.006,-17.595,1.533,7.616,1.054,-11.73,1.438,7.909,-1.15,5.865,-29.326,-11.73
5.755,-1.245,7.377,-1.054,-17.595,1.533,7.568,1.006,-11.73,1.438,7.909,-1.007,5.865,-29.326,-11.73
5.76,-1.293,7.52,-1.102,-17.595,1.629,7.52,1.006,-17.595,1.582,7.909,-1.007,5.865,-29.326,-11.73
5.765,-1.15,7.808,-1.054,-17.595,1.677,7.616,1.006,-17.595,1.582,7.909,-1.007,5.865,-29.326,-11.73
5.7700000000000005,-1.102,8.095,-1.054,-17.595,1.677,7.76,1.054,-17.595,1.726,8.053,-1.007,5.865,-35.191,-11.73
5.775,-1.15,8.239,-1.054,-17.595,1.629,7.904,1.006,-17.595,1.726,8.053,-1.007,5.865,-35.191,-11.73
5.78,-1.245,8.335,-1.006,-17.595,1.677,7.999,1.006,-17.595,1.726,8.053,-1.007,5.865,-35.191,-17.595
5.785,-1.293,8.335,-0.862,-17.595,1.724,8.143,0.958,-17.595,1.869,8.197,-1.007,5.865,-35.191,-11.73
5.79,-1.341,8.335,-0.766,-17.595,1.772,8.191,0.862,-17.595,1.869,8.197,-0.863,5.865,-35.191,-17.595
5.795,-1.389,8.335,-0.719,-17.595,1.772,8.239,0.719,-17.595,1.726,8.34,-0.719,5.865,-35.191,-17.595
5.8,-1.389,8.287,-0.671,-11.73,1.82,8.239,0.671,-17.595,1.869,8.34,-0.719,5.865,-35.191,-11.73
5.805,-1.389,8.239,-0.623,-11.73,1.82,8.239,0.623,-17.595,1.869,8.34,-0.719,5.865,-35.191,-11.73
5.8100000000000005,-1.389,8.239,-0.623,-11.73,1.868,8.239,0.623,-11.73,1.869,8.34,-0.575,5.865,-35.191,-11.73
5.815,-1.437,8.287,-0.575,-11.73,1.868,8.287,0.575,-11.73,1.869,8.484,-0.575,17.595,-35.191,-11.73
5.82,-1.533,8.478,-0.479,-5.865,1.868,8.383,0.527,-11.73,1.869,8.628,-0.575,17.595,-35.191,-5.865
5.825,-1.581,8.622,-0.431,-5.865,1.916,8.574,0.431,-5.865,1.869,8.772,-0.431,17.595,-41.056,-5.865
5.83,-1.629,8.814,-0.383,-5.865,1.964,8.718,0.383,-5.865,1.869,9.059,-0.431,17.595,-41.056,-5.865
5.835,-1.581,8.957,-0.383,-5.865,1.964,8.909,0.335,-5.865,1.869,9.203,-0.288,5.865,-41.056,-5.865
5.84,-1.533,9.101,-0.431,-5.865,1.964,9.053,0.335,-5.865,1.869,9.347,-0.288,5.865,-41.056,0.0
5.845,-1.437,9.149,-0.479,-11.73,1.964,9.197,0.335,-5.865,1.869,9.491,-0.288,5.865,-46.921,-5.865
5.8500000000000005,-1.533,9.101,-0.431,-11.73,1.916,9.245,0.383,-5.865,1.869,9.491,-0.288,5.865,-46.921,-5.865
5.855,-1.437,9.005,-0.431,-11.73,1.868,9.341,0.431,-11.73,1.869,9.778,-0.431,5.865,-46.921,-5.865
5.86,-1.341,9.005,-0.431,-17.595,1.868,9.341,0.383,-11.73,1.869,9.778,-0.431,5.865,-46.921,-11.73
5.865,-1.245,8.957,-0.431,-17.595,1.82,9.245,0.335,-17.595,1.726,9.635,-0.288,0.0,-52.786,-11.73
5.87,-1.15,8.766,-0.431,-23.46,1.724,9.149,0.335,-17.595,1.726,9.635,-0.288,-5.865,-52.786,-11.73
5.875,-1.15,8.526,-0.479,-23.46,1.629,9.005,0.335,-23.46,1.726,9.491,-0.288,-5.865,-52.786,-17.595
5.88,-1.054,8.287,-0.431,-29.326,1.629,8.814,0.431,-29.326,1.726,9.203,-0.431,-5.865,-52.786,-23.46
5.885,-0.958,8.143,-0.335,-29.326,1.581,8.574,0.383,-29.326,1.582,9.059,-0.431,-11.73,-58.651,-23.46
5.89,-1.006,8.143,-0.335,-29.326,1.485,8.383,0.287,-29.326,1.582,8.772,-0.288,-11.73,-58.651,-23.46
5.8950000000000005,-1.006,8.191,-0.24,-29.326,1.437,8.239,0.24,-29.326,1.438,8.484,-0.288,-17.595,-58.651,-23.46
5.9,-0.91,8.383,-0.144,-29.326,1.437,8.191,0.24,-29.326,1.438,8.484,-0.144,-17.595,-58.651,-23.46
5.905,-0.814,8.478,-0.096,-29.326,1.389,8.191,0.144,-29.326,1.438,8.34,-0.144,-17.595,-58.651,-23.46
5.91,-0.766,8.43,-0.048,-23.46,1.293,8.191,0.048,-29.326,1.294,8.197,-0.0,-17.595,-58.651,-23.46
5.915,-0.671,8.287,-0.048,-23.46,1.293,8.095,0.0,-23.46,1.294,8.053,-0.0,-17.595,-58.651,-23.46
5.92,-0.623,8.287,-0.048,-23.46,1.198,7.999,-0.048,-23.46,1.15,7.909,0.144,-11.73,-58.651,-23.46
5.925,-0.527,8.239,0.0,-23.46,1.198,7.904,0.0,-23.46,1.294,7.765,-0.0,-5.865,-58.651,-23.46
5.93,-0.479,8.143,0.0,-17.595,1.102,7.951,-0.048,-23.46,1.15,7.765,0.144,-5.865,-58.651,-17.595
5.9350000000000005,-0.479,8.143,-0.048,-17.595,1.054,7.951,-0.096,-23.46,1.15,7.909,0.144,0.0,-58.651,-17.595
5.94,-0.431,8.191,-0.144,-17.595,1.006,7.999,-0.048,-17.595,1.15,8.053,0.144,5.865,-58.651,-17.595
5.945,-0.383,8.191,-0.192,-17.595,1.006,8.095,0.048,-17.595,1.007,8.197,-0.0,5.865,-58.651,-11.73
5.95,-0.431,8.383,-0.383,-17.595,0.958,8.239,0.096,-17.595,1.007,8.34,-0.0,5.865,-58.651,-11.73
5.955,-0.383,8.622,-0.431,-17.595,1.006,8.383,0.24,-17.595,1.007,8.628,-0.144,5.865,-58.651,-11.73
5.96,-0.431,8.862,-0.431,-17.595,0.958,8.622,0.335,-17.595,1.15,8.772,-0.288,5.865,-58.651,-11.73
5.965,-0.527,8.957,-0.383,-17.595,1.006,8.862,0.335,-17.595,1.007,9.059,-0.288,5.865,-58.651,-11.73
5.97,-0.671,8.957,-0.383,-23.46,1.006,9.005,0.287,-17.595,1.007,9.203,-0.288,5.865,-58.651,-17.595
5.9750000000000005,-0.671,9.053,-0.383,-23.46,1.102,9.101,0.287,-23.46,1.15,9.491,-0.288,0.0,-58.651,-17.595
5.98,-0.623,9.197,-0.335,-29.326,1.198,9.149,0.335,-23.46,1.15,9.491,-0.288,0.0,-58.651,-17.595
5.985,-0.575,9.245,-0.287,-29.326,1.198,9.197,0.24,-23.46,1.294,9.491,-0.288,0.0,-58.651,-23.46
5.99,-0.623,9.245,-0.24,-29.326,1.198,9.245,0.192,-29.326,1.294,9.491,-0.144,0.0,-58.651,-23.46
5.995,-0.671,9.197,-0.144,-29.326,1.198,9.149,0.144,-29.326,1.294,9.347,-0.144,-5.865,-64.516,-23.46
6.0,-0.719,9.101,-0.096,-29.326,1.245,9.101,0.096,-29.326,1.294,9.203,-0.144,-5.865,-58.651,-23.46
6.005,-0.766,9.053,-0.048,-29.326,1.245,9.101,0.048,-29.326,1.294,9.203,-0.0,0.0,-58.651,-29.326
6.01,-0.766,9.005,0.0,-35.191,1.293,9.005,0.0,-35.191,1.294,9.203,-0.0,0.0,-58.651,-29.326
6.015000000000001,-0.719,9.101,0.048,-29.326,1.341,8.909,-0.048,-35.191,1.438,9.059,0.144,0.0,-58.651,-35.191
6.0200000000000005,-0.719,9.149,0.144,-29.326,1.341,8.862,-0.096,-35.191,1.438,8.916,0.144,0.0,-58.651,-29.326
6.025,-0.814,9.149,0.192,-29.326,1.341,8.862,-0.24,-35.191,1.438,8.772,0.288,0.0,-58.651,-29.326
6.03,-0.814,9.149,0.144,-29.326,1.341,8.862,-0.24,-35.191,1.438,8.772,0.288,5.865,-58.651,-29.326
6.035,-0.766,9.197,0.144,-29.326,1.389,8.909,-0.24,-29.326,1.438,8.916,0.288,5.865,-58.651,-29.326
6.04,-0.671,9.245,0.096,-29.326,1.341,8.957,-0.24,-29.326,1.438,8.916,0.288,5.865,-58.651,-29.326
6.045,-0.623,9.197,0.096,-29.326,1.293,8.957,-0.192,-29.326,1.438,8.916,0.288,5.865,-58.651,-29.326
6.05,-0.671,9.149,0.192,-29.326,1.245,8.957,-0.192,-29.326,1.438,8.916,0.288,17.595,-58.651,-23.46
6.055,-0.814,9.101,0.287,-29.326,1.245,8.957,-0.24,-29.326,1.294,8.916,0.288,17.595,-58.651,-23.46
6.0600000000000005,-0.814,9.101,0.431,-29.326,1.293,9.005,-0.335,-29.326,1.294,9.059,0.431,23.46,-52.786,-23.46
6.065,-0.862,9.101,0.575,-29.326,1.293,9.053,-0.431,-29.326,1.294,9.203,0.431,23.46,-52.786,-29.326
6.07,-0.862,9.101,0.671,-35.191,1.293,9.053,-0.575,-29.326,1.15,9.347,0.575,23.46,-58.651,-29.326
6.075,-0.814,9.149,0.719,-35.191,1.293,9.053,-0.719,-35.191,1.294,9.203,0.719,23.46,-58.651,-29.326
6.08,-0.814,9.149,0.862,-35.191,1.293,9.053,-0.766,-35.191,1.294,9.203,0.863,23.46,-58.651,-29.326
6.085,-0.862,9.101,0.91,-35.191,1.293,9.053,-0.91,-35.191,1.294,9.203,0.863,23.46,-58.651,-29.326
6.09,-0.958,9.053,0.958,-35.191,1.245,9.101,-0.958,-35.191,1.294,9.203,1.007,23.46,-58.651,-35.191
6.095,-0.958,9.053,0.91,-35.191,1.293,9.149,-1.006,-35.191,1.15,9.347,1.007,23.46,-58.651,-35.191
6.1000000000000005,-0.958,9.053,0.862,-35.191,1.293,9.245,-1.006,-35.191,1.15,9.491,1.15,23.46,-64.516,-35.191
6.105,-0.814,9.149,0.719,-35.191,1.293,9.341,-0.958,-35.191,1.15,9.778,1.007,23.46,-64.516,-35.191
6.11,-0.719,9.341,0.575,-35.191,1.245,9.436,-0.814,-35.191,1.15,9.922,1.007,23.46,-64.516,-35.191
6.115,-0.623,9.436,0.431,-35.191,1.198,9.532,-0.719,-35.191,1.15,9.922,0.863,17.595,-70.381,-35.191
6.12,-0.527,9.628,0.335,-35.191,1.15,9.628,-0.575,-35.191,1.15,10.066,0.719,5.865,-70.381,-35.191
6.125,-0.479,9.82,0.192,-35.191,1.102,9.724,-0.431,-35.191,1.15,10.066,0.575,5.865,-70.381,-35.191
6.13,-0.383,9.963,0.048,-35.191,1.054,9.867,-0.335,-35.191,1.15,10.21,0.431,5.865,-70.381,-35.191
6.135,-0.287,10.107,-0.048,-41.056,1.006,10.059,-0.24,-41.056,1.007,10.354,0.288,5.865,-70.381,-35.191
6.140000000000001,-0.192,10.251,-0.24,-41.056,0.91,10.155,-0.096,-41.056,1.007,10.497,0.144,5.865,-70.381,-35.191
6.1450000000000005,0.0,10.346,-0.431,-41.056,0.862,10.203,0.096,-41.056,0.863,10.497,0.144,5.865,-76.246,-35.191
6.15,0.144,10.442,-0.527,-41.056,0.766,10.203,0.24,-41.056,0.863,10.354,-0.144,0.0,-76.246,-41.056
