time_aligned_sec,L_Acc_X_aligned,L_Acc_Y_aligned,L_Acc_Z_aligned,L_Gyro_Z_aligned,R_Acc_X_aligned,R_Acc_Y_aligned,R_Acc_Z_aligned,R_Gyro_Z_aligned,T_Acc_X_aligned,T_Acc_Y_aligned,T_Acc_Z_aligned,T_Gyro_X_aligned,T_Gyro_Y_aligned,T_Gyro_Z_aligned
0.0,-4.024,3.688,9.341,-11.73,4.455,3.305,-9.053,-11.73,-4.026,4.17,-9.203,58.651,17.595,17.595
0.005,-3.976,3.545,9.388,-11.73,4.455,3.209,-9.053,-11.73,-4.026,4.026,-9.347,52.786,17.595,17.595
0.01,-3.928,3.449,9.388,-11.73,4.455,3.114,-9.005,-11.73,-3.883,3.883,-9.347,46.921,23.46,11.73
0.015,-3.928,3.257,9.388,-11.73,4.311,3.066,-8.957,-11.73,-3.883,3.739,-9.347,46.921,23.46,11.73
0.02,-3.832,3.114,9.293,-11.73,4.215,3.066,-8.766,-11.73,-3.883,3.451,-9.347,41.056,23.46,11.73
0.025,-3.736,2.97,9.149,-11.73,4.167,2.97,-8.574,-17.595,-3.739,3.164,-9.203,41.056,23.46,17.595
0.03,-3.688,2.826,8.957,-17.595,4.024,2.874,-8.478,-17.595,-3.595,3.02,-9.059,41.056,23.46,17.595
0.035,-3.593,2.73,8.814,-17.595,4.024,2.922,-8.335,-17.595,-3.595,2.876,-8.916,41.056,23.46,17.595
0.04,-3.497,2.635,8.67,-17.595,3.976,2.874,-8.191,-17.595,-3.451,2.588,-8.772,41.056,23.46,23.46
0.045,-3.401,2.491,8.574,-23.46,3.832,2.778,-8.095,-23.46,-3.307,2.445,-8.628,41.056,29.326,23.46
0.05,-3.353,2.395,8.478,-23.46,3.832,2.682,-8.047,-29.326,-3.307,2.301,-8.484,46.921,29.326,23.46
0.055,-3.305,2.347,8.43,-29.326,3.832,2.682,-7.999,-29.326,-3.164,2.157,-8.34,46.921,29.326,29.326
0.06,-3.305,2.347,8.383,-29.326,3.784,2.73,-7.951,-35.191,-3.164,2.157,-8.34,52.786,29.326,35.191
0.065,-3.305,2.491,8.335,-35.191,3.784,2.826,-7.951,-41.056,-3.164,2.301,-8.34,58.651,35.191,35.191
0.07,-3.305,2.73,8.287,-41.056,3.736,2.97,-7.904,-41.056,-3.307,2.588,-8.197,58.651,35.191,41.056
0.075,-3.353,2.97,8.287,-41.056,3.832,3.161,-7.951,-46.921,-3.307,2.876,-8.197,64.516,35.191,41.056
0.08,-3.401,3.257,8.335,-41.056,3.88,3.305,-7.951,-46.921,-3.307,3.307,-8.197,64.516,35.191,46.921
0.085,-3.497,3.545,8.335,-46.921,3.976,3.497,-7.999,-46.921,-3.451,3.739,-8.197,64.516,35.191,46.921
0.09,-3.545,3.832,8.383,-46.921,3.976,3.688,-8.095,-46.921,-3.595,4.026,-8.34,64.516,35.191,46.921
0.095,-3.593,4.024,8.43,-46.921,4.024,3.784,-8.047,-46.921,-3.595,4.458,-8.34,58.651,35.191,46.921
0.1,-3.64,4.167,8.383,-46.921,4.072,3.832,-7.904,-41.056,-3.595,4.602,-8.34,58.651,35.191,46.921
0.105,-3.688,4.215,8.287,-41.056,4.024,3.928,-7.76,-41.056,-3.739,4.745,-8.34,52.786,35.191,46.921
0.11,-3.64,4.215,8.143,-41.056,3.928,4.024,-7.616,-41.056,-3.739,4.745,-8.197,46.921,35.191,46.921
0.115,-3.545,4.167,8.047,-41.056,3.928,4.215,-7.568,-41.056,-3.595,4.602,-8.053,41.056,35.191,41.056
0.12,-3.497,4.072,7.951,-41.056,3.976,4.215,-7.472,-41.056,-3.595,4.314,-7.909,41.056,35.191,41.056
0.125,-3.449,3.976,7.856,-41.056,3.928,4.215,-7.425,-41.056,-3.451,4.026,-7.909,35.191,35.191,41.056
0.13,-3.401,3.928,7.808,-41.056,3.928,4.215,-7.472,-46.921,-3.451,3.883,-7.765,41.056,35.191,46.921
0.135,-3.353,3.832,7.856,-46.921,3.928,4.263,-7.52,-46.921,-3.307,3.739,-7.765,41.056,35.191,46.921
0.14,-3.305,3.784,7.904,-46.921,4.072,4.359,-7.568,-52.786,-3.164,3.595,-7.765,41.056,35.191,46.921
0.145,-3.305,3.736,7.904,-52.786,4.215,4.455,-7.664,-58.651,-3.02,3.451,-7.765,46.921,35.191,52.786
0.15,-3.401,3.736,7.999,-58.651,4.311,4.455,-7.76,-64.516,-3.02,3.307,-7.909,52.786,41.056,58.651
0.155,-3.449,3.784,8.047,-64.516,4.407,4.407,-7.856,-70.381,-3.02,3.307,-7.909,58.651,41.056,64.516
0.16,-3.497,3.928,8.143,-70.381,4.455,4.503,-7.904,-76.246,-3.164,3.451,-8.053,70.381,46.921,70.381
0.165,-3.593,4.215,8.191,-76.246,4.551,4.598,-7.951,-82.111,-3.164,3.883,-8.053,76.246,52.786,76.246
0.17,-3.736,4.503,8.191,-76.246,4.598,4.742,-7.904,-82.111,-3.307,4.458,-8.197,82.111,58.651,82.111
0.17500000000000002,-3.832,4.886,8.191,-82.111,4.646,5.03,-7.856,-87.977,-3.595,4.889,-8.053,82.111,58.651,82.111
0.18,-3.928,5.221,8.143,-82.111,4.742,5.317,-7.904,-87.977,-3.595,5.464,-8.053,82.111,64.516,87.977
0.185,-4.072,5.7,8.191,-87.977,4.79,5.556,-7.856,-87.977,-3.883,5.896,-8.053,82.111,70.381,87.977
0.19,-4.215,6.083,8.143,-87.977,4.79,5.796,-7.808,-82.111,-4.026,6.471,-8.053,82.111,70.381,87.977
0.195,-4.359,6.419,8.143,-82.111,4.934,6.083,-7.712,-82.111,-4.314,7.046,-8.053,76.246,70.381,87.977
0.2,-4.455,6.61,8.047,-82.111,5.03,6.227,-7.664,-76.246,-4.458,7.334,-8.053,70.381,70.381,82.111
0.20500000000000002,-4.551,6.706,7.951,-76.246,5.125,6.323,-7.664,-76.246,-4.602,7.334,-7.909,58.651,70.381,82.111
0.21,-4.646,6.754,7.999,-76.246,5.173,6.323,-7.616,-70.381,-4.602,7.334,-7.909,52.786,70.381,76.246
0.215,-4.694,6.754,7.951,-70.381,5.173,6.227,-7.568,-64.516,-4.745,7.334,-7.909,46.921,70.381,76.246
0.22,-4.694,6.658,7.951,-64.516,5.125,6.179,-7.568,-64.516,-4.745,7.334,-7.909,41.056,70.381,70.381
0.225,-4.646,6.467,7.904,-64.516,5.077,6.179,-7.472,-58.651,-4.745,7.19,-7.909,35.191,64.516,70.381
0.23,-4.598,6.275,7.808,-58.651,5.077,6.179,-7.425,-58.651,-4.602,6.759,-7.765,29.326,64.516,64.516
0.23500000000000001,-4.503,5.988,7.76,-58.651,5.077,6.179,-7.425,-58.651,-4.602,6.327,-7.765,29.326,64.516,64.516
0.24,-4.407,5.748,7.76,-58.651,5.125,6.179,-7.472,-58.651,-4.458,5.896,-7.765,23.46,70.381,58.651
0.245,-4.263,5.509,7.808,-58.651,5.221,6.131,-7.712,-64.516,-4.17,5.321,-7.765,29.326,70.381,58.651
0.25,-4.167,5.413,8.047,-64.516,5.269,5.988,-7.951,-70.381,-3.883,5.033,-7.909,29.326,70.381,64.516
0.255,-4.167,5.413,8.239,-70.381,5.461,5.892,-8.143,-76.246,-3.739,5.033,-8.053,41.056,76.246,70.381
0.26,-4.263,5.461,8.43,-76.246,5.461,5.988,-8.239,-82.111,-3.595,5.177,-8.34,46.921,82.111,76.246
0.265,-4.311,5.7,8.478,-76.246,5.413,6.179,-8.287,-82.111,-3.739,5.464,-8.34,52.786,87.977,82.111
0.27,-4.263,6.083,8.478,-82.111,5.365,6.371,-8.143,-87.977,-3.739,6.04,-8.484,58.651,93.842,82.111
0.275,-4.311,6.419,8.335,-82.111,5.317,6.658,-7.856,-87.977,-3.739,6.471,-8.34,58.651,99.707,87.977
0.28,-4.311,6.802,8.095,-87.977,5.269,7.041,-7.616,-87.977,-3.883,6.902,-8.053,58.651,105.572,87.977
0.28500000000000003,-4.311,7.185,7.856,-87.977,5.221,7.377,-7.425,-87.977,-3.883,7.334,-7.909,58.651,111.437,87.977
0.29,-4.311,7.568,7.616,-87.977,5.125,7.616,-7.185,-82.111,-4.026,7.765,-7.621,58.651,117.302,87.977
0.295,-4.311,7.856,7.377,-82.111,5.077,7.808,-6.946,-82.111,-4.17,8.197,-7.334,58.651,123.167,87.977
0.3,-4.311,8.143,7.185,-82.111,4.982,7.951,-6.706,-76.246,-4.17,8.628,-7.19,52.786,123.167,87.977
0.305,-4.263,8.287,6.946,-76.246,4.79,8.095,-6.419,-76.246,-4.17,8.772,-6.902,46.921,129.032,82.111
0.31,-4.167,8.43,6.658,-76.246,4.598,8.143,-6.035,-70.381,-4.17,8.916,-6.615,46.921,129.032,76.246
0.315,-3.976,8.478,6.275,-70.381,4.311,8.143,-5.604,-64.516,-4.026,9.059,-6.327,41.056,129.032,76.246
0.32,-3.736,8.478,5.844,-64.516,3.976,8.143,-5.125,-64.516,-3.883,9.059,-5.896,35.191,129.032,70.381
0.325,-3.497,8.43,5.365,-64.516,3.688,8.143,-4.551,-58.651,-3.595,9.059,-5.464,35.191,129.032,70.381
0.33,-3.257,8.383,4.838,-58.651,3.353,8.191,-3.88,-52.786,-3.451,8.916,-5.033,29.326,129.032,58.651
0.335,-3.018,8.335,4.167,-52.786,2.922,8.335,-3.114,-52.786,-3.307,8.772,-4.458,23.46,129.032,58.651
0.34,-2.635,8.287,3.401,-52.786,2.491,8.526,-2.203,-46.921,-3.02,8.628,-3.595,17.595,129.032,58.651
0.34500000000000003,-2.251,8.239,2.491,-46.921,2.012,8.622,-1.15,-46.921,-2.588,8.34,-2.732,17.595,123.167,52.786
0.35000000000000003,-1.868,8.191,1.533,-46.921,1.581,8.909,-0.192,-46.921,-2.301,8.197,-1.869,17.595,123.167,52.786
0.355,-1.389,8.191,0.527,-46.921,1.006,9.149,0.91,-46.921,-1.869,7.909,-0.863,17.595,117.302,52.786
0.36,-0.958,8.335,-0.575,-46.921,0.623,9.58,2.06,-52.786,-1.438,7.765,0.288,23.46,117.302,52.786
0.365,-0.623,8.574,-1.677,-52.786,0.335,10.107,3.066,-52.786,-1.15,7.909,1.438,35.191,111.437,52.786
0.37,-0.383,8.957,-2.682,-52.786,0.096,10.442,4.024,-58.651,-0.863,8.053,2.445,41.056,105.572,52.786
0.375,-0.144,9.388,-3.688,-52.786,-0.24,10.73,4.982,-58.651,-0.719,8.484,3.451,52.786,99.707,58.651
0.38,0.0,9.963,-4.598,-58.651,-0.575,11.304,5.892,-58.651,-0.719,9.203,4.458,64.516,93.842,58.651
0.385,0.096,10.586,-5.509,-58.651,-0.958,11.352,6.61,-52.786,-0.575,9.778,5.321,70.381,87.977,58.651
0.39,0.287,10.921,-6.179,-52.786,-1.341,11.544,7.185,-52.786,-0.431,10.497,6.183,82.111,76.246,58.651
0.395,0.479,11.352,-6.706,-52.786,-1.485,11.688,7.616,-52.786,-0.719,11.216,6.759,87.977,64.516,52.786
0.4,0.575,11.688,-7.185,-52.786,-1.437,11.736,7.904,-46.921,-0.575,11.792,7.19,87.977,52.786,52.786
0.405,0.431,11.879,-7.472,-41.056,-1.389,11.783,8.047,-35.191,-0.719,12.223,7.621,87.977,35.191,52.786
0.41000000000000003,0.335,12.167,-7.568,-35.191,-1.581,11.736,7.856,-29.326,-0.863,12.654,7.765,87.977,17.595,41.056
0.41500000000000004,0.383,12.167,-7.377,-29.326,-1.485,11.448,7.52,-17.595,-1.007,12.798,7.765,82.111,0.0,35.191
0.42,0.24,11.879,-7.041,-17.595,-1.198,11.017,7.185,-5.865,-1.007,12.798,7.478,76.246,-17.595,23.46
0.425,0.096,11.496,-6.706,-5.865,-1.054,10.682,6.562,5.865,-1.15,12.511,7.19,70.381,-35.191,11.73
0.43,0.048,10.921,-6.131,5.865,-0.91,10.299,5.844,11.73,-1.15,11.935,6.759,58.651,-58.651,0.0
0.435,0.048,10.394,-5.413,11.73,-0.623,9.82,5.077,17.595,-1.007,11.216,6.04,52.786,-76.246,-5.865
0.44,-0.096,9.82,-4.694,17.595,-0.287,9.388,4.119,23.46,-1.007,10.354,5.321,46.921,-93.842,-11.73
0.445,-0.192,9.101,-3.784,29.326,0.096,8.957,3.066,29.326,-1.007,9.635,4.602,46.921,-105.572,-17.595
0.45,-0.431,8.43,-2.73,29.326,0.575,8.574,1.772,23.46,-1.007,8.628,3.595,41.056,-117.302,-23.46
0.455,-0.719,7.856,-1.485,29.326,1.15,8.095,0.431,23.46,-1.007,7.909,2.445,46.921,-129.032,-23.46
0.46,-1.102,7.233,-0.144,23.46,2.012,7.616,-1.15,23.46,-1.294,7.046,1.15,46.921,-140.762,-23.46
0.465,-1.581,6.706,1.389,23.46,2.778,7.185,-2.922,17.595,-1.438,6.471,-0.431,58.651,-146.628,-23.46
0.47000000000000003,-2.156,6.371,3.161,17.595,3.593,6.802,-5.03,11.73,-1.726,6.04,-2.013,64.516,-146.628,-17.595
0.47500000000000003,-2.73,6.275,5.221,11.73,4.551,6.562,-7.233,5.865,-2.157,5.896,-4.026,76.246,-146.628,-11.73
0.48,-3.497,6.371,7.425,5.865,5.748,6.371,-9.341,0.0,-2.588,6.183,-6.183,82.111,-146.628,-5.865
0.485,-4.455,6.658,9.436,-0.0,6.802,6.323,-11.352,-5.865,-3.451,6.759,-8.197,87.977,-140.762,0.0
0.49,-5.317,6.946,11.448,-5.865,7.76,6.227,-13.077,-5.865,-4.17,7.478,-10.354,87.977,-134.897,5.865
0.495,-6.035,7.233,13.22,-5.865,8.574,6.131,-14.753,-5.865,-4.889,8.053,-12.223,82.111,-129.032,5.865
0.5,-6.802,7.377,14.849,-5.865,9.245,6.227,-16.142,-5.865,-5.464,8.484,-13.949,76.246,-117.302,11.73
0.505,-7.185,7.425,16.238,-5.865,9.963,6.227,-17.1,-5.865,-6.04,8.772,-15.53,64.516,-105.572,5.865
0.51,-7.712,7.281,17.196,-5.865,10.49,6.419,-17.771,-5.865,-6.327,8.628,-16.825,46.921,-87.977,5.865
0.515,-7.999,7.089,17.867,-5.865,10.778,6.467,-18.106,0.0,-6.615,8.197,-17.544,35.191,-70.381,5.865
0.52,-8.191,6.802,18.202,-5.865,10.778,6.227,-18.106,0.0,-6.759,7.621,-18.119,23.46,-52.786,5.865
0.525,-8.239,6.514,18.202,-0.0,10.394,5.988,-17.963,-5.865,-6.902,7.334,-18.263,11.73,-35.191,5.865
0.53,-8.095,6.179,18.058,-5.865,10.251,5.94,-17.627,-5.865,-6.759,6.759,-18.263,0.0,-11.73,5.865
0.535,-7.856,5.94,17.723,-5.865,10.011,5.796,-17.052,-11.73,-6.759,6.327,-17.975,0.0,5.865,11.73
0.54,-7.76,5.844,17.148,-11.73,9.676,5.7,-16.573,-17.595,-6.471,6.183,-17.544,0.0,29.326,11.73
0.545,-7.52,5.892,16.717,-17.595,9.341,5.604,-16.047,-23.46,-6.471,6.183,-16.968,0.0,46.921,17.595
0.55,-7.281,5.892,16.142,-23.46,8.862,5.509,-15.136,-23.46,-6.327,6.327,-16.393,0.0,64.516,23.46
0.555,-6.898,5.844,15.232,-23.46,8.095,5.461,-14.035,-23.46,-6.04,6.327,-15.674,-5.865,82.111,23.46
0.56,-6.371,5.748,14.131,-23.46,7.185,5.317,-12.454,-23.46,-5.608,6.327,-14.668,-5.865,99.707,29.326
0.5650000000000001,-5.7,5.604,12.598,-23.46,5.988,5.221,-10.73,-23.46,-5.321,6.183,-13.373,-11.73,111.437,29.326
0.5700000000000001,-4.934,5.413,10.873,-23.46,4.982,5.365,-9.005,-29.326,-4.745,5.896,-11.648,-17.595,129.032,29.326
0.5750000000000001,-4.072,5.365,9.149,-29.326,4.263,5.796,-7.281,-29.326,-4.17,5.752,-9.922,-17.595,134.897,29.326
0.58,-3.497,5.556,7.472,-29.326,3.497,6.323,-5.604,-29.326,-3.451,5.608,-8.197,-23.46,140.762,35.191
0.585,-2.874,5.988,5.844,-35.191,2.73,6.802,-4.072,-35.191,-3.02,5.608,-6.471,-23.46,146.628,35.191
0.59,-2.203,6.419,4.311,-35.191,2.108,7.52,-2.539,-35.191,-2.445,6.04,-4.889,-17.595,152.493,35.191
0.595,-1.629,7.089,2.778,-35.191,1.533,8.095,-0.91,-35.191,-1.869,6.471,-3.307,-17.595,152.493,41.056
0.6,-1.198,7.664,1.15,-35.191,0.719,8.574,0.91,-41.056,-1.438,7.19,-1.726,-11.73,152.493,41.056
0.605,-0.623,8.287,-0.623,-41.056,0.0,9.628,2.395,-41.056,-1.007,7.909,-0.0,-5.865,152.493,41.056
0.61,0.096,9.053,-2.156,-41.056,-0.431,10.586,4.119,-46.921,-0.431,8.484,1.726,0.0,152.493,41.056
0.615,0.431,9.915,-3.88,-41.056,-1.054,11.209,6.131,-41.056,0.0,9.059,3.307,0.0,146.628,46.921
0.62,0.766,10.682,-5.748,-41.056,-1.868,11.975,7.664,-41.056,0.0,10.066,5.177,0.0,140.762,46.921
0.625,1.293,11.352,-7.329,-41.056,-2.635,12.406,9.388,-41.056,0.431,10.785,6.902,11.73,134.897,46.921
0.63,1.581,11.927,-8.957,-41.056,-2.826,12.741,10.778,-41.056,0.575,11.36,8.484,17.595,129.032,46.921
0.635,1.724,12.502,-10.346,-41.056,-3.305,13.412,11.688,-35.191,0.575,12.223,10.066,23.46,111.437,46.921
0.64,1.868,13.029,-11.209,-35.191,-3.209,13.795,12.358,-35.191,0.431,12.798,11.073,29.326,93.842,41.056
0.645,1.82,13.412,-11.831,-29.326,-3.114,13.843,12.598,-23.46,0.431,13.23,11.935,29.326,76.246,35.191
0.65,1.677,13.604,-12.071,-23.46,-3.114,13.699,12.646,-17.595,0.288,13.661,12.367,35.191,58.651,29.326
0.655,1.533,13.604,-12.119,-17.595,-3.018,13.556,12.406,-5.865,0.0,13.805,12.511,35.191,35.191,23.46
0.66,1.533,13.364,-11.927,-5.865,-2.874,12.885,11.927,5.865,0.0,13.805,12.367,29.326,11.73,11.73
0.665,1.437,12.837,-11.448,5.865,-2.778,12.262,11.209,17.595,0.0,13.373,11.935,29.326,-11.73,0.0
0.67,1.437,12.262,-10.682,11.73,-2.587,11.688,10.059,23.46,0.0,12.942,11.36,29.326,-35.191,-11.73
0.675,1.293,11.64,-9.628,23.46,-2.203,11.065,8.766,29.326,0.144,12.223,10.497,23.46,-58.651,-17.595
0.68,1.054,10.969,-8.335,35.191,-1.581,10.634,7.089,35.191,-0.144,11.504,9.347,23.46,-76.246,-23.46
0.685,0.719,10.394,-6.658,35.191,-0.623,10.107,5.125,35.191,-0.144,10.785,7.909,23.46,-99.707,-29.326
0.6900000000000001,0.0,9.867,-4.79,35.191,0.287,9.724,2.73,29.326,-0.575,10.21,6.04,23.46,-117.302,-35.191
0.6950000000000001,-0.623,9.484,-2.395,35.191,1.533,9.245,0.048,29.326,-1.007,9.778,3.883,23.46,-129.032,-35.191
0.7000000000000001,-1.437,9.053,0.24,35.191,2.874,8.622,-2.682,29.326,-1.582,9.347,1.438,23.46,-140.762,-35.191
0.705,-2.347,8.574,2.922,35.191,4.167,8.047,-5.413,29.326,-1.869,8.916,-1.294,23.46,-152.493,-35.191
0.71,-3.353,8.143,5.604,29.326,5.509,7.664,-8.191,23.46,-2.732,8.628,-4.026,29.326,-152.493,-29.326
0.715,-4.215,7.712,8.335,23.46,6.993,7.329,-10.73,17.595,-3.307,8.34,-6.902,23.46,-152.493,-23.46
0.72,-5.221,7.377,10.825,23.46,8.43,7.089,-13.029,17.595,-3.883,7.909,-9.491,23.46,-146.628,-23.46
0.725,-6.227,7.089,13.173,17.595,9.628,7.089,-15.136,11.73,-4.602,7.478,-11.935,23.46,-140.762,-17.595
0.73,-7.089,6.898,15.232,11.73,10.538,7.041,-16.765,11.73,-5.321,7.19,-14.236,23.46,-129.032,-11.73
0.735,-7.76,6.85,16.813,11.73,11.257,6.993,-17.915,11.73,-5.896,7.046,-16.106,23.46,-111.437,-11.73
0.74,-8.287,6.85,17.963,11.73,11.592,6.802,-18.489,11.73,-6.327,7.046,-17.544,23.46,-87.977,-11.73
0.745,-8.622,6.706,18.537,11.73,11.304,6.419,-18.681,11.73,-6.759,7.046,-18.406,23.46,-64.516,-11.73
0.75,-8.478,6.371,18.729,11.73,11.065,5.988,-18.394,5.865,-6.902,6.759,-18.838,23.46,-35.191,-11.73
0.755,-8.335,5.988,18.489,5.865,10.586,5.604,-17.723,5.865,-6.759,6.471,-18.838,23.46,-11.73,-5.865
0.76,-7.999,5.509,17.819,-0.0,10.107,5.269,-16.813,5.865,-6.615,5.896,-18.263,23.46,11.73,0.0
0.765,-7.76,5.317,16.909,5.865,9.293,4.934,-15.855,0.0,-6.471,5.608,-17.4,23.46,35.191,0.0
0.77,-7.185,5.365,15.999,-0.0,8.335,5.125,-14.753,-5.865,-6.327,5.752,-16.393,23.46,58.651,0.0
0.775,-6.514,5.556,14.897,-11.73,7.808,5.461,-13.268,-17.595,-5.752,6.04,-15.53,23.46,76.246,5.865
0.78,-5.988,5.844,13.364,-17.595,7.233,5.796,-11.448,-17.595,-5.177,6.327,-14.236,17.595,93.842,17.595
0.785,-5.509,6.083,11.544,-17.595,6.083,6.419,-9.628,-17.595,-4.745,6.471,-12.367,11.73,111.437,23.46
0.79,-4.646,6.514,9.772,-23.46,5.317,6.802,-7.472,-23.46,-4.17,6.615,-10.641,0.0,123.167,23.46
0.795,-4.024,6.898,7.616,-23.46,4.072,7.185,-5.125,-23.46,-3.739,7.046,-8.484,0.0,134.897,23.46
0.8,-3.257,7.185,5.269,-23.46,2.73,7.664,-2.682,-23.46,-3.164,7.334,-6.327,0.0,146.628,23.46
0.805,-2.299,7.472,2.922,-23.46,1.533,8.287,-0.383,-29.326,-2.732,7.478,-3.883,0.0,152.493,29.326
0.81,-1.437,7.856,0.671,-29.326,0.671,8.814,1.677,-29.326,-2.013,7.621,-1.582,0.0,158.358,29.326
0.8150000000000001,-0.91,8.287,-1.389,-29.326,-0.048,9.005,3.593,-29.326,-1.438,7.765,0.719,0.0,152.493,29.326
0.8200000000000001,-0.575,8.814,-3.257,-29.326,-0.814,9.532,4.886,-35.191,-1.438,8.484,2.588,0.0,152.493,35.191
0.8250000000000001,0.048,9.341,-4.503,-35.191,-1.054,10.538,5.844,-35.191,-1.15,9.203,4.314,0.0,140.762,35.191
0.8300000000000001,0.287,10.059,-5.461,-35.191,-0.766,11.017,6.802,-29.326,-0.719,9.635,5.177,11.73,129.032,41.056
0.835,0.0,10.682,-6.371,-29.326,-1.006,11.161,7.281,-23.46,-0.863,10.354,6.327,17.595,117.302,35.191
0.84,0.096,11.113,-6.85,-23.46,-1.198,11.352,7.568,-17.595,-1.007,11.216,6.902,17.595,99.707,29.326
0.845,0.24,11.4,-7.089,-17.595,-1.102,11.304,7.712,-5.865,-0.863,11.648,7.19,17.595,87.977,23.46
0.85,0.144,11.4,-7.233,-11.73,-1.054,11.113,7.712,-5.865,-0.863,11.935,7.478,17.595,70.381,17.595
0.855,0.192,11.257,-7.233,-0.0,-1.102,11.161,7.472,0.0,-0.863,11.935,7.478,11.73,52.786,5.865
0.86,0.287,11.113,-6.993,-0.0,-0.766,10.969,7.281,5.865,-0.719,11.504,7.334,0.0,41.056,5.865
0.865,0.096,10.825,-6.754,5.865,-0.671,10.825,6.802,11.73,-0.719,11.216,7.19,0.0,23.46,0.0
0.87,0.048,10.586,-6.371,11.73,-0.431,10.682,6.179,11.73,-0.863,10.785,6.759,0.0,5.865,-5.865
0.875,-0.048,10.394,-5.7,11.73,-0.144,10.49,5.461,11.73,-0.719,10.641,6.327,0.0,-5.865,-5.865
0.88,-0.24,10.203,-5.03,11.73,0.287,10.346,4.694,17.595,-0.863,10.354,5.608,0.0,-17.595,-11.73
0.885,-0.479,9.915,-4.215,17.595,0.671,10.107,3.928,17.595,-1.007,10.066,4.889,0.0,-29.326,-11.73
0.89,-0.719,9.58,-3.497,17.595,0.91,9.82,3.209,17.595,-1.007,9.635,4.026,0.0,-41.056,-17.595
0.895,-0.862,9.245,-2.778,17.595,1.198,9.628,2.491,17.595,-1.15,9.203,3.307,0.0,-46.921,-17.595
0.9,-1.006,9.005,-2.108,17.595,1.485,9.436,1.772,11.73,-1.15,8.772,2.588,11.73,-52.786,-11.73
0.905,-1.245,8.766,-1.389,11.73,1.82,9.101,1.054,11.73,-1.294,8.628,2.013,17.595,-58.651,-11.73
0.91,-1.581,8.67,-0.671,11.73,2.156,8.909,0.287,11.73,-1.582,8.484,1.15,23.46,-58.651,-11.73
0.915,-1.82,8.67,0.144,11.73,2.491,8.814,-0.575,5.865,-1.869,8.628,0.431,29.326,-64.516,-11.73
0.92,-2.06,8.67,0.958,5.865,2.874,8.814,-1.389,5.865,-2.013,8.772,-0.431,35.191,-64.516,-5.865
0.925,-2.395,8.862,1.772,5.865,3.209,9.053,-2.156,5.865,-2.301,8.916,-1.294,35.191,-70.381,-5.865
0.93,-2.73,9.245,2.539,5.865,3.545,9.197,-2.73,5.865,-2.588,9.347,-2.013,35.191,-70.381,0.0
0.935,-3.114,9.484,3.066,5.865,3.88,9.628,-3.161,0.0,-3.02,9.922,-2.732,35.191,-70.381,0.0
0.9400000000000001,-3.114,9.724,3.497,-0.0,4.119,9.915,-3.593,5.865,-3.164,10.21,-3.164,29.326,-70.381,0.0
0.9450000000000001,-3.449,9.867,3.88,5.865,4.407,10.251,-3.928,11.73,-3.02,10.21,-3.595,23.46,-70.381,0.0
0.9500000000000001,-3.688,10.251,4.215,11.73,4.551,10.203,-4.263,23.46,-3.451,10.497,-4.026,23.46,-70.381,-5.865
0.9550000000000001,-3.88,10.251,4.551,23.46,4.598,10.107,-4.551,23.46,-3.595,10.641,-4.314,17.595,-70.381,-17.595
0.96,-3.88,10.203,4.886,29.326,4.838,10.107,-4.742,29.326,-3.883,10.641,-4.602,17.595,-64.516,-23.46
0.965,-4.072,10.059,5.03,29.326,5.125,10.059,-4.838,29.326,-3.883,10.497,-4.889,11.73,-64.516,-23.46
0.97,-4.263,9.915,5.125,29.326,5.221,10.155,-4.934,29.326,-4.026,10.354,-5.033,11.73,-64.516,-23.46
0.975,-4.263,9.772,5.221,35.191,5.317,10.107,-4.982,29.326,-4.026,9.922,-5.177,11.73,-64.516,-29.326
0.98,-4.311,9.676,5.317,35.191,5.461,10.011,-5.125,29.326,-4.026,9.635,-5.177,11.73,-58.651,-29.326
0.985,-4.455,9.628,5.413,35.191,5.604,9.915,-5.125,29.326,-4.026,9.635,-5.321,11.73,-58.651,-35.191
0.99,-4.598,9.628,5.461,29.326,5.509,9.58,-5.173,29.326,-4.17,9.635,-5.464,17.595,-52.786,-35.191
0.995,-4.598,9.484,5.461,29.326,5.556,9.532,-5.125,29.326,-4.314,9.778,-5.464,17.595,-46.921,-29.326
1.0,-4.551,9.388,5.461,29.326,5.844,9.58,-4.982,29.326,-4.314,9.635,-5.464,17.595,-41.056,-23.46
1.0050000000000001,-4.742,9.436,5.269,29.326,5.94,9.532,-4.838,29.326,-4.314,9.635,-5.321,17.595,-41.056,-23.46
1.01,-4.886,9.532,5.173,29.326,5.796,9.628,-4.742,29.326,-4.458,9.778,-5.177,17.595,-35.191,-23.46
1.0150000000000001,-4.79,9.532,5.077,29.326,5.796,9.676,-4.598,29.326,-4.458,9.778,-5.033,17.595,-29.326,-23.46
1.02,-4.838,9.58,4.934,29.326,5.844,9.772,-4.455,29.326,-4.602,9.778,-5.033,17.595,-23.46,-23.46
1.025,-4.886,9.58,4.79,29.326,5.94,9.772,-4.215,35.191,-4.602,9.778,-4.889,17.595,-23.46,-23.46
1.03,-4.982,9.628,4.551,35.191,5.892,10.011,-4.072,35.191,-4.602,9.778,-4.602,17.595,-17.595,-23.46
1.035,-4.982,9.772,4.407,35.191,5.796,9.772,-3.976,41.056,-4.889,9.922,-4.458,17.595,-11.73,-35.191
1.04,-4.982,9.772,4.311,41.056,5.556,9.915,-3.976,41.056,-4.889,10.066,-4.314,11.73,-11.73,-35.191
1.045,-4.838,9.82,4.359,41.056,5.844,10.155,-3.88,41.056,-4.889,10.066,-4.314,11.73,-5.865,-41.056
1.05,-5.03,10.011,4.215,41.056,6.035,10.107,-3.88,41.056,-4.745,10.21,-4.314,11.73,-5.865,-35.191
1.055,-5.221,9.963,4.263,41.056,5.892,10.011,-3.88,41.056,-5.033,10.21,-4.17,11.73,-5.865,-41.056
1.06,-5.03,9.915,4.263,46.921,5.844,10.059,-3.784,41.056,-5.033,10.21,-4.17,0.0,0.0,-41.056
1.065,-4.982,9.867,4.119,41.056,5.988,10.107,-3.497,46.921,-4.889,10.21,-4.17,0.0,0.0,-41.056
1.07,-5.125,9.915,3.88,46.921,5.844,9.963,-3.257,52.786,-4.889,10.21,-3.883,0.0,5.865,-46.921
1.075,-5.077,9.867,3.593,52.786,5.556,10.059,-3.066,52.786,-5.033,10.21,-3.739,0.0,5.865,-46.921
1.08,-4.886,9.867,3.449,52.786,5.556,10.059,-2.874,52.786,-4.889,10.066,-3.451,0.0,5.865,-52.786
1.085,-4.886,9.867,3.257,52.786,5.509,9.963,-2.635,52.786,-4.889,10.066,-3.307,0.0,11.73,-52.786
1.09,-4.886,9.82,2.97,52.786,5.461,9.867,-2.347,58.651,-4.889,10.066,-3.02,0.0,11.73,-52.786
1.095,-4.886,9.82,2.73,58.651,5.317,9.867,-2.156,58.651,-4.889,10.066,-2.732,0.0,11.73,-52.786
1.1,-4.742,9.724,2.539,58.651,5.173,9.772,-1.868,64.516,-4.889,10.066,-2.588,0.0,11.73,-58.651
1.105,-4.646,9.532,2.251,64.516,5.077,9.724,-1.629,64.516,-4.745,9.778,-2.301,0.0,11.73,-58.651
1.11,-4.598,9.341,2.06,64.516,4.982,9.58,-1.485,70.381,-4.745,9.491,-2.013,0.0,11.73,-64.516
1.115,-4.503,9.149,1.868,70.381,4.886,9.388,-1.389,70.381,-4.602,9.347,-1.869,0.0,11.73,-64.516
1.12,-4.407,9.005,1.772,70.381,4.886,9.149,-1.293,70.381,-4.602,9.059,-1.726,0.0,11.73,-64.516
1.125,-4.407,8.766,1.724,70.381,4.886,8.814,-1.245,70.381,-4.458,8.916,-1.726,0.0,5.865,-70.381
1.1300000000000001,-4.455,8.574,1.629,70.381,4.886,8.574,-1.198,70.381,-4.602,8.772,-1.582,0.0,5.865,-70.381
1.135,-4.359,8.383,1.581,70.381,4.934,8.383,-1.054,70.381,-4.458,8.628,-1.582,0.0,5.865,-64.516
1.1400000000000001,-4.407,8.191,1.485,70.381,4.934,8.239,-0.958,70.381,-4.458,8.484,-1.438,0.0,5.865,-64.516
1.145,-4.407,8.095,1.389,70.381,4.934,8.191,-0.91,70.381,-4.458,8.34,-1.294,0.0,5.865,-70.381
1.1500000000000001,-4.455,8.047,1.341,70.381,4.982,8.143,-0.766,70.381,-4.458,8.34,-1.294,11.73,5.865,-70.381
1.155,-4.455,8.047,1.198,70.381,4.934,8.287,-0.575,70.381,-4.458,8.34,-1.15,0.0,5.865,-64.516
1.16,-4.455,8.095,1.006,70.381,4.934,8.43,-0.335,70.381,-4.602,8.197,-1.007,0.0,5.865,-70.381
1.165,-4.455,8.191,0.766,70.381,4.886,8.622,-0.192,64.516,-4.602,8.34,-0.719,0.0,5.865,-64.516
1.17,-4.455,8.287,0.623,64.516,4.886,8.814,-0.096,64.516,-4.602,8.34,-0.575,0.0,5.865,-64.516
1.175,-4.503,8.383,0.527,64.516,4.838,9.005,-0.048,70.381,-4.602,8.34,-0.431,0.0,0.0,-64.516
1.18,-4.503,8.574,0.527,70.381,4.934,8.909,-0.048,64.516,-4.602,8.484,-0.431,11.73,0.0,-64.516
1.185,-4.551,8.574,0.479,70.381,4.886,8.766,-0.048,70.381,-4.889,8.628,-0.431,11.73,0.0,-64.516
1.19,-4.551,8.478,0.527,70.381,4.982,8.478,-0.144,70.381,-4.745,8.628,-0.431,11.73,-5.865,-64.516
1.195,-4.646,8.191,0.575,70.381,5.077,8.191,-0.24,70.381,-4.745,8.484,-0.431,17.595,-5.865,-64.516
1.2,-4.694,7.951,0.719,70.381,5.077,7.951,-0.383,70.381,-4.745,8.197,-0.575,17.595,-5.865,-70.381
1.205,-4.646,7.808,0.862,70.381,5.173,7.808,-0.479,70.381,-4.889,8.053,-0.719,17.595,-11.73,-70.381
1.21,-4.742,7.664,0.958,70.381,5.221,7.904,-0.527,70.381,-4.889,7.909,-0.719,17.595,-11.73,-70.381
1.215,-4.742,7.712,1.006,70.381,5.317,7.904,-0.527,70.381,-4.745,7.909,-0.863,17.595,-11.73,-70.381
1.22,-4.838,7.664,0.958,70.381,5.269,7.951,-0.479,70.381,-4.889,7.909,-0.863,17.595,-11.73,-70.381
1.225,-4.79,7.664,0.958,70.381,5.269,7.999,-0.527,70.381,-4.889,7.765,-0.863,17.595,-11.73,-70.381
1.23,-4.79,7.616,0.958,70.381,5.317,7.951,-0.527,70.381,-4.889,7.621,-0.863,17.595,-17.595,-70.381
1.235,-4.838,7.568,0.958,70.381,5.317,7.808,-0.623,70.381,-5.033,7.621,-0.863,17.595,-17.595,-70.381
1.24,-4.838,7.568,1.054,70.381,5.317,7.712,-0.671,70.381,-5.033,7.621,-0.863,17.595,-17.595,-70.381
1.245,-4.886,7.472,1.102,70.381,5.413,7.616,-0.719,70.381,-5.033,7.621,-1.007,17.595,-17.595,-70.381
1.25,-4.982,7.377,1.15,70.381,5.413,7.616,-0.766,70.381,-5.177,7.621,-1.007,23.46,-17.595,-70.381
1.2550000000000001,-4.934,7.329,1.198,70.381,5.269,7.52,-0.862,70.381,-5.033,7.478,-1.15,23.46,-17.595,-70.381
1.26,-4.886,7.185,1.341,70.381,5.221,7.281,-1.006,70.381,-5.033,7.334,-1.15,23.46,-17.595,-70.381
1.2650000000000001,-4.838,6.946,1.437,70.381,5.317,6.946,-1.102,70.381,-5.033,7.19,-1.294,23.46,-17.595,-70.381
1.27,-4.886,6.658,1.533,70.381,5.461,6.658,-1.293,70.381,-5.033,6.902,-1.438,23.46,-23.46,-70.381
1.2750000000000001,-5.03,6.419,1.724,70.381,5.461,6.323,-1.485,70.381,-5.033,6.615,-1.582,29.326,-23.46,-70.381
1.28,-5.03,6.275,1.964,70.381,5.509,6.131,-1.677,70.381,-5.177,6.615,-1.726,29.326,-23.46,-64.516
1.285,-5.03,6.131,2.108,64.516,5.604,5.892,-1.677,64.516,-5.177,6.471,-2.013,29.326,-23.46,-64.516
1.29,-5.125,5.94,2.156,70.381,5.556,5.748,-1.772,70.381,-5.177,6.327,-2.013,23.46,-23.46,-64.516
1.295,-5.03,5.7,2.203,64.516,5.461,5.509,-1.82,70.381,-5.177,6.183,-2.157,23.46,-23.46,-64.516
1.3,-4.934,5.461,2.299,64.516,5.317,5.221,-1.916,64.516,-5.033,5.896,-2.157,23.46,-23.46,-64.516
1.305,-4.838,5.173,2.347,64.516,5.173,4.934,-1.916,64.516,-4.889,5.608,-2.301,17.595,-23.46,-64.516
1.31,-4.742,4.934,2.347,64.516,5.077,4.694,-1.964,64.516,-4.889,5.321,-2.301,17.595,-23.46,-64.516
1.315,-4.646,4.646,2.395,64.516,4.982,4.455,-2.012,58.651,-4.745,5.177,-2.301,17.595,-23.46,-64.516
1.32,-4.503,4.311,2.443,58.651,4.934,4.263,-2.012,58.651,-4.602,4.602,-2.445,17.595,-23.46,-58.651
1.325,-4.455,4.072,2.443,58.651,4.838,4.072,-2.06,52.786,-4.458,4.314,-2.445,17.595,-23.46,-58.651
1.33,-4.359,3.832,2.539,52.786,4.742,3.88,-2.156,52.786,-4.458,4.026,-2.445,17.595,-23.46,-52.786
1.335,-4.263,3.64,2.635,52.786,4.742,3.736,-2.203,46.921,-4.314,3.739,-2.445,17.595,-23.46,-52.786
1.34,-4.263,3.593,2.682,46.921,4.551,3.401,-2.347,46.921,-4.314,3.739,-2.588,17.595,-23.46,-46.921
1.345,-4.215,3.449,2.778,41.056,4.455,3.066,-2.395,41.056,-4.314,3.739,-2.732,17.595,-17.595,-46.921
1.35,-4.167,3.209,2.826,41.056,4.407,2.73,-2.443,35.191,-4.314,3.739,-2.732,17.595,-17.595,-41.056
1.355,-4.072,2.874,2.922,35.191,4.263,2.395,-2.587,35.191,-4.314,3.451,-2.732,17.595,-17.595,-41.056
1.36,-3.976,2.587,3.066,35.191,4.263,2.156,-2.73,29.326,-4.17,3.164,-2.876,11.73,-17.595,-35.191
1.365,-3.928,2.443,3.209,29.326,4.407,2.108,-2.922,23.46,-4.026,2.876,-3.02,11.73,-23.46,-23.46
1.37,-4.024,2.395,3.353,23.46,4.503,2.156,-3.114,17.595,-4.026,2.732,-3.164,0.0,-23.46,-23.46
1.375,-4.024,2.443,3.545,17.595,4.407,2.156,-3.209,11.73,-3.883,2.732,-3.451,0.0,-23.46,-17.595
1.3800000000000001,-3.784,2.251,3.688,11.73,4.503,2.012,-3.305,5.865,-3.739,2.588,-3.595,0.0,-23.46,-11.73
1.385,-3.784,1.916,3.736,5.865,4.455,1.677,-3.497,0.0,-3.595,2.301,-3.595,-5.865,-17.595,-5.865
1.3900000000000001,-3.784,1.581,3.928,5.865,4.311,1.341,-3.64,0.0,-3.595,1.869,-3.883,-5.865,-11.73,0.0
1.395,-3.688,1.437,4.072,-5.865,3.928,1.006,-3.736,-11.73,-3.595,1.582,-4.026,-5.865,-11.73,5.865
1.4000000000000001,-3.449,1.102,4.167,-11.73,3.832,0.623,-3.688,-23.46,-3.307,1.438,-4.17,-5.865,-5.865,11.73
1.405,-3.353,0.814,4.167,-23.46,3.497,0.048,-3.736,-29.326,-3.307,1.294,-4.17,-5.865,-5.865,17.595
1.41,-3.161,0.335,4.215,-29.326,3.209,-0.719,-3.88,-41.056,-3.164,0.863,-4.17,-5.865,0.0,29.326
1.415,-2.922,-0.287,4.359,-35.191,3.114,-1.677,-4.072,-46.921,-3.02,0.431,-4.314,-11.73,0.0,35.191
1.42,-2.874,-1.102,4.551,-46.921,3.066,-2.682,-4.215,-52.786,-2.876,-0.288,-4.458,-17.595,0.0,41.056
1.425,-2.778,-2.012,4.742,-52.786,2.922,-3.784,-4.359,-64.516,-2.876,-1.007,-4.602,-23.46,0.0,52.786
1.43,-2.491,-3.209,4.838,-64.516,2.635,-4.934,-4.407,-76.246,-2.588,-2.013,-4.745,-29.326,0.0,64.516
1.435,-2.06,-4.646,4.886,-76.246,2.251,-6.275,-4.503,-87.977,-2.013,-3.595,-4.889,-35.191,5.865,70.381
1.44,-1.533,-6.179,4.982,-87.977,1.868,-7.472,-4.886,-111.437,-1.294,-5.321,-4.889,-41.056,11.73,82.111
1.445,-0.91,-7.616,5.365,-105.572,1.533,-8.622,-5.413,-134.897,-0.575,-7.19,-5.033,-41.056,17.595,99.707
1.45,-0.431,-8.622,5.892,-129.032,1.341,-9.724,-5.94,-158.358,0.288,-8.484,-5.608,-41.056,29.326,123.167
1.455,-0.192,-9.149,6.419,-158.358,1.006,-10.442,-6.419,-193.548,0.719,-9.059,-6.183,-35.191,41.056,146.628
1.46,0.048,-9.532,6.85,-187.683,0.383,-10.059,-6.85,-222.874,1.007,-9.059,-6.471,-35.191,52.786,175.953
1.465,0.814,-9.053,7.281,-217.009,0.287,-6.946,-7.137,-252.199,1.438,-8.916,-7.046,-35.191,64.516,205.279
1.47,1.293,-6.371,7.425,-246.334,0.0,-2.874,-6.706,-275.66,2.445,-7.765,-7.334,-41.056,82.111,234.604
1.475,1.533,-2.539,6.993,-269.795,0.192,1.293,-6.562,-287.39,2.876,-4.458,-7.19,-46.921,99.707,263.93
1.48,1.533,1.581,6.754,-287.39,-0.671,6.275,-6.179,-293.255,3.02,-0.431,-6.615,-46.921,117.302,281.525
1.485,1.341,7.329,6.419,-293.255,15.089,24.381,14.562,-304.985,2.732,3.739,-6.327,-46.921,134.897,293.255
1.49,-8.909,24.142,-16.142,-299.12,-23.711,24.477,24.381,-398.827,-5.321,54.069,8.053,-41.056,152.493,299.12
1.495,2.635,24.19,-24.573,-392.962,0.623,24.477,18.585,-328.446,1.15,74.057,25.884,58.651,187.683,340.176
1.5,-6.61,23.854,-18.825,-322.581,11.688,24.477,14.514,64.516,-33.793,55.794,25.74,-46.921,123.167,422.287
1.5050000000000001,-1.964,17.292,-15.089,58.651,9.724,12.119,3.353,217.009,5.608,12.798,17.831,-181.818,-140.762,129.032
1.51,-8.909,11.065,-3.114,211.144,15.328,3.305,-8.095,164.223,-4.602,10.641,9.922,-146.628,-199.413,-181.818
1.5150000000000001,-10.059,4.024,8.143,164.223,17.915,2.682,-13.747,93.842,-8.053,7.909,-2.732,-76.246,-164.223,-199.413
1.52,-11.257,1.724,13.652,93.842,19.639,5.796,-11.592,46.921,-5.608,2.732,-12.079,-58.651,-140.762,-123.167
1.5250000000000001,-13.268,2.682,11.592,46.921,16.478,11.4,-8.287,-29.326,-7.621,-0.144,-12.942,-58.651,-87.977,-70.381
1.53,-11.304,8.766,8.287,-29.326,11.065,17.723,-5.604,-87.977,-8.916,2.301,-10.066,-41.056,-23.46,-5.865
1.5350000000000001,-8.43,15.999,5.7,-87.977,6.802,21.028,-3.832,-105.572,-7.478,11.216,-6.759,-5.865,41.056,70.381
1.54,-6.562,20.453,4.072,-105.572,3.832,20.837,-2.778,-105.572,-7.046,18.119,-4.745,23.46,82.111,99.707
1.545,-5.077,21.22,3.114,-99.707,3.593,18.489,-2.491,-99.707,-7.334,21.858,-3.307,35.191,93.842,105.572
1.55,-4.359,18.681,2.874,-99.707,3.64,15.28,-3.545,-93.842,-6.327,21.139,-2.732,41.056,87.977,105.572
1.555,-3.88,15.232,3.928,-93.842,3.209,11.831,-4.742,-82.111,-5.033,17.4,-3.164,35.191,64.516,99.707
1.56,-3.449,11.783,5.125,-82.111,3.736,10.49,-4.024,-70.381,-4.458,13.805,-4.602,29.326,46.921,93.842
1.565,-3.832,10.059,4.407,-70.381,3.018,9.341,-4.024,-58.651,-3.883,11.073,-5.033,29.326,35.191,82.111
1.57,-3.401,10.299,4.455,-52.786,2.395,9.915,-3.88,-52.786,-4.026,10.929,-4.17,23.46,23.46,64.516
1.575,-2.778,11.113,4.311,-52.786,3.209,10.969,-2.347,-58.651,-4.026,11.935,-4.458,23.46,11.73,52.786
1.58,-3.209,11.544,2.73,-58.651,3.928,11.257,-0.862,-46.921,-3.451,12.511,-3.451,11.73,0.0,58.651
1.585,-3.688,11.161,1.245,-46.921,3.209,10.73,-0.192,-41.056,-4.026,11.935,-1.869,0.0,-5.865,52.786
1.59,-2.778,10.442,0.575,-41.056,3.161,8.574,0.192,-35.191,-3.595,10.929,-0.719,-11.73,-17.595,46.921
1.595,-2.635,8.287,0.24,-35.191,3.593,7.377,0.24,-17.595,-2.732,9.635,-0.288,-11.73,-17.595,41.056
1.6,-2.826,7.089,0.192,-17.595,3.784,6.754,-0.144,-11.73,-2.588,7.478,-0.0,-11.73,-23.46,29.326
1.605,-3.066,6.898,0.575,-11.73,4.455,6.993,-0.144,-11.73,-2.588,7.334,-0.288,-11.73,-17.595,17.595
1.61,-3.545,6.802,0.527,-11.73,4.503,7.425,-0.144,-11.73,-3.02,7.19,-0.575,-11.73,-17.595,11.73
1.615,-3.497,6.898,0.575,-11.73,4.119,7.616,0.0,0.0,-3.164,6.759,-0.431,-17.595,-11.73,11.73
1.62,-3.353,7.137,0.431,-0.0,3.976,7.712,0.0,11.73,-3.164,6.902,-0.431,-17.595,-5.865,11.73
1.625,-3.353,7.185,0.479,5.865,3.88,7.664,-0.048,11.73,-3.164,7.046,-0.288,-11.73,0.0,0.0
1.6300000000000001,-3.353,7.329,0.479,11.73,3.593,7.52,-0.144,17.595,-3.164,7.19,-0.431,-11.73,0.0,-11.73
1.635,-3.209,7.377,0.575,17.595,3.545,7.568,-0.144,17.595,-3.451,7.478,-0.431,-5.865,0.0,-11.73
1.6400000000000001,-3.209,7.472,0.623,17.595,3.593,7.856,-0.335,17.595,-3.307,7.621,-0.575,-5.865,0.0,-11.73
1.645,-3.305,7.856,0.766,17.595,3.545,8.095,-0.623,17.595,-3.307,7.909,-0.575,-5.865,0.0,-17.595
1.6500000000000001,-3.305,8.143,1.102,17.595,3.545,8.383,-0.862,17.595,-3.451,8.34,-0.863,-5.865,-5.865,-17.595
1.655,-3.209,8.335,1.341,11.73,3.593,8.478,-1.006,11.73,-3.451,8.484,-1.15,-5.865,-5.865,-11.73
1.6600000000000001,-3.353,8.383,1.437,11.73,3.784,8.478,-1.15,11.73,-3.451,8.628,-1.294,-11.73,-5.865,-11.73
1.665,-3.401,8.287,1.581,11.73,4.119,8.383,-1.437,11.73,-3.595,8.628,-1.438,-11.73,-11.73,-11.73
1.67,-3.593,8.239,1.868,11.73,4.407,8.478,-1.581,11.73,-3.595,8.484,-1.582,-11.73,-11.73,-11.73
1.675,-3.832,8.383,2.012,11.73,4.598,8.67,-1.724,11.73,-3.739,8.484,-1.869,-11.73,-11.73,-11.73
1.68,-3.976,8.574,2.108,11.73,4.598,8.909,-1.724,11.73,-4.026,8.772,-2.013,-11.73,-17.595,-11.73
1.685,-3.928,8.67,2.156,5.865,4.646,9.005,-1.772,11.73,-3.883,8.772,-2.157,-11.73,-17.595,-5.865
1.69,-4.024,8.766,2.156,5.865,4.79,9.053,-1.868,11.73,-3.883,8.772,-2.013,-11.73,-11.73,-5.865
1.695,-4.119,8.814,2.251,11.73,4.934,9.005,-1.964,11.73,-4.026,8.916,-2.157,-11.73,-11.73,-11.73
1.7,-4.215,8.814,2.347,11.73,4.934,8.957,-2.012,17.595,-4.17,8.916,-2.157,-11.73,-11.73,-11.73
1.705,-4.215,8.766,2.347,11.73,4.934,8.814,-2.012,11.73,-4.17,8.916,-2.301,-11.73,-11.73,-11.73
1.71,-4.215,8.718,2.443,11.73,4.838,8.766,-2.012,11.73,-4.026,8.916,-2.301,-11.73,-11.73,-11.73
1.715,-4.167,8.718,2.395,11.73,4.79,8.766,-1.964,17.595,-4.026,8.916,-2.445,-11.73,-5.865,-11.73
1.72,-4.167,8.718,2.347,11.73,4.742,8.862,-1.916,17.595,-4.026,9.059,-2.301,-11.73,-5.865,-11.73
1.725,-4.119,8.814,2.347,11.73,4.646,8.909,-1.868,17.595,-4.17,9.059,-2.301,-11.73,-5.865,-11.73
1.73,-4.119,8.814,2.251,11.73,4.598,8.957,-1.868,17.595,-4.17,9.059,-2.157,-11.73,-5.865,-11.73
1.735,-4.072,8.814,2.299,11.73,4.694,9.005,-2.012,17.595,-4.026,9.059,-2.157,-17.595,-5.865,-11.73
1.74,-4.072,8.814,2.395,11.73,4.742,8.957,-2.012,17.595,-4.17,8.916,-2.301,-17.595,-5.865,-11.73
1.745,-4.119,8.718,2.443,11.73,4.886,8.957,-2.06,11.73,-4.026,8.916,-2.301,-17.595,-5.865,-11.73
1.75,-4.215,8.67,2.491,11.73,4.886,8.909,-2.06,11.73,-4.17,8.772,-2.445,-17.595,-5.865,-11.73
1.7550000000000001,-4.215,8.622,2.443,11.73,4.934,8.957,-2.108,11.73,-4.17,8.772,-2.445,-17.595,-5.865,-11.73
1.76,-4.263,8.622,2.491,11.73,4.982,8.909,-2.108,11.73,-4.17,8.628,-2.445,-17.595,-5.865,-11.73
1.7650000000000001,-4.263,8.622,2.539,11.73,5.077,8.862,-2.203,11.73,-4.17,8.628,-2.445,-11.73,0.0,-5.865
1.77,-4.359,8.67,2.587,5.865,4.982,8.957,-2.299,11.73,-4.17,8.772,-2.445,-11.73,0.0,-5.865
1.7750000000000001,-4.359,8.766,2.682,5.865,4.982,9.053,-2.251,5.865,-4.314,8.916,-2.588,-11.73,0.0,-5.865
1.78,-4.311,8.909,2.682,5.865,5.077,9.197,-2.203,5.865,-4.314,9.059,-2.588,-11.73,0.0,-5.865
1.7850000000000001,-4.359,9.005,2.635,5.865,5.125,9.436,-2.299,5.865,-4.17,9.203,-2.588,-11.73,0.0,-5.865
1.79,-4.407,9.245,2.682,5.865,5.077,9.628,-2.251,11.73,-4.314,9.347,-2.588,-11.73,5.865,-5.865
1.795,-4.215,9.484,2.587,5.865,4.838,9.772,-2.299,5.865,-4.314,9.635,-2.588,-11.73,5.865,-5.865
1.8,-4.359,9.676,2.682,5.865,4.551,9.915,-2.156,5.865,-4.314,9.778,-2.588,-11.73,5.865,-5.865
1.805,-3.832,9.867,2.539,5.865,4.598,10.059,-2.06,5.865,-3.883,10.066,-2.445,-11.73,5.865,-5.865
1.81,-4.119,10.011,2.491,-0.0,4.838,10.346,-1.964,0.0,-4.026,10.21,-2.445,-11.73,5.865,0.0
1.815,-4.167,10.203,2.347,-0.0,4.694,10.538,-1.916,0.0,-4.17,10.354,-2.301,-11.73,5.865,0.0
1.82,-4.119,10.346,2.299,-0.0,4.551,10.634,-1.916,5.865,-4.17,10.497,-2.157,-11.73,5.865,0.0
1.825,-4.119,10.586,2.299,-0.0,4.455,10.73,-1.82,5.865,-4.17,10.785,-2.157,-11.73,5.865,0.0
1.83,-4.072,10.778,2.203,5.865,4.455,10.969,-1.724,5.865,-4.17,11.073,-2.157,-17.595,5.865,0.0
1.835,-4.072,10.969,2.108,5.865,4.455,11.304,-1.724,11.73,-4.314,11.216,-2.013,-17.595,5.865,0.0
1.84,-4.119,11.161,2.108,5.865,4.503,11.64,-1.772,11.73,-4.314,11.36,-2.013,-17.595,0.0,-5.865
1.845,-4.167,11.496,2.203,11.73,4.598,12.023,-1.916,17.595,-4.458,11.648,-2.013,-23.46,0.0,-5.865
1.85,-4.263,11.975,2.347,17.595,4.79,12.358,-2.06,23.46,-4.458,12.079,-2.157,-23.46,-5.865,-11.73
1.855,-4.359,12.071,2.443,23.46,4.886,12.262,-2.108,29.326,-4.602,12.367,-2.301,-23.46,-11.73,-17.595
1.86,-4.359,11.783,2.491,29.326,4.934,12.023,-2.395,35.191,-4.458,12.079,-2.445,-23.46,-11.73,-23.46
1.865,-4.407,11.496,2.778,35.191,5.221,11.736,-2.73,35.191,-4.458,11.648,-2.588,-23.46,-17.595,-29.326
1.87,-4.551,11.209,3.066,41.056,5.556,11.496,-3.018,41.056,-4.602,11.216,-2.876,-23.46,-17.595,-35.191
1.875,-4.694,10.921,3.353,41.056,5.7,11.017,-3.401,46.921,-4.602,10.929,-3.164,-17.595,-17.595,-41.056
1.8800000000000001,-4.886,10.538,3.736,46.921,5.796,10.49,-3.784,46.921,-4.602,10.641,-3.451,-11.73,-17.595,-41.056
1.885,-4.886,10.203,4.167,46.921,5.892,9.963,-4.119,52.786,-4.745,10.354,-3.883,-11.73,-17.595,-46.921
1.8900000000000001,-5.03,9.772,4.455,52.786,5.94,9.388,-4.407,52.786,-4.889,10.21,-4.314,-11.73,-17.595,-46.921
1.895,-5.125,9.245,4.742,52.786,5.892,8.909,-4.886,52.786,-5.033,9.778,-4.602,-5.865,-11.73,-46.921
1.9000000000000001,-5.03,8.814,5.221,52.786,5.892,8.478,-5.413,52.786,-5.033,9.203,-4.889,-5.865,-11.73,-52.786
1.905,-5.077,8.383,5.748,52.786,6.323,7.904,-5.94,52.786,-4.889,8.916,-5.464,-5.865,-5.865,-52.786
1.9100000000000001,-5.365,7.76,6.275,52.786,6.371,7.377,-6.562,52.786,-5.033,8.34,-6.04,-11.73,-5.865,-52.786
1.915,-5.221,7.281,6.898,52.786,6.371,6.85,-7.233,52.786,-5.033,7.621,-6.615,-11.73,0.0,-52.786
1.92,-5.221,6.754,7.568,52.786,6.658,6.227,-7.856,52.786,-4.745,7.334,-7.19,-11.73,0.0,-52.786
1.925,-5.365,6.179,8.191,52.786,6.754,5.652,-8.43,52.786,-4.889,6.759,-7.909,-11.73,5.865,-52.786
1.93,-5.317,5.652,8.718,52.786,6.898,5.077,-8.766,52.786,-4.745,6.183,-8.484,-11.73,17.595,-52.786
1.935,-5.365,5.125,9.053,52.786,6.802,4.503,-8.862,46.921,-4.602,5.752,-8.916,-11.73,23.46,-46.921
1.94,-5.221,4.551,9.149,46.921,6.467,3.976,-8.718,41.056,-4.602,5.177,-9.059,-11.73,35.191,-46.921
1.945,-4.982,3.928,8.957,41.056,6.083,3.497,-8.239,41.056,-4.314,4.458,-9.059,-11.73,46.921,-46.921
1.95,-4.694,3.401,8.526,35.191,5.652,3.257,-7.664,29.326,-4.026,3.739,-8.772,-17.595,58.651,-35.191
1.955,-4.407,3.114,7.999,29.326,5.317,3.353,-7.089,23.46,-3.739,3.307,-8.197,-17.595,70.381,-35.191
1.96,-4.119,3.161,7.377,23.46,5.077,3.832,-6.467,11.73,-3.595,3.164,-7.621,-17.595,82.111,-23.46
1.965,-3.928,3.593,6.706,11.73,4.982,4.455,-5.604,5.865,-3.451,3.307,-7.046,-11.73,87.977,-11.73
1.97,-3.928,4.215,5.892,-0.0,4.646,5.077,-4.646,0.0,-3.451,3.883,-6.183,-11.73,99.707,0.0
1.975,-3.736,4.838,4.934,-0.0,4.119,5.604,-3.64,-5.865,-3.451,4.602,-5.321,-11.73,105.572,5.865
1.98,-3.401,5.365,3.976,-5.865,3.593,5.988,-2.491,-5.865,-3.307,5.177,-4.314,-5.865,111.437,5.865
1.985,-3.066,5.748,2.826,-5.865,3.161,6.419,-1.293,-5.865,-3.02,5.608,-3.307,-5.865,117.302,11.73
1.99,-2.778,6.083,1.629,-11.73,2.826,6.85,0.0,-5.865,-2.876,5.896,-2.013,-5.865,123.167,11.73
1.995,-2.539,6.467,0.383,-11.73,2.395,7.185,1.293,-5.865,-2.732,6.183,-0.863,0.0,123.167,11.73
2.0,-2.251,6.658,-0.958,-11.73,2.012,7.377,2.635,-5.865,-2.588,6.471,0.575,0.0,123.167,11.73
2.005,-2.012,6.85,-2.251,-11.73,1.581,7.472,3.976,-5.865,-2.445,6.615,1.869,0.0,117.302,11.73
2.0100000000000002,-1.724,6.898,-3.593,-11.73,1.15,7.425,5.317,-5.865,-2.301,6.615,3.164,0.0,117.302,11.73
2.015,-1.485,6.898,-4.886,-5.865,0.814,7.425,6.562,-5.865,-2.157,6.759,4.458,11.73,111.437,11.73
2.02,-1.293,6.946,-6.131,-11.73,0.479,7.568,7.712,-11.73,-2.157,6.759,5.752,17.595,105.572,11.73
2.025,-1.102,7.041,-7.233,-11.73,0.287,7.712,8.766,-11.73,-2.013,6.759,7.046,23.46,93.842,11.73
2.0300000000000002,-1.102,7.329,-8.239,-17.595,0.0,7.951,9.58,-17.595,-2.013,7.046,8.053,29.326,82.111,17.595
2.035,-1.006,7.664,-9.053,-17.595,-0.096,8.143,10.155,-17.595,-2.157,7.478,8.916,29.326,70.381,17.595
2.04,-1.054,7.999,-9.628,-17.595,-0.096,8.287,10.538,-17.595,-2.301,8.053,9.635,35.191,58.651,17.595
2.045,-1.15,8.335,-10.011,-17.595,-0.048,8.43,10.634,-11.73,-2.445,8.484,10.066,35.191,41.056,17.595
2.05,-1.293,8.622,-10.107,-11.73,0.096,8.526,10.538,-11.73,-2.588,8.916,10.354,29.326,23.46,17.595
2.055,-1.437,8.862,-9.963,-11.73,0.383,8.67,10.203,-5.865,-2.876,9.347,10.354,29.326,0.0,11.73
2.06,-1.677,8.957,-9.676,-5.865,0.719,8.909,9.676,-5.865,-3.02,9.635,10.21,23.46,-17.595,11.73
2.065,-1.916,9.149,-9.101,-5.865,1.15,9.245,8.766,0.0,-3.164,9.635,9.778,17.595,-35.191,5.865
2.07,-2.251,9.484,-8.239,-0.0,1.581,9.58,7.76,0.0,-3.307,9.922,9.059,0.0,-58.651,5.865
2.075,-2.539,9.867,-7.329,-0.0,2.108,10.059,6.61,0.0,-3.739,10.354,8.053,0.0,-76.246,0.0
2.08,-2.922,10.251,-6.179,-0.0,2.73,10.682,5.173,5.865,-3.883,10.641,7.046,-5.865,-93.842,0.0
2.085,-3.257,10.634,-4.79,5.865,3.305,11.257,3.545,5.865,-4.17,10.929,5.752,-11.73,-111.437,0.0
2.09,-3.593,10.921,-3.209,5.865,4.072,11.544,1.677,11.73,-4.314,10.929,4.314,-11.73,-123.167,-5.865
2.095,-4.024,11.017,-1.389,11.73,4.79,11.544,-0.431,11.73,-4.458,11.073,2.588,-17.595,-134.897,-5.865
2.1,-4.455,10.969,0.671,17.595,5.556,11.352,-2.682,17.595,-4.602,10.929,0.719,-11.73,-146.628,-11.73
2.105,-4.886,10.73,2.874,17.595,6.514,10.825,-4.79,17.595,-4.745,10.785,-1.582,-11.73,-152.493,-11.73
2.11,-5.413,10.394,4.934,17.595,7.377,10.394,-6.85,17.595,-5.033,10.497,-3.739,-5.865,-158.358,-17.595
2.115,-5.988,10.011,6.993,17.595,8.191,9.82,-8.718,17.595,-5.321,10.21,-5.752,-5.865,-152.493,-17.595
2.12,-6.467,9.58,8.862,23.46,8.526,9.005,-10.251,17.595,-5.608,9.922,-7.765,0.0,-152.493,-17.595
2.125,-6.754,8.957,10.394,23.46,8.862,7.999,-11.304,17.595,-5.752,9.491,-9.635,0.0,-140.762,-17.595
2.13,-6.946,8.191,11.448,23.46,10.155,8.814,-12.598,17.595,-6.04,9.059,-10.929,0.0,-129.032,-17.595
2.1350000000000002,-7.377,8.047,12.694,17.595,10.538,8.239,-13.22,17.595,-5.608,8.34,-12.367,0.0,-117.302,-17.595
2.14,-7.951,7.712,13.316,17.595,10.155,7.951,-14.131,23.46,-6.183,7.765,-12.942,0.0,-99.707,-11.73
2.145,-7.568,7.52,14.226,23.46,10.011,7.329,-14.322,17.595,-6.183,7.478,-13.805,0.0,-76.246,-17.595
2.15,-7.568,7.185,14.466,17.595,10.011,7.089,-14.466,17.595,-6.183,7.478,-14.524,0.0,-58.651,-17.595
2.1550000000000002,-7.664,6.993,14.61,17.595,9.772,6.706,-14.178,17.595,-6.327,7.19,-14.668,11.73,-35.191,-17.595
2.16,-7.616,6.802,14.37,17.595,9.58,6.562,-13.891,11.73,-6.471,7.046,-14.524,17.595,-17.595,-11.73
2.165,-7.472,6.754,14.083,11.73,9.245,6.419,-13.556,11.73,-6.327,7.19,-14.236,11.73,0.0,-11.73
2.17,-7.377,6.898,13.747,5.865,8.814,6.227,-12.933,5.865,-6.327,7.334,-13.949,11.73,17.595,-5.865
2.1750000000000003,-7.137,6.85,13.125,5.865,8.191,6.467,-12.023,5.865,-6.615,7.765,-13.517,0.0,35.191,-5.865
2.18,-6.562,6.706,12.215,5.865,8.095,6.371,-10.969,11.73,-5.896,7.478,-12.654,0.0,46.921,0.0
2.185,-6.658,6.658,11.209,11.73,7.329,6.658,-10.011,11.73,-6.04,7.19,-11.648,-5.865,64.516,-5.865
2.19,-5.844,6.562,10.251,5.865,6.85,6.898,-8.862,5.865,-5.464,6.902,-10.641,-11.73,70.381,-5.865
2.195,-5.604,6.562,9.101,5.865,6.419,7.137,-7.664,0.0,-5.033,6.471,-9.635,-17.595,82.111,-5.865
2.2,-5.173,6.802,7.904,-0.0,5.988,7.52,-6.514,0.0,-5.033,6.615,-8.484,-11.73,93.842,0.0
2.205,-4.886,7.137,6.754,-0.0,5.7,7.76,-5.365,0.0,-4.602,6.902,-7.19,-11.73,99.707,5.865
2.21,-4.742,7.425,5.604,-5.865,5.365,7.951,-4.072,0.0,-4.458,7.19,-6.183,-11.73,105.572,5.865
2.215,-4.551,7.808,4.359,-5.865,4.742,8.191,-2.682,0.0,-4.458,7.765,-4.889,-5.865,111.437,5.865
2.22,-4.119,8.047,2.97,-5.865,4.167,8.383,-1.102,-5.865,-4.314,8.197,-3.595,-5.865,117.302,5.865
2.225,-3.832,8.143,1.437,-5.865,3.784,8.67,0.383,-5.865,-4.026,8.34,-2.013,-5.865,117.302,5.865
2.23,-3.593,8.335,0.0,-5.865,3.305,8.909,1.724,-5.865,-4.026,8.34,-0.575,-5.865,117.302,5.865
2.235,-3.305,8.574,-1.341,-5.865,2.874,9.197,2.874,-5.865,-3.883,8.484,1.007,-5.865,117.302,11.73
2.24,-3.114,8.862,-2.443,-5.865,2.682,9.532,4.024,-5.865,-3.739,8.772,2.157,0.0,111.437,11.73
2.245,-2.97,9.149,-3.593,-5.865,2.539,9.867,4.934,0.0,-3.739,9.059,3.307,0.0,105.572,11.73
2.25,-2.922,9.532,-4.503,-5.865,2.203,10.155,5.604,0.0,-3.739,9.491,4.314,0.0,99.707,5.865
2.255,-2.778,9.82,-5.173,-5.865,2.108,10.394,6.227,0.0,-3.739,9.778,5.033,0.0,87.977,5.865
2.2600000000000002,-2.73,10.155,-5.748,-0.0,2.251,10.682,6.658,5.865,-3.739,10.21,5.752,0.0,76.246,5.865
2.265,-2.826,10.346,-6.179,5.865,2.203,10.825,6.898,5.865,-3.739,10.497,6.183,0.0,64.516,0.0
2.27,-2.874,10.49,-6.419,5.865,2.203,10.825,6.898,11.73,-3.739,10.497,6.615,0.0,52.786,0.0
2.275,-2.826,10.49,-6.419,11.73,2.299,10.873,6.898,17.595,-3.883,10.641,6.615,0.0,35.191,-5.865
2.2800000000000002,-2.874,10.49,-6.371,11.73,2.539,10.825,6.802,17.595,-3.883,10.641,6.615,0.0,23.46,-11.73
2.285,-2.97,10.394,-6.275,17.595,2.778,10.682,6.467,23.46,-3.883,10.497,6.615,0.0,11.73,-11.73
2.29,-3.161,10.251,-5.988,23.46,2.826,10.538,5.94,23.46,-4.026,10.497,6.327,0.0,-5.865,-17.595
2.295,-3.161,10.203,-5.461,23.46,3.066,10.49,5.365,23.46,-4.026,10.354,5.896,0.0,-17.595,-17.595
2.3000000000000003,-3.353,10.203,-4.886,29.326,3.401,10.538,4.742,29.326,-4.026,10.354,5.464,0.0,-23.46,-23.46
2.305,-3.593,10.251,-4.311,29.326,3.784,10.538,3.928,29.326,-4.17,10.354,4.745,0.0,-35.191,-23.46
2.31,-3.928,10.346,-3.497,29.326,4.072,10.634,3.114,29.326,-4.458,10.497,4.17,0.0,-46.921,-23.46
2.315,-4.024,10.346,-2.682,29.326,4.407,10.825,2.299,29.326,-4.602,10.497,3.307,0.0,-52.786,-23.46
2.32,-4.311,10.442,-1.868,29.326,4.838,10.969,1.341,35.191,-4.602,10.497,2.445,0.0,-64.516,-23.46
2.325,-4.646,10.586,-0.91,35.191,5.221,11.161,0.24,35.191,-4.889,10.497,1.582,0.0,-70.381,-35.191
2.33,-4.886,10.73,0.192,35.191,5.844,11.352,-0.91,35.191,-5.177,10.785,0.575,11.73,-76.246,-35.191
2.335,-5.269,10.825,1.245,35.191,6.467,11.448,-2.108,35.191,-5.321,10.785,-0.575,11.73,-76.246,-35.191
2.34,-5.748,10.969,2.443,35.191,6.993,11.4,-3.353,41.056,-5.608,10.785,-1.726,17.595,-82.111,-35.191
2.345,-6.083,11.065,3.64,41.056,7.472,11.257,-4.455,35.191,-5.896,11.216,-3.02,17.595,-82.111,-35.191
2.35,-6.371,10.921,4.742,41.056,8.047,10.921,-5.317,41.056,-6.04,11.216,-4.17,23.46,-82.111,-41.056
2.355,-6.754,10.634,5.556,41.056,8.43,10.442,-6.035,46.921,-6.327,10.929,-5.177,23.46,-82.111,-41.056
2.36,-6.993,10.155,6.323,46.921,8.574,9.82,-6.658,52.786,-6.471,10.641,-5.896,23.46,-76.246,-46.921
2.365,-7.089,9.628,6.898,52.786,8.814,9.388,-7.041,52.786,-6.615,10.066,-6.615,23.46,-70.381,-46.921
2.37,-7.185,9.101,7.329,52.786,8.909,9.005,-7.233,52.786,-6.471,9.491,-7.046,23.46,-64.516,-52.786
2.375,-7.281,8.622,7.52,52.786,8.814,8.67,-7.233,58.651,-6.615,8.916,-7.334,23.46,-52.786,-52.786
2.38,-7.233,8.239,7.472,52.786,8.526,8.478,-7.089,58.651,-6.615,8.484,-7.478,23.46,-41.056,-52.786
2.3850000000000002,-7.041,8.047,7.377,58.651,8.383,8.43,-6.85,58.651,-6.471,8.053,-7.334,29.326,-35.191,-52.786
2.39,-7.089,8.047,7.137,58.651,8.239,8.383,-6.61,52.786,-6.615,8.053,-7.19,29.326,-23.46,-52.786
2.395,-6.993,8.095,6.898,52.786,8.047,8.383,-6.275,52.786,-6.615,8.053,-7.046,35.191,-11.73,-52.786
2.4,-6.946,8.143,6.61,52.786,7.904,8.239,-5.892,52.786,-6.615,8.197,-6.759,35.191,-5.865,-52.786
2.4050000000000002,-6.898,8.143,6.227,52.786,7.616,8.047,-5.604,52.786,-6.759,8.34,-6.327,35.191,0.0,-52.786
2.41,-6.754,7.999,5.94,52.786,7.425,7.664,-5.317,52.786,-6.759,8.34,-6.04,35.191,5.865,-52.786
2.415,-6.706,7.76,5.7,52.786,7.329,7.329,-5.173,52.786,-6.759,8.34,-5.752,35.191,11.73,-52.786
2.42,-6.658,7.52,5.509,58.651,7.233,6.993,-5.03,58.651,-6.759,8.197,-5.608,35.191,11.73,-52.786
2.4250000000000003,-6.562,7.281,5.413,58.651,7.137,6.754,-4.79,58.651,-6.615,7.909,-5.464,29.326,17.595,-58.651
2.43,-6.467,6.993,5.173,58.651,7.089,6.61,-4.503,58.651,-6.615,7.765,-5.321,23.46,17.595,-58.651
2.435,-6.371,6.754,4.886,58.651,6.946,6.514,-4.263,58.651,-6.471,7.478,-5.033,17.595,17.595,-58.651
2.44,-6.275,6.514,4.646,58.651,6.898,6.467,-4.072,58.651,-6.327,7.046,-4.745,11.73,17.595,-58.651
2.445,-6.227,6.371,4.455,58.651,6.898,6.514,-3.88,58.651,-6.327,6.759,-4.458,11.73,17.595,-58.651
2.45,-6.131,6.323,4.263,58.651,6.85,6.61,-3.688,52.786,-6.183,6.471,-4.314,0.0,23.46,-58.651
2.455,-6.083,6.323,4.072,52.786,6.802,6.658,-3.449,52.786,-6.04,6.471,-4.17,0.0,23.46,-52.786
2.46,-6.083,6.419,3.832,52.786,6.658,6.467,-3.401,52.786,-6.04,6.471,-3.883,0.0,23.46,-52.786
2.465,-5.94,6.323,3.784,52.786,6.562,6.61,-3.209,46.921,-6.04,6.615,-3.739,0.0,29.326,-52.786
2.47,-5.844,6.371,3.593,46.921,6.61,6.754,-2.874,46.921,-6.04,6.471,-3.739,0.0,29.326,-46.921
2.475,-5.844,6.419,3.257,46.921,6.514,6.802,-2.635,46.921,-5.752,6.471,-3.307,0.0,29.326,-46.921
2.48,-5.844,6.467,3.018,46.921,6.323,6.754,-2.347,46.921,-5.752,6.471,-3.164,0.0,29.326,-46.921
2.485,-5.652,6.467,2.778,46.921,6.131,6.754,-2.06,46.921,-5.752,6.471,-2.876,11.73,35.191,-46.921
2.49,-5.556,6.419,2.443,46.921,6.035,6.706,-1.82,52.786,-5.752,6.471,-2.588,11.73,35.191,-46.921
2.495,-5.509,6.419,2.251,46.921,5.892,6.562,-1.629,52.786,-5.608,6.471,-2.301,11.73,35.191,-46.921
2.5,-5.461,6.371,2.06,52.786,5.652,6.371,-1.389,52.786,-5.608,6.615,-2.157,17.595,35.191,-46.921
2.505,-5.317,6.275,1.82,52.786,5.556,6.323,-1.054,52.786,-5.608,6.471,-1.869,11.73,35.191,-46.921
2.5100000000000002,-5.221,6.179,1.533,46.921,5.509,6.227,-0.862,52.786,-5.464,6.471,-1.582,17.595,35.191,-46.921
2.515,-5.125,6.035,1.293,52.786,5.365,6.083,-0.671,52.786,-5.321,6.327,-1.294,17.595,35.191,-46.921
2.52,-5.03,5.892,1.102,52.786,5.221,5.94,-0.431,52.786,-5.321,6.183,-1.15,11.73,35.191,-46.921
2.525,-4.886,5.7,0.91,52.786,5.03,5.844,-0.24,46.921,-5.321,5.896,-0.863,11.73,29.326,-46.921
2.5300000000000002,-4.79,5.604,0.719,46.921,5.077,5.796,-0.048,46.921,-5.033,5.752,-0.719,11.73,29.326,-46.921
2.535,-4.79,5.509,0.527,46.921,4.886,5.748,0.096,46.921,-5.033,5.608,-0.575,11.73,23.46,-46.921
2.54,-4.646,5.413,0.383,46.921,4.742,5.556,0.096,46.921,-4.889,5.608,-0.288,11.73,23.46,-41.056
2.545,-4.551,5.317,0.383,46.921,4.742,5.365,0.192,46.921,-4.889,5.464,-0.288,17.595,23.46,-41.056
2.5500000000000003,-4.503,5.173,0.287,46.921,4.694,5.077,0.287,41.056,-4.745,5.464,-0.288,17.595,17.595,-41.056
2.555,-4.503,4.934,0.192,46.921,4.598,4.886,0.431,41.056,-4.889,5.177,-0.144,17.595,17.595,-41.056
2.56,-4.407,4.694,0.096,41.056,4.551,4.646,0.335,41.056,-4.745,5.033,-0.0,17.595,11.73,-41.056
2.565,-4.359,4.551,0.144,41.056,4.551,4.79,0.623,35.191,-4.602,4.745,0.144,17.595,11.73,-41.056
2.57,-4.215,4.503,-0.144,35.191,4.455,4.934,0.719,35.191,-4.602,4.602,0.144,17.595,5.865,-35.191
2.575,-4.311,4.503,-0.192,35.191,4.311,4.503,0.814,35.191,-4.458,4.458,0.288,17.595,0.0,-35.191
2.58,-4.167,4.407,-0.335,35.191,4.263,4.455,0.766,29.326,-4.602,4.602,0.431,17.595,0.0,-29.326
2.585,-4.119,4.215,-0.287,29.326,4.359,4.263,0.766,29.326,-4.458,4.458,0.431,23.46,0.0,-29.326
2.59,-4.119,3.976,-0.287,29.326,4.311,3.928,0.623,29.326,-4.458,4.17,0.431,23.46,-5.865,-23.46
2.595,-4.072,3.688,-0.144,29.326,4.215,3.497,0.383,23.46,-4.314,3.883,0.431,23.46,-5.865,-23.46
2.6,-4.072,3.401,0.096,23.46,4.215,3.114,0.24,23.46,-4.314,3.739,0.144,23.46,-11.73,-23.46
2.605,-4.072,3.161,0.24,23.46,4.167,2.874,0.192,17.595,-4.314,3.595,-0.0,23.46,-11.73,-17.595
2.61,-4.024,2.922,0.335,17.595,4.215,2.682,0.144,17.595,-4.314,3.451,-0.144,23.46,-11.73,-17.595
2.615,-4.024,2.73,0.383,17.595,4.119,2.443,0.0,11.73,-4.314,3.164,-0.288,23.46,-17.595,-11.73
2.62,-3.976,2.443,0.479,11.73,3.928,2.156,-0.144,11.73,-4.17,2.876,-0.288,17.595,-17.595,-11.73
2.625,-3.832,2.156,0.623,11.73,3.928,1.868,-0.287,5.865,-4.17,2.588,-0.431,17.595,-23.46,-11.73
2.63,-3.784,1.82,0.766,5.865,4.119,1.724,-0.431,0.0,-4.026,2.157,-0.575,11.73,-23.46,-5.865
2.6350000000000002,-3.88,1.677,0.958,-0.0,4.119,1.629,-0.814,0.0,-4.026,1.869,-0.719,11.73,-23.46,0.0
2.64,-3.88,1.629,1.293,-5.865,4.167,1.485,-1.293,-5.865,-4.026,1.726,-1.007,11.73,-29.326,0.0
2.645,-3.88,1.629,1.772,-5.865,4.167,1.293,-1.868,-11.73,-4.026,1.869,-1.438,11.73,-29.326,5.865
2.65,-3.832,1.533,2.347,-11.73,4.119,0.814,-2.347,-17.595,-4.026,2.013,-2.013,0.0,-29.326,11.73
2.6550000000000002,-3.736,1.15,2.826,-17.595,4.119,0.192,-2.73,-23.46,-3.883,1.869,-2.445,0.0,-29.326,17.595
2.66,-3.545,0.287,3.209,-23.46,3.88,-0.766,-3.114,-29.326,-3.595,1.15,-3.02,0.0,-29.326,23.46
2.665,-3.209,-0.814,3.593,-29.326,3.401,-1.868,-3.593,-41.056,-3.02,-0.144,-3.307,0.0,-29.326,29.326
2.67,-2.73,-1.868,4.072,-41.056,2.922,-2.778,-4.024,-52.786,-2.588,-1.438,-3.739,-5.865,-23.46,35.191
2.6750000000000003,-2.251,-2.778,4.503,-52.786,2.395,-3.593,-4.359,-64.516,-2.157,-2.301,-4.314,-5.865,-17.595,46.921
2.68,-1.677,-3.593,4.838,-64.516,1.964,-4.311,-4.646,-82.111,-1.582,-3.164,-4.602,-5.865,-11.73,58.651
2.685,-1.15,-4.359,5.125,-76.246,1.485,-5.077,-4.79,-99.707,-0.863,-4.026,-5.033,-5.865,-5.865,70.381
2.69,-0.575,-5.173,5.221,-93.842,0.958,-5.94,-4.886,-117.302,-0.144,-5.033,-5.177,-5.865,0.0,87.977
2.695,-0.048,-5.844,5.365,-111.437,0.479,-6.993,-4.934,-134.897,0.431,-5.752,-5.321,0.0,5.865,105.572
2.7,0.431,-6.61,5.413,-129.032,-0.192,-7.856,-5.077,-152.493,1.007,-6.327,-5.321,0.0,17.595,123.167
2.705,0.766,-7.185,5.604,-152.493,-0.719,-8.766,-5.317,-175.953,1.438,-6.615,-5.321,0.0,29.326,146.628
2.71,1.198,-7.568,5.796,-170.088,-1.293,-8.814,-5.461,-193.548,1.582,-6.902,-5.608,0.0,41.056,164.223
2.715,1.724,-7.52,5.94,-187.683,-1.772,-8.622,-5.7,-211.144,2.013,-6.759,-5.896,-5.865,46.921,181.818
2.72,2.299,-7.329,6.131,-211.144,-2.251,-8.478,-5.94,-234.604,2.732,-6.615,-5.896,-11.73,52.786,205.279
2.725,2.635,-6.946,6.419,-228.739,-3.114,-7.856,-6.371,-252.199,3.164,-6.327,-6.183,-23.46,64.516,222.874
2.73,3.353,-6.179,6.802,-246.334,-3.401,-6.323,-6.61,-269.795,3.451,-5.608,-6.471,-35.191,70.381,240.469
2.735,3.928,-5.03,6.946,-263.93,-3.161,-2.778,-6.85,-287.39,4.314,-4.745,-6.759,-46.921,76.246,258.064
2.74,4.215,-2.539,7.137,-281.525,-2.156,2.778,-6.562,-304.985,5.033,-3.739,-6.902,-58.651,87.977,275.66
2.745,2.395,4.646,6.658,-299.12,11.736,24.429,12.694,-158.358,5.464,-0.863,-6.902,-64.516,93.842,293.255
2.75,8.909,24.142,-16.334,-152.493,-23.95,22.034,24.381,387.097,-11.935,64.71,10.641,-52.786,105.572,293.255
2.755,-12.167,24.19,-24.573,375.366,15.424,24.333,17.819,533.724,0.431,74.201,33.218,158.358,134.897,-129.032
2.7600000000000002,-16.957,15.136,-18.01,521.994,13.556,9.532,7.425,568.915,-45.153,29.048,28.185,29.326,93.842,-428.152
2.765,-2.347,3.305,-7.999,563.05,8.957,-11.304,-7.664,557.185,-2.157,-8.484,13.805,-99.707,-199.413,-527.859
2.77,-7.425,-5.413,8.047,551.319,20.262,-21.076,-17.052,563.05,-0.431,0.288,0.575,-41.056,-228.739,-498.534
2.775,-16.238,-17.1,17.196,551.319,24.525,-10.921,-12.933,521.994,-11.648,-0.144,-15.387,-11.73,-164.223,-463.343
2.7800000000000002,-17.627,-10.107,12.646,516.129,24.525,6.514,-6.946,416.422,-5.896,-6.327,-15.962,-58.651,-129.032,-475.073
2.785,-18.968,4.838,6.706,410.557,21.603,18.489,-3.928,287.39,-10.641,-5.321,-9.635,-93.842,-58.651,-445.748
2.79,-19.831,16.43,4.119,287.39,18.394,20.118,-2.635,193.548,-15.53,10.929,-4.458,-82.111,41.056,-334.311
2.795,-18.777,18.585,2.922,187.683,13.987,19.831,-1.485,93.842,-19.125,18.406,-3.164,-64.516,111.437,-228.739
2.8000000000000003,-14.945,17.771,1.868,87.977,11.879,17.675,-2.491,-11.73,-18.838,16.968,-2.157,-46.921,129.032,-134.897
2.805,-11.448,15.184,2.826,-17.595,10.825,14.035,-3.88,-82.111,-14.092,14.955,-2.013,-23.46,111.437,-29.326
2.81,-9.58,12.358,4.167,-82.111,10.203,9.82,-5.03,-76.246,-10.066,13.23,-3.307,0.0,93.842,64.516
2.815,-10.538,10.155,5.413,-76.246,9.005,9.149,-5.509,-29.326,-9.922,11.504,-4.889,23.46,87.977,93.842
2.82,-10.825,10.921,6.035,-29.326,8.095,11.113,-3.688,23.46,-12.654,12.942,-5.896,29.326,87.977,52.786
2.825,-10.059,11.4,4.215,17.595,8.239,13.125,-1.341,46.921,-13.086,13.373,-5.608,17.595,70.381,5.865
2.83,-8.143,11.783,1.772,46.921,8.383,12.598,-0.671,64.516,-10.497,12.079,-2.732,-5.865,41.056,-35.191
2.835,-7.568,10.538,1.054,64.516,9.436,10.155,-1.868,82.111,-7.478,10.497,-1.007,-11.73,17.595,-52.786
2.84,-8.335,8.957,2.251,76.246,10.107,8.191,-2.826,87.977,-8.053,9.203,-1.438,0.0,5.865,-70.381
2.845,-8.383,7.52,3.161,87.977,9.436,7.52,-1.964,93.842,-8.053,7.621,-2.588,11.73,5.865,-82.111
2.85,-8.143,6.658,2.347,93.842,9.628,6.898,0.048,105.572,-7.478,7.046,-2.876,23.46,11.73,-87.977
2.855,-8.478,6.371,0.335,105.572,8.478,6.802,1.15,117.302,-7.765,6.759,-1.294,29.326,23.46,-93.842
2.86,-8.335,6.514,-0.719,117.302,8.478,6.227,1.868,117.302,-8.484,6.759,0.431,35.191,29.326,-111.437
2.865,-8.862,6.419,-1.341,117.302,8.191,5.556,2.203,111.437,-8.916,7.19,1.294,35.191,35.191,-117.302
2.87,-8.67,5.748,-1.677,105.572,7.904,5.461,2.012,93.842,-9.347,7.046,1.869,35.191,29.326,-111.437
2.875,-8.622,5.988,-1.485,87.977,7.951,5.556,1.437,58.651,-9.778,6.615,1.726,29.326,23.46,-99.707
2.88,-8.287,5.94,-0.91,58.651,7.568,5.652,1.389,23.46,-9.347,6.759,1.294,23.46,5.865,-70.381
2.8850000000000002,-7.808,5.844,-0.862,23.46,7.281,5.844,1.15,0.0,-8.484,6.615,1.007,17.595,-5.865,-41.056
2.89,-7.425,5.892,-0.671,-0.0,7.472,6.323,1.102,-11.73,-8.197,6.471,0.863,11.73,-11.73,-5.865
2.895,-7.425,6.035,-0.575,-11.73,7.329,6.275,1.006,-17.595,-7.909,6.471,0.719,0.0,-23.46,11.73
2.9,-7.233,6.035,-0.527,-17.595,6.993,5.94,0.575,-23.46,-7.765,6.327,0.719,0.0,-29.326,17.595
2.9050000000000002,-6.946,5.7,-0.096,-23.46,7.041,6.035,-0.096,-29.326,-7.478,6.327,0.575,0.0,-35.191,23.46
2.91,-6.85,5.652,0.575,-23.46,7.425,6.179,-0.287,-29.326,-7.334,5.896,-0.144,0.0,-41.056,29.326
2.915,-7.041,5.7,0.766,-29.326,7.425,6.227,-0.719,-29.326,-7.19,5.896,-0.431,0.0,-46.921,29.326
2.92,-7.041,5.748,1.198,-23.46,7.52,6.323,-0.862,-23.46,-7.19,5.896,-0.863,0.0,-46.921,29.326
2.9250000000000003,-7.137,5.94,1.341,-23.46,8.095,6.467,-1.198,-23.46,-7.19,6.04,-1.15,0.0,-52.786,29.326
2.93,-7.568,6.083,1.629,-23.46,8.526,6.754,-1.293,-23.46,-7.478,6.327,-1.294,11.73,-52.786,23.46
2.935,-7.808,6.323,1.677,-23.46,8.862,6.946,-1.341,-23.46,-7.621,6.471,-1.582,11.73,-58.651,23.46
2.94,-7.904,6.419,1.724,-23.46,9.053,7.041,-1.341,-23.46,-7.621,6.615,-1.582,11.73,-58.651,29.326
2.945,-7.951,6.419,1.772,-23.46,9.101,7.185,-1.485,-23.46,-7.621,6.615,-1.726,17.595,-52.786,29.326
2.95,-7.904,6.562,1.868,-23.46,9.053,7.041,-1.724,-17.595,-7.478,6.615,-1.726,17.595,-52.786,23.46
2.955,-7.999,6.61,2.108,-23.46,8.862,6.898,-1.82,-17.595,-7.478,6.759,-1.869,23.46,-46.921,23.46
2.96,-7.951,6.514,2.203,-17.595,8.718,6.802,-1.629,-17.595,-7.765,6.902,-2.157,23.46,-41.056,23.46
2.965,-7.904,6.419,2.06,-17.595,8.622,6.85,-1.437,-17.595,-7.621,6.902,-2.013,23.46,-35.191,23.46
2.97,-7.808,6.514,1.868,-17.595,8.239,6.802,-1.389,-23.46,-7.765,6.759,-1.869,29.326,-29.326,23.46
2.975,-7.712,6.419,1.82,-23.46,8.047,6.658,-1.389,-29.326,-7.621,6.759,-1.726,29.326,-29.326,23.46
2.98,-7.568,6.419,1.82,-29.326,8.191,6.514,-1.198,-29.326,-7.621,6.902,-1.726,29.326,-29.326,29.326
2.985,-7.616,6.179,1.629,-29.326,8.335,6.275,-1.245,-29.326,-7.621,6.759,-1.582,29.326,-29.326,29.326
2.99,-7.664,6.131,1.677,-29.326,8.143,6.275,-1.245,-35.191,-7.478,6.615,-1.582,35.191,-29.326,35.191
2.995,-7.52,6.131,1.724,-29.326,7.904,6.275,-1.293,-35.191,-7.621,6.615,-1.582,35.191,-29.326,35.191
3.0,-7.377,6.035,1.724,-35.191,7.951,6.323,-1.293,-35.191,-7.478,6.615,-1.582,29.326,-29.326,35.191
3.005,-7.329,6.083,1.772,-35.191,7.999,6.419,-1.293,-35.191,-7.334,6.615,-1.726,29.326,-29.326,35.191
3.0100000000000002,-7.233,6.035,1.724,-35.191,7.904,6.467,-1.437,-35.191,-7.334,6.471,-1.726,29.326,-29.326,35.191
3.015,-7.137,6.035,1.868,-35.191,7.856,6.467,-1.533,-35.191,-6.902,6.327,-1.726,29.326,-29.326,35.191
3.02,-6.993,5.988,1.964,-35.191,7.808,6.467,-1.533,-35.191,-6.902,6.327,-1.869,29.326,-29.326,35.191
3.025,-6.946,5.988,1.964,-35.191,7.568,6.467,-1.485,-29.326,-6.615,6.183,-1.869,35.191,-23.46,35.191
3.0300000000000002,-6.754,6.131,1.916,-29.326,7.233,6.514,-1.389,-29.326,-6.615,6.327,-1.869,35.191,-23.46,35.191
3.035,-6.658,6.179,1.82,-29.326,6.802,6.658,-1.15,-23.46,-6.471,6.471,-1.726,35.191,-17.595,29.326
3.04,-6.323,6.323,1.581,-23.46,6.514,6.706,-0.91,-23.46,-6.471,6.615,-1.582,35.191,-17.595,29.326
3.045,-6.035,6.323,1.341,-23.46,6.514,6.754,-0.766,-17.595,-6.327,6.615,-1.294,35.191,-17.595,23.46
3.0500000000000003,-5.892,6.323,1.198,-17.595,6.371,6.754,-0.91,-17.595,-5.896,6.471,-1.15,41.056,-17.595,23.46
3.055,-5.844,6.419,1.341,-17.595,6.514,6.754,-0.958,-17.595,-5.752,6.615,-1.15,41.056,-17.595,23.46
3.06,-5.988,6.514,1.389,-17.595,6.61,6.754,-0.91,-17.595,-5.896,6.759,-1.294,41.056,-17.595,17.595
3.065,-6.083,6.658,1.341,-17.595,6.658,6.85,-0.91,-17.595,-6.04,6.902,-1.294,41.056,-17.595,23.46
3.0700000000000003,-6.227,6.706,1.341,-17.595,6.61,6.85,-0.862,-17.595,-6.183,7.046,-1.294,46.921,-17.595,23.46
3.075,-6.323,6.898,1.293,-17.595,6.514,6.946,-0.766,-11.73,-6.327,7.334,-1.294,41.056,-17.595,17.595
3.08,-6.227,6.946,1.198,-11.73,6.514,6.946,-0.719,-11.73,-6.471,7.621,-1.15,41.056,-23.46,17.595
3.085,-6.179,6.898,1.15,-11.73,6.467,6.993,-0.766,-5.865,-6.471,7.478,-1.007,41.056,-23.46,11.73
3.09,-6.179,6.898,1.198,-5.865,6.85,7.137,-0.814,0.0,-6.327,7.478,-1.15,35.191,-29.326,11.73
3.095,-6.419,6.993,1.245,-5.865,6.898,7.233,-0.958,0.0,-6.327,7.478,-1.15,35.191,-29.326,5.865
3.1,-6.467,7.089,1.389,-0.0,6.898,7.329,-1.006,0.0,-6.471,7.478,-1.294,35.191,-35.191,5.865
3.105,-6.467,7.137,1.437,-0.0,7.041,7.52,-0.958,0.0,-6.615,7.621,-1.294,29.326,-35.191,5.865
3.11,-6.467,7.233,1.389,-0.0,7.137,7.616,-0.91,0.0,-6.471,7.621,-1.294,29.326,-35.191,5.865
3.115,-6.61,7.377,1.341,-0.0,7.137,7.664,-1.006,5.865,-6.471,7.621,-1.294,29.326,-41.056,0.0
3.12,-6.61,7.425,1.437,5.865,7.233,7.664,-1.102,5.865,-6.615,7.765,-1.294,29.326,-41.056,0.0
3.125,-6.658,7.425,1.533,5.865,7.233,7.616,-1.15,5.865,-6.615,7.765,-1.438,29.326,-41.056,0.0
3.13,-6.61,7.329,1.581,5.865,7.233,7.52,-1.245,5.865,-6.615,7.765,-1.438,29.326,-41.056,-5.865
3.1350000000000002,-6.514,7.185,1.629,5.865,7.233,7.329,-1.293,11.73,-6.471,7.621,-1.438,29.326,-41.056,-5.865
3.14,-6.514,7.089,1.724,11.73,7.233,7.281,-1.389,11.73,-6.327,7.478,-1.582,29.326,-41.056,-5.865
3.145,-6.562,7.089,1.772,11.73,7.377,7.377,-1.437,11.73,-6.327,7.478,-1.726,29.326,-41.056,-5.865
3.15,-6.706,7.185,1.868,11.73,7.712,7.281,-1.437,11.73,-6.327,7.478,-1.726,29.326,-41.056,-11.73
3.1550000000000002,-7.041,7.233,1.868,11.73,7.472,7.616,-1.677,5.865,-6.615,7.909,-1.726,29.326,-41.056,-11.73
3.16,-6.658,7.377,2.108,5.865,7.712,7.568,-1.533,11.73,-6.615,7.621,-1.869,29.326,-35.191,-5.865
3.165,-7.041,7.472,1.916,11.73,7.664,7.712,-1.581,11.73,-6.759,7.909,-1.869,29.326,-35.191,-5.865
3.17,-6.993,7.568,2.012,11.73,7.664,7.808,-1.677,5.865,-6.902,8.053,-1.869,29.326,-35.191,-11.73
3.1750000000000003,-6.946,7.664,2.108,11.73,7.52,7.76,-1.677,11.73,-6.902,8.053,-2.013,23.46,-35.191,-5.865
3.18,-6.898,7.616,2.108,5.865,7.425,7.76,-1.724,5.865,-6.759,8.197,-2.013,23.46,-35.191,-5.865
3.185,-6.754,7.616,2.156,5.865,7.089,7.76,-1.724,5.865,-6.759,8.053,-2.013,23.46,-29.326,-5.865
3.19,-6.467,7.568,2.156,5.865,6.898,7.616,-1.533,5.865,-6.471,8.053,-2.157,23.46,-35.191,-5.865
3.1950000000000003,-6.227,7.472,1.964,-0.0,6.706,7.856,-1.629,0.0,-6.183,7.909,-2.013,23.46,-29.326,0.0
3.2,-6.083,7.568,2.06,-0.0,6.562,7.951,-1.629,0.0,-6.183,7.621,-1.869,23.46,-29.326,0.0
3.205,-5.988,7.712,2.06,-5.865,6.658,7.904,-1.677,-5.865,-5.896,8.053,-2.013,23.46,-29.326,0.0
3.21,-6.035,7.76,2.108,-5.865,6.802,7.999,-1.629,-5.865,-5.896,8.053,-2.013,23.46,-29.326,5.865
3.215,-6.083,7.76,2.06,-11.73,7.041,8.287,-1.485,-11.73,-5.752,8.197,-2.013,23.46,-29.326,11.73
3.22,-6.419,8.095,1.916,-11.73,7.951,8.909,-1.006,-5.865,-6.183,8.197,-1.869,23.46,-29.326,11.73
3.225,-7.712,9.82,1.485,-5.865,6.802,10.299,-1.581,5.865,-10.354,8.772,-1.294,23.46,-29.326,11.73
3.23,-6.993,10.682,2.012,5.865,7.041,10.011,-1.006,11.73,-6.902,12.079,-1.726,23.46,-35.191,0.0
3.235,-7.377,10.203,1.437,11.73,7.664,10.634,-0.814,11.73,-8.053,11.216,-1.726,11.73,-46.921,-5.865
3.24,-7.329,10.538,1.198,11.73,7.472,11.161,-0.958,23.46,-7.765,11.216,-1.15,0.0,-52.786,-11.73
3.245,-7.137,10.921,1.341,23.46,7.76,11.4,-0.766,29.326,-7.334,11.36,-1.15,-5.865,-64.516,-17.595
3.25,-7.185,11.017,1.15,29.326,8.143,11.448,-0.719,29.326,-7.19,11.36,-1.15,-5.865,-70.381,-23.46
3.255,-7.329,10.825,1.102,35.191,7.904,11.304,-0.814,35.191,-7.046,11.216,-1.007,-5.865,-70.381,-23.46
3.2600000000000002,-7.089,10.778,1.198,35.191,7.616,11.113,-0.958,41.056,-6.902,11.073,-1.007,-5.865,-76.246,-35.191
3.265,-6.898,10.682,1.341,41.056,7.712,10.921,-1.102,41.056,-6.759,11.073,-1.15,0.0,-76.246,-35.191
3.27,-6.802,10.394,1.437,41.056,7.76,10.778,-1.15,41.056,-6.615,10.929,-1.294,0.0,-76.246,-41.056
3.275,-6.658,10.155,1.485,41.056,7.616,10.586,-1.245,41.056,-6.327,10.354,-1.294,0.0,-76.246,-41.056
3.2800000000000002,-6.371,9.963,1.581,41.056,7.233,10.346,-1.341,41.056,-5.896,10.066,-1.438,0.0,-70.381,-41.056
3.285,-6.131,9.772,1.724,41.056,6.946,10.107,-1.389,41.056,-5.608,9.922,-1.582,11.73,-64.516,-41.056
3.29,-5.892,9.484,1.724,41.056,6.706,9.82,-1.389,41.056,-5.464,9.778,-1.582,17.595,-58.651,-41.056
3.295,-5.604,9.149,1.772,41.056,6.371,9.388,-1.389,35.191,-5.177,9.347,-1.582,23.46,-58.651,-41.056
3.3000000000000003,-5.317,8.862,1.724,35.191,5.844,8.814,-1.341,35.191,-4.745,9.059,-1.726,23.46,-52.786,-35.191
3.305,-5.03,8.478,1.724,35.191,5.413,8.43,-1.293,29.326,-4.745,8.772,-1.582,29.326,-46.921,-35.191
3.31,-4.79,8.239,1.677,29.326,5.125,8.191,-1.15,29.326,-4.602,8.628,-1.582,35.191,-41.056,-29.326
3.315,-4.694,8.143,1.581,29.326,4.886,8.047,-1.006,29.326,-4.602,8.628,-1.582,35.191,-41.056,-29.326
3.3200000000000003,-4.551,7.999,1.389,29.326,4.598,7.951,-0.862,29.326,-4.458,8.484,-1.438,35.191,-41.056,-23.46
3.325,-4.359,7.951,1.341,29.326,4.407,7.999,-0.814,29.326,-4.458,8.484,-1.294,35.191,-41.056,-23.46
3.33,-4.167,7.904,1.245,29.326,4.359,8.143,-0.671,29.326,-4.314,8.34,-1.15,29.326,-41.056,-23.46
3.335,-4.024,7.856,1.102,29.326,4.311,8.287,-0.623,29.326,-4.17,8.197,-1.007,29.326,-46.921,-23.46
3.34,-3.88,7.904,1.054,29.326,4.263,8.478,-0.671,29.326,-3.883,8.053,-0.863,29.326,-46.921,-23.46
3.345,-3.928,8.047,1.102,29.326,4.263,8.67,-0.766,29.326,-3.739,8.053,-0.863,29.326,-52.786,-23.46
3.35,-3.976,8.239,1.198,23.46,4.359,8.814,-0.91,23.46,-3.883,8.197,-1.007,35.191,-52.786,-23.46
3.355,-4.072,8.43,1.293,23.46,4.407,8.909,-1.054,23.46,-4.026,8.484,-1.15,35.191,-52.786,-23.46
3.36,-4.167,8.574,1.437,23.46,4.359,8.766,-1.102,23.46,-4.17,8.628,-1.294,41.056,-58.651,-23.46
3.365,-4.167,8.526,1.485,23.46,4.215,8.526,-1.198,29.326,-4.17,8.772,-1.294,41.056,-58.651,-23.46
3.37,-4.072,8.335,1.581,29.326,4.119,8.095,-1.15,29.326,-4.17,8.628,-1.438,41.056,-64.516,-23.46
3.375,-3.928,7.951,1.533,29.326,4.072,7.712,-1.102,29.326,-4.026,8.484,-1.438,41.056,-70.381,-23.46
3.38,-3.784,7.568,1.485,29.326,4.072,7.425,-1.245,29.326,-3.883,8.053,-1.438,41.056,-76.246,-23.46
3.3850000000000002,-3.64,7.185,1.581,29.326,4.024,7.377,-1.437,23.46,-3.595,7.621,-1.438,41.056,-76.246,-23.46
3.39,-3.497,7.041,1.82,29.326,4.311,7.041,-1.533,23.46,-3.307,7.19,-1.582,41.056,-82.111,-23.46
3.395,-3.64,6.85,1.916,29.326,4.407,6.85,-1.772,23.46,-3.307,7.19,-1.726,46.921,-82.111,-23.46
3.4,-3.688,6.61,2.108,29.326,4.119,6.754,-1.82,23.46,-3.164,6.902,-1.869,46.921,-82.111,-23.46
3.4050000000000002,-3.449,6.514,2.156,23.46,4.024,6.61,-1.916,23.46,-3.164,6.615,-2.013,46.921,-76.246,-23.46
3.41,-3.497,6.514,2.299,23.46,3.928,6.562,-2.06,17.595,-3.307,6.902,-2.013,46.921,-76.246,-17.595
3.415,-3.257,6.371,2.395,17.595,3.976,6.419,-2.06,17.595,-2.876,6.471,-2.301,46.921,-76.246,-17.595
3.42,-3.401,6.275,2.395,17.595,3.88,6.323,-2.012,17.595,-3.02,6.615,-2.301,46.921,-70.381,-17.595
3.4250000000000003,-3.353,6.179,2.395,17.595,3.784,6.227,-2.108,11.73,-3.02,6.471,-2.301,46.921,-70.381,-17.595
3.43,-3.161,5.988,2.443,11.73,3.64,6.179,-2.251,11.73,-3.02,6.327,-2.301,46.921,-70.381,-11.73
3.435,-3.018,5.94,2.635,11.73,3.736,6.035,-2.395,5.865,-2.732,6.04,-2.445,46.921,-70.381,-11.73
3.44,-3.161,5.892,2.778,5.865,3.88,5.94,-2.443,5.865,-2.732,6.04,-2.588,52.786,-64.516,-5.865
3.4450000000000003,-3.401,5.94,2.826,5.865,3.832,6.179,-2.587,0.0,-3.02,6.04,-2.732,52.786,-64.516,-5.865
3.45,-3.305,6.083,2.922,-0.0,3.976,6.227,-2.587,0.0,-3.164,6.327,-2.732,52.786,-64.516,0.0
3.455,-3.497,6.179,2.922,-0.0,3.784,6.323,-2.587,0.0,-3.164,6.471,-2.876,52.786,-64.516,0.0
3.46,-3.497,6.227,2.97,-0.0,3.64,6.035,-2.108,0.0,-3.451,6.615,-2.732,52.786,-64.516,0.0
3.465,-3.497,6.083,2.491,-5.865,3.784,6.85,-2.491,-11.73,-3.739,6.615,-2.445,52.786,-64.516,0.0
3.47,-3.209,6.419,2.826,-11.73,4.024,6.946,-2.299,-11.73,-3.02,6.471,-2.588,46.921,-64.516,11.73
3.475,-3.497,6.61,2.682,-11.73,4.455,7.185,-2.491,-5.865,-3.02,6.615,-2.732,46.921,-70.381,11.73
3.48,-3.88,6.946,2.826,-5.865,4.503,7.377,-2.73,0.0,-3.451,6.902,-2.588,52.786,-64.516,11.73
3.485,-4.119,7.281,3.066,-0.0,4.503,7.425,-2.874,0.0,-3.883,7.334,-2.876,52.786,-64.516,5.865
3.49,-4.167,7.425,3.257,-0.0,4.551,7.281,-3.018,0.0,-4.17,7.765,-3.02,52.786,-64.516,5.865
3.495,-4.263,7.233,3.401,-0.0,4.455,7.329,-2.922,0.0,-4.17,7.765,-3.307,52.786,-70.381,0.0
3.5,-4.215,7.281,3.257,-0.0,4.838,7.089,-3.018,5.865,-4.17,7.765,-3.307,52.786,-70.381,0.0
3.505,-4.311,6.898,3.353,-0.0,4.742,7.52,-3.305,0.0,-4.17,7.478,-3.164,46.921,-70.381,0.0
3.5100000000000002,-4.072,7.089,3.64,-0.0,5.125,7.76,-3.401,-5.865,-3.883,6.902,-3.451,46.921,-76.246,0.0
3.515,-4.407,7.425,3.688,-5.865,5.652,7.856,-3.64,0.0,-3.883,7.478,-3.595,52.786,-76.246,5.865
3.52,-5.03,7.712,3.976,-0.0,5.892,8.143,-4.024,-5.865,-4.458,7.765,-3.739,52.786,-76.246,5.865
3.525,-5.269,8.095,4.359,-5.865,6.083,8.287,-4.263,-5.865,-5.033,8.34,-4.026,52.786,-76.246,5.865
3.5300000000000002,-5.556,8.287,4.598,-5.865,6.323,8.335,-4.311,-5.865,-5.177,8.772,-4.458,52.786,-70.381,5.865
3.535,-5.748,8.383,4.646,-5.865,6.419,8.574,-4.263,0.0,-5.608,8.916,-4.458,52.786,-70.381,5.865
3.54,-5.748,8.478,4.598,-0.0,6.514,8.718,-4.167,0.0,-5.608,8.916,-4.458,46.921,-76.246,5.865
3.545,-5.748,8.478,4.503,-0.0,6.61,8.862,-4.072,0.0,-5.464,8.772,-4.458,46.921,-76.246,5.865
3.5500000000000003,-5.748,8.478,4.407,-0.0,6.514,8.814,-3.976,0.0,-5.464,8.628,-4.458,46.921,-76.246,0.0
3.555,-5.748,8.43,4.311,-0.0,6.419,8.718,-3.976,0.0,-5.464,8.628,-4.314,46.921,-70.381,0.0
3.56,-5.748,8.383,4.311,-0.0,6.419,8.574,-3.928,0.0,-5.464,8.628,-4.17,46.921,-70.381,0.0
3.565,-5.748,8.239,4.263,-0.0,6.371,8.383,-3.784,0.0,-5.464,8.484,-4.17,52.786,-70.381,0.0
3.5700000000000003,-5.748,8.143,4.119,-0.0,6.227,8.239,-3.64,0.0,-5.608,8.484,-4.17,52.786,-70.381,0.0
3.575,-5.7,7.999,4.024,-0.0,6.179,8.095,-3.545,0.0,-5.608,8.484,-4.026,52.786,-70.381,0.0
3.58,-5.604,7.856,3.88,-0.0,6.131,7.951,-3.401,5.865,-5.464,8.34,-3.883,52.786,-70.381,0.0
3.585,-5.604,7.712,3.736,-0.0,6.035,7.76,-3.257,5.865,-5.464,8.197,-3.739,58.651,-70.381,0.0
3.59,-5.604,7.616,3.593,-0.0,5.988,7.664,-3.161,5.865,-5.608,8.053,-3.595,58.651,-70.381,0.0
3.595,-5.604,7.568,3.497,5.865,6.035,7.664,-3.018,5.865,-5.608,8.053,-3.451,52.786,-70.381,0.0
3.6,-5.604,7.52,3.353,5.865,6.035,7.616,-2.874,5.865,-5.608,7.909,-3.307,52.786,-70.381,0.0
3.605,-5.604,7.472,3.257,5.865,5.988,7.568,-2.778,5.865,-5.608,7.909,-3.164,52.786,-70.381,0.0
3.61,-5.556,7.377,3.114,5.865,5.988,7.472,-2.73,5.865,-5.464,7.765,-3.02,52.786,-76.246,0.0
3.615,-5.556,7.281,3.066,5.865,5.892,7.425,-2.635,5.865,-5.608,7.765,-3.02,52.786,-76.246,-5.865
3.62,-5.509,7.185,2.97,5.865,5.796,7.329,-2.587,5.865,-5.608,7.621,-2.876,52.786,-76.246,-5.865
3.625,-5.413,7.137,2.97,5.865,5.892,7.281,-2.587,5.865,-5.464,7.478,-2.876,52.786,-82.111,-5.865
3.63,-5.461,7.089,2.97,5.865,5.988,7.233,-2.635,5.865,-5.464,7.334,-2.876,52.786,-82.111,-5.865
3.6350000000000002,-5.556,6.946,2.97,5.865,6.035,7.089,-2.682,5.865,-5.464,7.334,-2.876,52.786,-82.111,-5.865
3.64,-5.556,6.85,3.018,11.73,6.083,6.898,-2.73,11.73,-5.464,7.19,-2.876,52.786,-82.111,-5.865
3.645,-5.556,6.706,3.066,11.73,6.227,6.802,-2.826,11.73,-5.464,7.19,-2.876,52.786,-87.977,-5.865
3.65,-5.652,6.562,3.161,11.73,6.371,6.754,-2.874,11.73,-5.464,7.046,-3.02,52.786,-87.977,-11.73
3.6550000000000002,-5.748,6.562,3.209,11.73,6.419,6.754,-2.922,11.73,-5.608,6.902,-3.02,52.786,-87.977,-11.73
3.66,-5.796,6.562,3.257,11.73,6.419,6.658,-2.874,17.595,-5.608,6.902,-3.164,52.786,-87.977,-11.73
3.665,-5.844,6.514,3.209,17.595,6.371,6.562,-2.826,17.595,-5.752,6.902,-3.164,52.786,-87.977,-11.73
3.67,-5.844,6.419,3.209,17.595,6.467,6.562,-2.73,17.595,-5.752,6.902,-3.164,52.786,-82.111,-11.73
3.6750000000000003,-5.844,6.323,3.066,17.595,6.562,6.562,-2.539,17.595,-5.752,6.759,-3.02,52.786,-87.977,-17.595
3.68,-5.844,6.179,2.874,17.595,6.562,6.61,-2.347,17.595,-5.608,6.471,-2.876,52.786,-82.111,-17.595
3.685,-5.796,6.131,2.73,17.595,6.562,6.658,-2.251,17.595,-5.608,6.327,-2.732,52.786,-82.111,-17.595
3.69,-5.796,6.131,2.587,17.595,6.61,6.706,-2.156,17.595,-5.608,6.183,-2.588,52.786,-82.111,-17.595
3.6950000000000003,-5.796,6.131,2.539,11.73,6.706,6.754,-2.156,11.73,-5.464,6.183,-2.445,58.651,-82.111,-11.73
3.7,-5.94,6.131,2.491,11.73,6.85,6.802,-2.156,11.73,-5.608,6.183,-2.445,64.516,-76.246,-11.73
3.705,-6.083,6.275,2.491,11.73,6.85,6.898,-2.203,5.865,-5.752,6.183,-2.301,70.381,-76.246,-11.73
3.71,-6.227,6.514,2.539,5.865,6.946,7.041,-2.251,5.865,-6.04,6.471,-2.445,70.381,-70.381,-5.865
3.715,-6.467,6.802,2.587,5.865,6.946,7.233,-2.251,5.865,-6.327,6.902,-2.445,76.246,-70.381,-5.865
3.72,-6.61,7.089,2.635,5.865,7.089,7.472,-2.299,5.865,-6.615,7.334,-2.445,76.246,-70.381,0.0
3.725,-6.754,7.329,2.635,-0.0,7.281,7.664,-2.299,5.865,-6.759,7.621,-2.445,76.246,-70.381,0.0
3.73,-6.85,7.472,2.635,-0.0,7.377,7.904,-2.347,5.865,-6.902,7.909,-2.445,76.246,-76.246,0.0
3.735,-6.898,7.616,2.682,-0.0,7.425,8.095,-2.443,5.865,-7.046,7.909,-2.588,76.246,-76.246,0.0
3.74,-6.946,7.808,2.778,-0.0,7.472,8.239,-2.539,5.865,-6.902,8.053,-2.588,76.246,-82.111,0.0
3.745,-6.993,7.904,2.874,5.865,7.472,8.239,-2.682,5.865,-7.046,8.197,-2.732,76.246,-82.111,0.0
3.75,-6.946,7.904,3.018,5.865,7.377,8.43,-2.73,5.865,-6.902,8.34,-2.876,76.246,-82.111,-5.865
3.755,-6.85,8.047,3.066,5.865,7.568,8.574,-2.778,5.865,-6.902,8.34,-2.876,76.246,-82.111,-5.865
3.7600000000000002,-6.85,8.143,3.066,5.865,7.664,8.526,-2.874,5.865,-6.759,8.484,-2.876,76.246,-87.977,-5.865
3.765,-6.946,8.047,3.161,5.865,7.377,8.526,-2.922,5.865,-6.759,8.34,-3.02,82.111,-87.977,-5.865
3.77,-6.706,8.047,3.257,5.865,7.329,8.526,-3.018,0.0,-6.615,8.34,-3.164,82.111,-87.977,-5.865
3.775,-6.514,7.951,3.305,-0.0,7.425,8.526,-3.209,0.0,-6.327,8.197,-3.164,82.111,-87.977,0.0
3.7800000000000002,-6.562,7.951,3.449,-0.0,7.472,8.574,-3.257,-5.865,-6.183,8.053,-3.307,87.977,-82.111,0.0
3.785,-6.61,8.095,3.545,-5.865,7.616,8.766,-3.305,-5.865,-6.183,8.197,-3.307,87.977,-82.111,5.865
3.79,-6.754,8.335,3.545,-5.865,7.808,8.814,-3.257,-11.73,-6.327,8.484,-3.451,93.842,-82.111,11.73
3.795,-6.993,8.526,3.497,-5.865,7.712,8.862,-3.161,-5.865,-6.615,8.772,-3.451,93.842,-76.246,11.73
3.8000000000000003,-7.041,8.67,3.449,-11.73,7.568,8.814,-3.018,-5.865,-6.902,9.059,-3.307,93.842,-76.246,11.73
3.805,-6.993,8.622,3.305,-5.865,7.425,8.526,-2.874,0.0,-6.902,9.203,-3.307,93.842,-76.246,5.865
3.81,-6.898,8.383,3.114,-0.0,7.137,8.287,-2.635,0.0,-6.902,9.059,-3.02,93.842,-76.246,5.865
3.815,-6.61,8.095,2.922,5.865,6.754,8.095,-2.395,5.865,-6.759,8.772,-2.876,93.842,-76.246,0.0
3.8200000000000003,-6.227,7.856,2.73,5.865,6.658,7.856,-2.347,5.865,-6.327,8.484,-2.588,93.842,-76.246,0.0
3.825,-6.083,7.425,2.635,5.865,6.514,7.712,-2.299,5.865,-6.183,7.909,-2.445,93.842,-76.246,-5.865
3.83,-5.844,7.281,2.587,5.865,6.467,7.52,-2.347,5.865,-5.896,7.621,-2.445,93.842,-76.246,-5.865
3.835,-5.796,7.041,2.587,5.865,6.514,7.425,-2.395,5.865,-5.752,7.334,-2.445,93.842,-76.246,-5.865
3.84,-5.796,6.993,2.682,5.865,6.514,7.281,-2.491,5.865,-5.608,7.19,-2.445,99.707,-76.246,-5.865
3.845,-5.844,6.898,2.778,-0.0,6.514,7.137,-2.635,0.0,-5.608,7.046,-2.588,99.707,-76.246,0.0
3.85,-5.892,6.802,2.922,-0.0,6.467,6.946,-2.73,0.0,-5.608,7.046,-2.732,105.572,-76.246,0.0
3.855,-5.844,6.754,2.97,-0.0,6.323,6.802,-2.778,0.0,-5.752,7.19,-2.876,105.572,-76.246,0.0
3.86,-5.748,6.706,3.066,-0.0,6.131,6.802,-2.826,0.0,-5.752,7.19,-2.876,105.572,-76.246,0.0
3.865,-5.604,6.61,3.114,-0.0,6.179,7.185,-2.635,0.0,-5.608,7.046,-2.876,105.572,-76.246,0.0
3.87,-5.509,6.898,2.922,-0.0,5.796,7.041,-2.443,-5.865,-5.321,7.046,-2.876,105.572,-76.246,0.0
3.875,-5.365,6.706,2.73,-5.865,5.7,6.85,-2.491,-5.865,-5.321,7.046,-2.588,105.572,-76.246,5.865
3.88,-5.221,6.658,2.778,-5.865,5.844,6.706,-2.682,-5.865,-5.177,7.046,-2.588,111.437,-76.246,5.865
3.8850000000000002,-5.317,6.562,2.97,-5.865,6.035,6.61,-2.778,-5.865,-5.177,7.046,-2.732,111.437,-76.246,5.865
3.89,-5.461,6.61,3.066,-5.865,6.179,6.706,-2.73,-5.865,-5.177,7.046,-2.876,111.437,-76.246,5.865
3.895,-5.509,6.706,3.018,-5.865,6.131,6.898,-2.682,-5.865,-5.321,7.19,-2.876,105.572,-76.246,5.865
3.9,-5.556,6.898,3.018,-11.73,5.892,7.137,-2.682,-5.865,-5.321,7.334,-2.876,105.572,-76.246,11.73
3.9050000000000002,-5.461,7.185,2.97,-11.73,5.748,7.281,-2.539,-11.73,-5.464,7.478,-2.876,105.572,-76.246,11.73
3.91,-5.509,7.425,2.874,-5.865,5.94,7.472,-2.251,-5.865,-5.464,7.909,-2.732,105.572,-76.246,11.73
3.915,-5.652,7.616,2.587,-5.865,6.083,7.712,-2.06,-5.865,-5.608,8.197,-2.588,99.707,-76.246,11.73
3.92,-5.7,7.808,2.347,-5.865,6.131,7.951,-1.868,-5.865,-5.608,8.484,-2.301,93.842,-82.111,5.865
3.9250000000000003,-5.652,7.951,2.203,-5.865,6.083,8.239,-1.772,-5.865,-5.608,8.484,-2.157,93.842,-82.111,5.865
3.93,-5.604,8.143,2.108,-5.865,6.131,8.43,-1.629,0.0,-5.608,8.628,-2.013,87.977,-82.111,5.865
3.935,-5.604,8.239,1.964,-0.0,6.227,8.622,-1.485,0.0,-5.464,8.628,-1.869,87.977,-82.111,5.865
3.94,-5.604,8.287,1.82,-0.0,6.179,8.67,-1.437,5.865,-5.464,8.628,-1.726,82.111,-82.111,0.0
3.9450000000000003,-5.509,8.335,1.772,5.865,5.988,8.622,-1.389,5.865,-5.321,8.628,-1.582,82.111,-87.977,0.0
3.95,-5.413,8.287,1.724,5.865,5.748,8.43,-1.389,11.73,-5.321,8.628,-1.582,82.111,-87.977,-5.865
3.955,-5.317,8.143,1.724,11.73,5.748,8.287,-1.341,11.73,-5.321,8.484,-1.582,87.977,-87.977,-5.865
3.96,-5.221,8.047,1.677,11.73,5.7,8.239,-1.341,11.73,-5.177,8.484,-1.582,87.977,-87.977,-11.73
3.9650000000000003,-5.125,7.951,1.677,11.73,5.604,8.143,-1.389,11.73,-5.033,8.197,-1.438,87.977,-87.977,-11.73
3.97,-4.982,7.808,1.724,11.73,5.509,7.999,-1.341,11.73,-4.745,8.197,-1.582,87.977,-87.977,-11.73
3.975,-4.886,7.664,1.677,11.73,5.413,7.856,-1.293,11.73,-4.745,7.909,-1.438,87.977,-87.977,-11.73
3.98,-4.694,7.616,1.629,11.73,5.317,7.76,-1.245,11.73,-4.458,7.909,-1.438,87.977,-87.977,-11.73
3.985,-4.694,7.52,1.581,11.73,5.173,7.664,-1.15,11.73,-4.458,7.765,-1.438,87.977,-87.977,-11.73
3.99,-4.598,7.472,1.485,11.73,5.03,7.76,-1.102,11.73,-4.458,7.765,-1.294,93.842,-82.111,-11.73
3.995,-4.503,7.568,1.389,11.73,5.077,7.808,-1.054,11.73,-4.314,7.909,-1.294,93.842,-82.111,-11.73
4.0,-4.551,7.568,1.341,11.73,5.173,7.856,-1.006,11.73,-4.314,7.909,-1.15,93.842,-82.111,-11.73
4.005,-4.598,7.568,1.341,11.73,5.077,8.047,-0.958,11.73,-4.314,7.765,-1.15,93.842,-82.111,-5.865
4.01,-4.503,7.712,1.293,11.73,5.03,8.143,-0.91,11.73,-4.314,7.909,-1.15,93.842,-82.111,-11.73
4.015,-4.503,7.856,1.245,11.73,5.269,7.999,-0.862,11.73,-4.314,8.053,-1.007,93.842,-82.111,-11.73
4.0200000000000005,-4.646,7.856,1.15,11.73,5.365,8.143,-0.719,17.595,-4.314,8.197,-1.007,93.842,-82.111,-11.73
4.025,-4.79,7.951,1.006,11.73,5.173,7.999,-0.671,17.595,-4.458,8.197,-0.863,93.842,-82.111,-11.73
4.03,-4.598,7.904,0.958,17.595,5.03,8.095,-0.719,23.46,-4.458,8.34,-0.863,93.842,-82.111,-17.595
4.035,-4.407,7.904,1.006,23.46,4.79,8.143,-0.719,23.46,-4.314,8.34,-0.863,93.842,-76.246,-17.595
4.04,-4.263,7.904,1.054,23.46,4.742,7.951,-0.623,23.46,-4.17,8.197,-0.863,93.842,-76.246,-17.595
4.045,-4.167,7.808,0.958,23.46,4.838,7.52,-0.575,29.326,-4.026,8.197,-0.863,93.842,-76.246,-23.46
4.05,-4.311,7.52,0.91,29.326,4.79,7.281,-0.671,29.326,-4.026,8.053,-0.719,93.842,-76.246,-23.46
4.055,-4.311,7.281,1.006,29.326,4.742,7.137,-0.671,29.326,-4.17,7.909,-0.719,93.842,-76.246,-23.46
4.0600000000000005,-4.263,7.233,1.006,29.326,4.407,7.185,-0.623,23.46,-4.17,7.765,-0.863,93.842,-76.246,-23.46
4.065,-3.928,7.137,0.958,23.46,4.311,7.281,-0.431,23.46,-3.739,7.621,-0.863,87.977,-76.246,-23.46
4.07,-3.928,7.185,0.766,23.46,4.167,7.425,-0.287,23.46,-3.739,7.478,-0.719,87.977,-76.246,-23.46
4.075,-3.736,7.233,0.623,23.46,4.024,7.568,-0.144,23.46,-3.595,7.478,-0.575,87.977,-76.246,-23.46
4.08,-3.64,7.329,0.479,23.46,3.88,7.76,-0.048,17.595,-3.595,7.478,-0.431,87.977,-76.246,-23.46
4.085,-3.545,7.425,0.431,23.46,3.736,7.856,0.0,23.46,-3.451,7.478,-0.288,87.977,-82.111,-17.595
4.09,-3.449,7.472,0.335,23.46,3.593,7.856,0.0,17.595,-3.451,7.478,-0.144,87.977,-82.111,-17.595
4.095,-3.401,7.472,0.335,17.595,3.545,7.904,-0.096,17.595,-3.307,7.621,-0.144,87.977,-82.111,-17.595
4.1,-3.353,7.568,0.431,17.595,3.736,7.856,-0.048,17.595,-3.451,7.621,-0.144,93.842,-87.977,-17.595
4.105,-3.449,7.472,0.431,17.595,4.024,7.904,-0.048,11.73,-3.307,7.621,-0.144,93.842,-87.977,-11.73
4.11,-3.593,7.52,0.383,11.73,4.072,8.143,-0.144,11.73,-3.451,7.621,-0.144,93.842,-93.842,-11.73
4.115,-3.688,7.808,0.431,11.73,4.024,8.239,-0.287,11.73,-3.595,7.765,-0.144,93.842,-93.842,-11.73
4.12,-3.736,7.951,0.623,11.73,4.072,8.287,-0.431,11.73,-3.595,8.197,-0.288,99.707,-93.842,-11.73
4.125,-3.736,7.951,0.671,5.865,3.976,8.239,-0.24,11.73,-3.739,8.053,-0.431,99.707,-99.707,-11.73
4.13,-3.64,7.951,0.575,11.73,3.928,8.191,-0.096,11.73,-3.595,8.197,-0.431,105.572,-99.707,-5.865
4.135,-3.545,7.904,0.431,11.73,3.928,8.335,-0.144,5.865,-3.451,8.053,-0.288,105.572,-99.707,-11.73
4.14,-3.497,7.904,0.383,5.865,3.784,8.526,-0.048,5.865,-3.307,8.053,-0.144,105.572,-105.572,-5.865
4.1450000000000005,-3.353,7.999,0.287,5.865,3.784,8.574,0.096,0.0,-3.164,8.053,-0.144,105.572,-105.572,-5.865
4.15,-3.305,8.143,0.144,-0.0,3.976,8.239,0.096,-5.865,-3.164,8.053,0.144,111.437,-105.572,0.0
4.155,-3.497,8.143,0.192,-5.865,4.167,8.143,0.096,-5.865,-3.02,8.34,0.144,111.437,-105.572,5.865
4.16,-3.688,8.191,0.144,-11.73,4.215,8.239,-0.144,-11.73,-3.307,8.628,0.144,117.302,-105.572,5.865
4.165,-3.736,8.335,0.383,-11.73,4.024,8.335,-0.192,-11.73,-3.451,8.772,-0.0,111.437,-105.572,11.73
4.17,-3.64,8.526,0.431,-11.73,4.024,8.526,-0.144,-11.73,-3.451,8.916,-0.288,111.437,-111.437,11.73
4.175,-3.593,8.67,0.431,-11.73,4.072,8.909,0.0,-11.73,-3.451,9.203,-0.288,105.572,-111.437,11.73
4.18,-3.545,9.005,0.287,-11.73,3.928,9.197,0.144,-11.73,-3.307,9.347,-0.144,105.572,-111.437,11.73
4.1850000000000005,-3.545,9.245,0.096,-11.73,3.784,9.58,0.335,-11.73,-3.307,9.635,0.144,99.707,-111.437,11.73
4.19,-3.497,9.58,-0.048,-11.73,3.688,9.82,0.527,-11.73,-3.451,9.922,0.288,93.842,-111.437,11.73
4.195,-3.449,9.772,-0.24,-11.73,3.64,10.059,0.623,-11.73,-3.451,10.066,0.431,93.842,-117.302,17.595
4.2,-3.497,10.011,-0.335,-11.73,3.64,10.251,0.671,-11.73,-3.451,10.354,0.575,93.842,-117.302,17.595
4.205,-3.497,10.203,-0.431,-11.73,3.593,10.49,0.623,-11.73,-3.595,10.497,0.719,93.842,-123.167,17.595
4.21,-3.449,10.299,-0.335,-11.73,3.64,10.682,0.335,-11.73,-3.451,10.641,0.719,87.977,-129.032,11.73
4.215,-3.449,10.538,-0.096,-11.73,3.832,10.825,0.192,-11.73,-3.451,10.785,0.431,87.977,-129.032,11.73
4.22,-3.545,10.682,0.096,-11.73,4.215,10.682,0.144,-5.865,-3.451,10.929,0.288,87.977,-134.897,11.73
4.225,-3.784,10.73,0.096,-5.865,4.598,10.873,-0.192,-5.865,-3.451,11.216,0.288,87.977,-140.762,11.73
4.23,-4.024,10.778,0.383,-5.865,4.934,11.209,-0.431,0.0,-3.595,11.216,0.144,82.111,-146.628,5.865
4.235,-4.167,10.921,0.671,-0.0,5.03,11.4,-0.623,0.0,-3.739,11.216,-0.288,82.111,-146.628,5.865
4.24,-4.263,10.969,0.814,-0.0,5.077,11.496,-0.766,5.865,-3.739,11.216,-0.431,82.111,-146.628,0.0
4.245,-4.215,10.969,0.958,5.865,4.838,11.64,-0.91,5.865,-3.739,11.216,-0.575,82.111,-146.628,0.0
4.25,-4.024,10.969,1.102,5.865,4.551,11.496,-1.054,5.865,-3.739,11.073,-0.719,82.111,-140.762,-5.865
4.255,-3.88,10.825,1.245,5.865,4.311,11.257,-1.15,11.73,-3.451,10.785,-0.863,87.977,-140.762,-5.865
4.26,-3.688,10.634,1.293,11.73,4.167,11.065,-1.293,11.73,-3.307,10.785,-1.007,93.842,-140.762,-5.865
4.265,-3.545,10.442,1.485,11.73,4.072,10.682,-1.293,11.73,-3.307,10.497,-1.15,93.842,-140.762,-11.73
4.2700000000000005,-3.449,10.155,1.437,11.73,3.88,10.346,-1.293,11.73,-3.164,10.354,-1.294,99.707,-140.762,-11.73
4.275,-3.353,9.963,1.485,11.73,3.64,10.155,-1.389,17.595,-3.02,10.21,-1.15,105.572,-140.762,-11.73
4.28,-3.209,9.82,1.533,17.595,3.545,9.82,-1.341,17.595,-3.02,10.066,-1.15,105.572,-140.762,-17.595
4.285,-2.97,9.676,1.533,23.46,3.209,9.628,-1.437,23.46,-2.876,10.066,-1.294,111.437,-140.762,-17.595
4.29,-2.73,9.484,1.581,23.46,2.97,9.484,-1.437,17.595,-2.588,9.922,-1.294,111.437,-140.762,-17.595
4.295,-2.395,9.341,1.629,23.46,2.682,9.197,-1.677,23.46,-2.301,9.635,-1.294,111.437,-140.762,-17.595
4.3,-2.156,9.149,1.82,23.46,2.682,9.053,-1.724,23.46,-2.013,9.635,-1.438,111.437,-140.762,-17.595
4.305,-2.203,9.149,1.916,23.46,2.874,9.005,-1.677,23.46,-2.013,9.491,-1.582,111.437,-140.762,-17.595
4.3100000000000005,-2.299,9.293,1.82,23.46,2.874,9.101,-1.533,23.46,-1.869,9.635,-1.582,111.437,-140.762,-17.595
4.315,-2.395,9.484,1.724,23.46,2.73,9.293,-1.677,17.595,-2.013,10.066,-1.438,105.572,-140.762,-23.46
4.32,-2.395,9.628,1.868,23.46,2.826,9.484,-1.724,17.595,-2.013,10.066,-1.438,105.572,-140.762,-17.595
4.325,-2.395,9.82,1.964,17.595,2.922,9.628,-1.724,11.73,-2.157,10.354,-1.726,93.842,-140.762,-17.595
4.33,-2.635,10.011,1.916,11.73,2.97,9.867,-1.772,5.865,-2.301,10.497,-1.582,93.842,-140.762,-11.73
4.335,-2.73,10.155,1.964,5.865,3.161,10.107,-1.916,0.0,-2.445,10.785,-1.726,87.977,-146.628,-5.865
4.34,-2.874,10.346,2.108,-0.0,3.353,10.203,-1.964,0.0,-2.732,10.785,-1.869,82.111,-146.628,0.0
4.345,-2.97,10.442,2.156,-0.0,3.593,10.299,-2.108,-5.865,-2.588,10.929,-1.869,76.246,-152.493,0.0
4.3500000000000005,-3.209,10.49,2.299,-5.865,3.88,10.346,-2.108,-5.865,-2.876,11.073,-2.013,70.381,-152.493,5.865
4.355,-3.449,10.49,2.299,-5.865,4.119,10.49,-2.108,0.0,-3.02,11.073,-2.013,70.381,-158.358,5.865
4.36,-3.593,10.538,2.299,-0.0,4.263,10.49,-2.108,0.0,-3.307,11.073,-2.013,64.516,-158.358,0.0
4.365,-3.736,10.49,2.299,-0.0,4.551,10.634,-2.012,5.865,-3.307,10.929,-2.013,58.651,-158.358,0.0
4.37,-3.88,10.538,2.203,5.865,4.838,10.73,-1.916,5.865,-3.451,11.073,-2.013,58.651,-158.358,0.0
4.375,-4.024,10.49,2.108,11.73,5.077,10.778,-1.916,11.73,-3.451,10.929,-1.869,58.651,-158.358,-5.865
4.38,-4.167,10.442,2.06,11.73,5.173,10.682,-1.868,17.595,-3.595,10.785,-1.869,52.786,-158.358,-11.73
4.385,-4.215,10.203,1.964,17.595,5.269,10.49,-1.82,17.595,-3.595,10.497,-1.869,58.651,-158.358,-11.73
4.39,-4.263,10.011,2.012,17.595,5.221,10.203,-1.82,17.595,-3.595,10.21,-1.726,58.651,-152.493,-17.595
4.3950000000000005,-4.263,9.772,2.012,23.46,5.125,9.867,-1.82,23.46,-3.595,10.066,-1.869,58.651,-146.628,-17.595
4.4,-4.359,9.58,2.012,23.46,5.317,9.58,-1.724,23.46,-3.883,9.922,-1.726,64.516,-146.628,-23.46
4.405,-4.551,9.341,1.964,29.326,5.269,9.149,-1.581,29.326,-4.026,9.778,-1.726,64.516,-140.762,-23.46
4.41,-4.598,9.005,1.772,29.326,5.365,8.814,-1.437,29.326,-4.17,9.491,-1.582,64.516,-140.762,-23.46
4.415,-4.646,8.67,1.677,29.326,5.269,8.526,-1.341,29.326,-4.17,9.203,-1.438,64.516,-134.897,-23.46
4.42,-4.598,8.43,1.581,29.326,5.173,8.143,-1.198,23.46,-4.17,8.916,-1.438,64.516,-134.897,-23.46
4.425,-4.455,8.047,1.437,29.326,5.03,7.856,-1.102,23.46,-4.17,8.628,-1.294,64.516,-134.897,-23.46
4.43,-4.359,7.808,1.389,23.46,5.077,7.568,-0.958,23.46,-4.026,8.34,-1.15,64.516,-129.032,-23.46
4.4350000000000005,-4.407,7.472,1.245,23.46,5.221,7.329,-0.766,17.595,-4.026,8.053,-1.007,64.516,-129.032,-17.595
4.44,-4.455,7.233,1.102,23.46,5.269,7.233,-0.814,17.595,-4.026,7.765,-1.007,64.516,-129.032,-17.595
4.445,-4.503,7.137,1.102,23.46,5.221,7.137,-0.719,17.595,-4.026,7.621,-0.863,64.516,-129.032,-17.595
4.45,-4.407,7.041,1.006,23.46,5.173,6.993,-0.527,17.595,-4.026,7.478,-0.863,58.651,-123.167,-17.595
4.455,-4.359,6.802,0.862,17.595,5.173,6.85,-0.383,17.595,-3.883,7.334,-0.719,58.651,-117.302,-17.595
4.46,-4.311,6.658,0.719,23.46,5.173,6.658,-0.335,23.46,-3.883,7.046,-0.575,58.651,-117.302,-17.595
4.465,-4.359,6.514,0.671,17.595,5.173,6.754,-0.192,17.595,-3.883,6.902,-0.431,58.651,-111.437,-17.595
4.47,-4.407,6.514,0.527,23.46,5.03,6.514,-0.144,17.595,-4.026,6.902,-0.431,58.651,-105.572,-17.595
4.4750000000000005,-4.311,6.323,0.479,23.46,4.934,6.323,-0.096,23.46,-4.026,6.759,-0.288,58.651,-105.572,-17.595
4.48,-4.311,6.179,0.383,23.46,4.838,6.227,0.048,23.46,-3.883,6.615,-0.288,58.651,-99.707,-17.595
4.485,-4.263,6.083,0.335,23.46,4.646,5.988,0.0,23.46,-4.026,6.471,-0.144,58.651,-99.707,-17.595
4.49,-4.167,5.94,0.383,23.46,4.598,5.94,-0.048,23.46,-4.026,6.327,-0.144,58.651,-99.707,-23.46
4.495,-4.167,5.892,0.431,23.46,4.742,5.796,-0.096,29.326,-4.026,6.327,-0.288,58.651,-93.842,-23.46
4.5,-4.263,5.844,0.527,29.326,4.79,5.7,-0.192,29.326,-4.026,6.327,-0.288,58.651,-93.842,-23.46
4.505,-4.359,5.7,0.575,29.326,4.79,5.652,-0.287,29.326,-4.17,6.183,-0.431,58.651,-93.842,-23.46
4.51,-4.311,5.604,0.671,29.326,4.838,5.604,-0.335,29.326,-4.17,6.183,-0.431,52.786,-93.842,-23.46
4.515,-4.311,5.604,0.719,29.326,4.838,5.604,-0.431,29.326,-4.17,6.04,-0.575,52.786,-93.842,-23.46
4.5200000000000005,-4.359,5.556,0.814,29.326,4.838,5.652,-0.479,23.46,-4.17,6.04,-0.575,52.786,-93.842,-23.46
4.525,-4.407,5.652,0.862,23.46,4.982,5.796,-0.575,23.46,-4.17,6.04,-0.719,46.921,-93.842,-23.46
4.53,-4.455,5.796,0.958,23.46,5.125,5.892,-0.623,17.595,-4.314,6.183,-0.719,46.921,-93.842,-23.46
4.535,-4.646,5.892,1.006,23.46,5.269,6.035,-0.623,17.595,-4.314,6.327,-0.863,46.921,-93.842,-17.595
4.54,-4.742,6.035,1.006,17.595,5.365,6.179,-0.719,11.73,-4.458,6.327,-0.863,46.921,-93.842,-17.595
4.545,-4.838,6.179,1.102,11.73,5.509,6.419,-1.006,11.73,-4.602,6.471,-0.863,41.056,-93.842,-11.73
4.55,-4.934,6.419,1.341,11.73,5.7,6.562,-1.054,5.865,-4.745,6.759,-1.15,41.056,-93.842,-11.73
4.555,-5.077,6.61,1.437,5.865,5.94,6.754,-1.15,5.865,-4.745,7.046,-1.294,41.056,-93.842,-5.865
4.5600000000000005,-5.269,6.802,1.485,5.865,6.227,6.993,-1.198,0.0,-4.889,7.19,-1.294,41.056,-87.977,0.0
4.565,-5.461,7.041,1.581,-0.0,6.419,7.329,-1.293,0.0,-5.033,7.478,-1.438,35.191,-87.977,0.0
4.57,-5.652,7.425,1.629,-0.0,6.562,7.76,-1.341,0.0,-5.177,7.909,-1.582,35.191,-87.977,0.0
4.575,-5.844,7.808,1.724,-0.0,6.754,8.239,-1.389,0.0,-5.464,8.197,-1.582,29.326,-82.111,0.0
4.58,-5.988,8.191,1.724,-0.0,6.802,8.67,-1.389,5.865,-5.608,8.628,-1.582,29.326,-82.111,0.0
4.585,-6.035,8.574,1.772,5.865,7.137,9.101,-1.485,5.865,-5.752,8.916,-1.726,23.46,-82.111,0.0
4.59,-6.323,8.957,1.82,5.865,7.137,9.388,-1.389,5.865,-5.752,9.347,-1.726,23.46,-76.246,0.0
4.595,-6.275,9.149,1.772,5.865,7.281,9.58,-1.437,11.73,-6.04,9.491,-1.726,23.46,-76.246,-5.865
4.6000000000000005,-6.323,9.293,1.82,5.865,7.233,9.724,-1.629,11.73,-5.896,9.635,-1.582,17.595,-76.246,-5.865
4.605,-6.323,9.341,2.012,11.73,7.281,9.772,-1.629,17.595,-5.896,9.635,-1.869,17.595,-70.381,-11.73
4.61,-6.323,9.388,2.012,17.595,7.185,9.676,-1.772,23.46,-5.896,9.778,-1.869,17.595,-70.381,-11.73
4.615,-6.227,9.341,2.108,23.46,7.041,9.436,-1.82,23.46,-5.896,9.778,-2.013,17.595,-64.516,-17.595
4.62,-6.131,9.149,2.156,23.46,6.993,9.245,-1.868,29.326,-5.752,9.635,-2.013,23.46,-64.516,-23.46
4.625,-6.035,8.957,2.251,29.326,6.946,8.862,-1.916,29.326,-5.752,9.491,-2.157,23.46,-58.651,-23.46
4.63,-6.035,8.718,2.299,29.326,6.85,8.526,-1.964,29.326,-5.608,9.203,-2.157,23.46,-52.786,-23.46
4.635,-5.988,8.478,2.395,29.326,6.85,8.191,-2.012,23.46,-5.608,9.059,-2.301,23.46,-52.786,-23.46
4.64,-5.988,8.239,2.395,23.46,6.802,7.951,-2.06,23.46,-5.608,8.916,-2.301,23.46,-46.921,-23.46
4.6450000000000005,-5.892,8.143,2.443,23.46,6.754,7.76,-2.108,17.595,-5.464,8.772,-2.301,17.595,-46.921,-23.46
4.65,-5.844,7.904,2.491,17.595,6.946,7.76,-2.156,11.73,-5.464,8.628,-2.445,17.595,-41.056,-17.595
4.655,-5.94,7.951,2.539,11.73,7.041,7.808,-2.299,11.73,-5.464,8.628,-2.445,11.73,-41.056,-11.73
4.66,-6.083,7.999,2.682,11.73,7.185,8.047,-2.443,5.865,-5.464,8.628,-2.588,0.0,-35.191,-11.73
4.665,-6.227,8.239,2.826,5.865,7.377,8.383,-2.491,5.865,-5.752,8.772,-2.732,0.0,-29.326,-5.865
4.67,-6.371,8.478,2.874,-0.0,7.568,8.814,-2.539,0.0,-5.896,9.059,-2.876,0.0,-29.326,0.0
4.675,-6.514,8.909,2.874,-0.0,7.568,9.341,-2.539,-5.865,-5.896,9.347,-2.876,-5.865,-23.46,5.865
4.68,-6.514,9.341,2.922,-11.73,7.425,9.82,-2.491,-11.73,-5.896,9.778,-2.876,-5.865,-17.595,5.865
4.6850000000000005,-6.467,9.724,2.922,-11.73,7.377,10.251,-2.347,-17.595,-6.04,10.066,-2.876,-11.73,-11.73,11.73
4.69,-6.419,10.107,2.73,-17.595,7.281,10.634,-2.251,-17.595,-6.04,10.497,-2.732,-11.73,-11.73,17.595
4.695,-6.323,10.299,2.587,-17.595,7.041,10.538,-2.251,-17.595,-6.04,10.785,-2.588,-11.73,-5.865,17.595
4.7,-6.035,10.059,2.587,-17.595,7.041,11.257,-1.964,-23.46,-6.183,11.792,-2.588,-17.595,0.0,23.46
4.705,-6.275,11.017,2.347,-23.46,6.898,11.448,-2.012,-17.595,-5.752,10.641,-2.445,-11.73,0.0,11.73
4.71,-6.083,11.113,2.395,-17.595,6.802,11.352,-2.06,-11.73,-5.608,10.929,-2.301,-11.73,5.865,11.73
4.715,-5.892,10.825,2.443,-17.595,6.754,11.304,-1.964,-11.73,-5.608,11.216,-2.445,-11.73,5.865,11.73
4.72,-5.94,10.921,2.395,-11.73,6.706,11.257,-2.012,-5.865,-5.608,11.073,-2.301,-11.73,5.865,11.73
4.7250000000000005,-5.796,10.682,2.395,-11.73,6.514,11.113,-2.012,-5.865,-5.464,10.929,-2.301,-5.865,5.865,5.865
4.73,-5.604,10.586,2.395,-5.865,6.323,10.778,-1.964,-5.865,-5.321,10.785,-2.301,-5.865,5.865,5.865
4.735,-5.461,10.299,2.395,-5.865,6.083,10.634,-1.964,-5.865,-5.321,10.785,-2.301,0.0,11.73,5.865
4.74,-5.461,10.394,2.395,-5.865,5.892,10.442,-2.012,-5.865,-5.177,10.497,-2.301,0.0,11.73,5.865
4.745,-5.269,10.155,2.443,-5.865,5.7,10.059,-2.012,-5.865,-5.033,10.354,-2.301,0.0,11.73,0.0
4.75,-5.03,9.772,2.443,-5.865,5.509,9.676,-1.964,-5.865,-5.033,10.21,-2.445,0.0,11.73,0.0
4.755,-4.934,9.532,2.395,-5.865,5.269,9.388,-1.916,-5.865,-4.889,10.066,-2.301,0.0,17.595,0.0
4.76,-4.742,9.245,2.347,-5.865,5.125,9.149,-1.916,-5.865,-4.602,9.635,-2.301,0.0,11.73,0.0
4.765,-4.503,8.957,2.347,-11.73,4.934,9.245,-1.82,-11.73,-4.602,9.491,-2.301,0.0,11.73,0.0
4.7700000000000005,-4.551,8.67,2.299,-11.73,4.838,8.622,-1.82,-17.595,-4.314,9.203,-2.157,0.0,11.73,5.865
4.775,-4.167,8.814,2.299,-11.73,4.838,8.574,-1.724,-23.46,-4.17,8.916,-2.157,0.0,11.73,5.865
4.78,-4.263,8.718,2.156,-11.73,4.694,8.718,-1.533,-23.46,-4.026,9.059,-2.157,0.0,11.73,5.865
4.785,-4.215,8.335,1.916,-17.595,4.598,8.43,-1.389,-29.326,-4.17,8.916,-2.013,0.0,11.73,11.73
4.79,-4.215,8.526,1.82,-17.595,4.598,8.43,-1.293,-29.326,-4.026,8.772,-1.726,0.0,11.73,11.73
4.795,-4.119,8.43,1.677,-23.46,4.072,8.526,-0.862,-29.326,-3.883,8.628,-1.726,0.0,11.73,17.595
4.8,-3.832,8.478,1.341,-23.46,4.694,8.526,-1.054,-29.326,-3.883,8.628,-1.582,-5.865,11.73,23.46
4.805,-3.976,8.287,1.437,-29.326,4.838,8.526,-0.814,-35.191,-3.883,8.628,-1.294,-5.865,11.73,23.46
4.8100000000000005,-4.263,8.239,1.245,-29.326,4.934,8.383,-0.527,-35.191,-4.026,8.628,-1.294,-5.865,5.865,29.326
4.815,-4.359,8.191,0.958,-29.326,4.982,8.526,-0.527,-35.191,-4.17,8.484,-1.007,-5.865,11.73,23.46
4.82,-4.359,8.143,0.958,-29.326,4.886,8.67,-0.431,-29.326,-4.17,8.484,-0.863,0.0,11.73,29.326
4.825,-4.407,8.287,0.814,-29.326,4.886,8.718,-0.287,-29.326,-4.314,8.484,-0.863,0.0,11.73,29.326
4.83,-4.311,8.239,0.671,-23.46,4.79,8.718,-0.144,-23.46,-4.17,8.34,-0.719,0.0,11.73,23.46
4.835,-4.311,8.047,0.527,-23.46,4.742,8.478,0.048,-23.46,-4.17,8.197,-0.575,0.0,11.73,23.46
4.84,-4.215,7.904,0.431,-17.595,4.742,8.383,0.144,-17.595,-4.026,7.909,-0.431,0.0,11.73,17.595
4.845,-4.119,7.616,0.287,-11.73,4.646,7.808,0.24,-11.73,-3.883,7.909,-0.288,0.0,11.73,17.595
4.8500000000000005,-4.024,7.568,0.24,-11.73,4.598,7.664,0.335,-5.865,-4.026,7.621,-0.144,0.0,11.73,11.73
4.855,-4.072,7.089,0.048,-5.865,4.503,7.185,0.431,-5.865,-3.883,7.478,-0.0,0.0,11.73,5.865
4.86,-4.024,6.898,0.048,-0.0,4.551,6.85,0.479,0.0,-3.883,7.19,0.144,0.0,17.595,5.865
4.865,-3.928,6.562,0.0,5.865,4.455,6.514,0.431,0.0,-3.739,6.902,0.144,11.73,17.595,0.0
4.87,-3.928,6.275,0.0,5.865,4.359,6.61,0.575,5.865,-3.739,6.615,0.144,11.73,17.595,0.0
4.875,-3.832,5.94,-0.096,5.865,4.263,6.083,0.623,0.0,-3.595,6.327,0.144,17.595,17.595,-5.865
4.88,-3.88,6.131,-0.144,5.865,4.024,6.083,0.719,5.865,-3.451,6.04,0.288,17.595,17.595,-5.865
4.885,-3.736,5.7,-0.287,5.865,3.784,5.509,0.719,0.0,-3.307,6.04,0.431,11.73,23.46,0.0
4.89,-3.497,5.556,-0.287,5.865,3.976,5.413,0.671,0.0,-3.595,5.752,0.431,17.595,17.595,5.865
4.8950000000000005,-3.497,5.413,-0.192,5.865,3.88,5.317,0.719,-5.865,-3.595,5.752,0.431,17.595,17.595,5.865
4.9,-3.353,5.317,-0.287,-0.0,3.784,5.317,0.766,-11.73,-3.307,5.608,0.288,17.595,17.595,11.73
4.905,-3.593,5.221,-0.335,-5.865,3.976,5.365,0.814,-17.595,-3.451,5.608,0.288,11.73,17.595,17.595
4.91,-3.593,5.077,-0.479,-11.73,3.784,5.077,1.006,-17.595,-3.307,5.321,0.431,11.73,17.595,17.595
4.915,-3.64,5.077,-0.575,-11.73,3.784,5.077,1.198,-17.595,-3.595,5.321,0.575,11.73,17.595,23.46
4.92,-3.688,4.934,-0.671,-11.73,3.784,5.173,1.054,-17.595,-3.883,5.177,0.575,17.595,17.595,23.46
4.925,-3.784,4.79,-0.671,-11.73,3.832,5.125,1.245,-17.595,-4.17,4.889,0.719,17.595,17.595,23.46
4.93,-3.88,4.646,-0.479,-11.73,4.598,3.593,2.06,-11.73,-4.314,4.889,0.863,17.595,11.73,23.46
4.9350000000000005,-5.413,3.784,-0.766,-5.865,5.892,3.545,1.389,-5.865,-9.491,1.294,1.294,23.46,5.865,17.595
4.94,-3.88,4.79,-0.814,-0.0,4.646,4.79,0.144,5.865,-2.588,6.759,1.007,46.921,-17.595,5.865
4.945,-4.119,4.551,0.24,5.865,3.64,5.221,0.958,11.73,-2.876,5.321,0.288,35.191,-17.595,5.865
4.95,-3.976,4.407,-0.527,5.865,3.449,5.173,1.533,17.595,-4.458,4.745,0.144,23.46,-5.865,0.0
4.955,-3.784,4.838,-1.006,11.73,3.497,5.317,1.581,17.595,-4.314,5.321,1.007,23.46,-5.865,-5.865
4.96,-3.545,5.125,-1.102,17.595,3.305,5.556,1.341,29.326,-3.739,5.608,1.15,23.46,-11.73,-5.865
4.965,-3.545,5.125,-0.91,23.46,3.401,6.131,1.389,41.056,-3.451,5.464,1.15,17.595,-17.595,-11.73
4.97,-3.64,5.269,-0.91,29.326,3.593,7.137,1.389,46.921,-3.595,5.321,1.007,17.595,-23.46,-17.595
4.9750000000000005,-3.449,5.94,-1.006,29.326,3.545,6.514,1.533,52.786,-3.595,6.183,1.007,17.595,-23.46,-17.595
4.98,-3.305,6.898,-0.958,35.191,3.593,6.802,1.724,52.786,-3.451,6.759,1.15,23.46,-23.46,-23.46
4.985,-3.257,7.233,-1.245,35.191,3.545,7.568,2.012,46.921,-3.307,7.046,1.438,23.46,-23.46,-23.46
4.99,-3.353,7.185,-1.533,35.191,3.161,7.616,1.629,46.921,-3.307,7.334,1.438,23.46,-29.326,-23.46
4.995,-3.353,7.52,-1.245,35.191,3.018,8.335,1.533,41.056,-3.451,7.765,1.582,23.46,-35.191,-23.46
5.0,-3.161,7.904,-1.054,35.191,2.97,8.766,1.293,46.921,-3.307,7.909,1.438,23.46,-41.056,-23.46
5.005,-3.114,8.478,-0.862,29.326,2.922,8.909,1.341,41.056,-3.307,8.34,1.294,23.46,-46.921,-23.46
5.01,-2.97,8.957,-0.91,29.326,2.874,8.909,1.485,35.191,-3.307,8.772,1.007,23.46,-46.921,-17.595
5.015,-2.826,8.622,-1.054,29.326,2.73,8.526,1.006,29.326,-3.164,9.059,1.007,23.46,-52.786,-17.595
5.0200000000000005,-2.922,8.814,-0.623,17.595,2.874,9.293,0.814,23.46,-3.164,9.203,1.007,23.46,-64.516,-11.73
5.025,-2.874,8.862,-0.527,11.73,3.161,9.724,0.623,17.595,-3.164,9.203,0.575,29.326,-70.381,-5.865
5.03,-3.114,9.388,-0.287,11.73,3.161,10.059,0.766,17.595,-3.164,9.635,0.575,29.326,-76.246,-5.865
5.035,-3.018,10.107,-0.287,11.73,3.257,10.73,0.527,17.595,-3.307,9.635,0.431,35.191,-87.977,-5.865
5.04,-3.305,10.203,-0.192,11.73,3.497,11.304,0.335,17.595,-3.307,10.21,0.431,35.191,-93.842,0.0
5.045,-3.497,10.778,-0.096,11.73,3.64,12.167,0.527,17.595,-3.451,10.641,0.288,35.191,-99.707,-5.865
5.05,-3.64,11.304,-0.24,11.73,3.784,12.694,0.527,17.595,-3.595,10.641,0.288,35.191,-105.572,-5.865
5.055,-3.784,11.4,-0.24,11.73,3.688,13.22,0.575,17.595,-3.739,11.216,0.288,35.191,-111.437,-5.865
5.0600000000000005,-3.832,11.783,-0.24,11.73,3.736,13.268,0.479,17.595,-3.739,11.935,0.431,35.191,-123.167,-5.865
5.065,-3.64,12.071,-0.096,11.73,3.784,14.083,0.192,17.595,-3.595,12.223,0.288,41.056,-129.032,-5.865
5.07,-3.688,12.31,0.096,17.595,3.928,13.843,-0.383,17.595,-3.595,12.367,-0.0,41.056,-140.762,-5.865
5.075,-3.88,12.837,0.096,23.46,2.73,3.545,-1.389,11.73,-3.739,12.798,-0.144,46.921,-146.628,-5.865
5.08,-3.593,13.412,2.97,23.46,2.922,8.957,0.814,17.595,-3.883,13.23,-0.288,46.921,-158.358,-5.865
5.085,-3.593,10.73,-0.096,17.595,3.066,9.005,-1.006,17.595,-3.595,13.23,-0.288,46.921,-164.223,-5.865
5.09,-4.215,11.496,1.245,17.595,3.545,11.352,-1.006,23.46,-3.883,11.36,-0.719,41.056,-175.953,-5.865
5.095,-3.545,11.352,1.82,17.595,4.024,14.226,-0.383,29.326,-4.026,12.223,-1.438,35.191,-187.683,0.0
5.1000000000000005,-3.736,11.448,2.108,23.46,4.886,14.466,0.24,35.191,-3.595,12.367,-1.726,35.191,-199.413,-5.865
5.105,-3.928,12.119,2.347,29.326,4.79,12.837,0.0,41.056,-3.451,12.223,-1.869,41.056,-205.279,-11.73
5.11,-4.215,13.173,1.82,41.056,5.077,13.46,-1.006,52.786,-4.026,12.511,-2.013,46.921,-211.144,-17.595
5.115,-4.551,12.55,1.054,46.921,5.796,13.268,-2.491,58.651,-3.883,13.23,-1.15,52.786,-217.009,-29.326
5.12,-4.838,12.262,1.15,58.651,5.796,12.167,-3.784,70.381,-4.17,12.511,-0.863,52.786,-222.874,-41.056
5.125,-4.694,12.119,1.629,70.381,5.365,11.544,-4.024,76.246,-4.314,12.223,-1.007,46.921,-222.874,-46.921
5.13,-4.982,11.113,1.485,76.246,5.077,11.448,-3.928,76.246,-4.314,12.079,-1.294,52.786,-222.874,-58.651
5.135,-4.79,10.49,1.82,82.111,4.598,10.921,-3.928,76.246,-4.314,11.648,-1.438,58.651,-222.874,-70.381
5.14,-4.838,10.394,2.108,82.111,4.598,10.825,-3.88,82.111,-4.314,10.785,-1.726,58.651,-222.874,-76.246
5.1450000000000005,-4.694,10.107,2.251,87.977,5.173,10.203,-3.928,87.977,-4.314,10.497,-1.869,58.651,-222.874,-76.246
5.15,-4.551,9.963,2.299,82.111,6.035,9.724,-3.736,87.977,-4.026,10.497,-2.013,52.786,-228.739,-76.246
5.155,-4.598,9.388,2.06,82.111,6.467,9.436,-3.305,87.977,-3.883,10.354,-1.869,46.921,-228.739,-76.246
5.16,-4.838,9.245,2.06,82.111,6.658,9.436,-2.635,76.246,-3.595,10.21,-1.726,46.921,-222.874,-76.246
5.165,-4.934,9.388,1.964,82.111,6.85,9.532,-2.108,64.516,-3.883,10.21,-1.726,41.056,-222.874,-76.246
5.17,-5.125,9.436,1.916,76.246,7.041,10.155,-1.389,46.921,-4.17,10.354,-1.726,35.191,-217.009,-70.381
5.175,-5.077,9.963,2.299,64.516,7.664,9.436,2.108,29.326,-4.17,10.497,-1.726,29.326,-211.144,-64.516
5.18,-5.509,10.107,2.587,58.651,7.089,10.442,-0.144,17.595,-4.17,10.929,-2.013,23.46,-211.144,-58.651
5.1850000000000005,-5.796,10.538,0.383,46.921,7.472,11.065,-0.91,5.865,-3.883,11.36,-2.013,23.46,-205.279,-46.921
5.19,-5.269,11.161,1.198,41.056,6.562,11.017,-1.437,-11.73,-4.17,11.792,-0.719,23.46,-193.548,-41.056
5.195,-5.461,11.496,1.437,35.191,5.94,11.304,-1.102,-23.46,-4.458,11.792,-1.007,11.73,-181.818,-41.056
5.2,-5.173,11.592,1.581,23.46,5.077,11.161,-1.006,-41.056,-4.026,12.223,-1.294,11.73,-175.953,-35.191
5.205,-5.173,11.736,1.341,11.73,4.79,11.065,-0.719,-46.921,-3.883,12.367,-1.294,17.595,-170.088,-23.46
5.21,-4.359,11.64,1.102,5.865,4.311,10.682,-0.719,-46.921,-3.595,12.367,-1.294,17.595,-170.088,-17.595
5.215,-4.263,11.352,1.006,-0.0,3.88,10.873,-0.766,-46.921,-3.451,12.079,-1.007,11.73,-170.088,-11.73
5.22,-4.263,10.825,1.102,-0.0,2.682,11.544,-0.431,-41.056,-3.451,11.792,-1.007,11.73,-164.223,-11.73
5.2250000000000005,-3.832,11.209,0.958,-0.0,2.778,11.544,-0.91,-23.46,-3.307,11.36,-1.15,0.0,-164.223,-5.865
5.23,-3.449,10.921,1.15,-0.0,3.066,10.873,-1.054,-5.865,-3.307,11.216,-1.007,0.0,-164.223,-5.865
5.235,-3.305,10.778,1.198,5.865,3.449,10.155,-1.006,5.865,-2.732,11.216,-1.15,0.0,-170.088,-11.73
5.24,-3.449,10.299,1.198,17.595,3.976,10.011,-0.719,23.46,-3.02,10.497,-1.15,0.0,-175.953,-17.595
5.245,-3.832,9.724,1.389,29.326,4.598,9.82,-0.527,29.326,-3.02,10.21,-1.15,0.0,-175.953,-35.191
5.25,-3.88,9.197,1.581,41.056,4.886,9.341,-0.096,41.056,-3.307,9.778,-1.438,0.0,-175.953,-41.056
5.255,-4.072,8.814,1.677,52.786,4.838,8.909,0.144,46.921,-3.595,9.347,-1.438,11.73,-175.953,-46.921
5.26,-4.359,8.383,1.772,58.651,4.79,8.43,0.0,52.786,-3.883,8.772,-1.582,17.595,-170.088,-58.651
5.265,-4.742,7.951,1.772,64.516,4.742,7.999,-0.431,58.651,-4.026,8.484,-1.726,17.595,-164.223,-64.516
5.2700000000000005,-4.838,7.664,1.724,70.381,4.838,7.808,-0.91,64.516,-4.17,8.053,-1.726,23.46,-164.223,-70.381
5.275,-4.934,7.329,1.868,70.381,4.646,6.946,-1.293,70.381,-4.17,7.765,-1.869,23.46,-164.223,-70.381
5.28,-4.934,6.946,1.916,70.381,4.551,6.323,-1.485,82.111,-4.026,7.478,-2.013,29.326,-158.358,-70.381
5.285,-4.886,6.227,2.06,70.381,4.742,5.7,-1.724,87.977,-4.026,6.902,-1.869,29.326,-158.358,-70.381
5.29,-4.934,5.461,2.108,70.381,4.79,5.173,-2.012,99.707,-4.026,6.183,-2.013,29.326,-152.493,-64.516
5.295,-5.077,4.79,2.108,76.246,4.742,4.407,-2.299,111.437,-4.17,5.752,-2.013,29.326,-152.493,-58.651
5.3,-5.173,4.455,2.395,76.246,4.886,4.119,-2.587,123.167,-4.17,5.464,-2.157,29.326,-152.493,-58.651
5.305,-5.03,4.215,2.587,82.111,5.173,3.784,-2.874,134.897,-4.314,4.889,-2.445,35.191,-146.628,-58.651
5.3100000000000005,-5.03,3.88,2.682,82.111,5.269,3.88,-3.209,146.628,-4.458,4.745,-2.588,29.326,-140.762,-58.651
5.315,-5.077,3.832,2.778,87.977,5.556,3.64,-3.257,146.628,-4.458,4.458,-2.588,29.326,-140.762,-58.651
5.32,-5.03,3.545,2.682,93.842,5.796,3.497,-3.401,152.493,-4.602,4.314,-2.588,29.326,-134.897,-64.516
5.325,-5.03,3.688,2.778,93.842,5.94,3.832,-3.545,152.493,-4.602,4.17,-2.588,23.46,-134.897,-64.516
5.33,-4.982,3.545,2.922,93.842,6.035,3.305,-3.401,152.493,-4.889,4.17,-2.732,23.46,-129.032,-64.516
5.335,-5.173,3.832,2.922,93.842,6.083,3.209,-3.257,146.628,-4.889,4.314,-2.876,23.46,-129.032,-64.516
5.34,-5.365,3.832,3.066,87.977,6.323,2.874,-3.257,146.628,-4.889,4.458,-2.876,23.46,-123.167,-64.516
5.345,-5.796,3.593,2.874,82.111,6.61,2.682,-3.976,140.762,-5.033,4.17,-3.02,23.46,-117.302,-64.516
5.3500000000000005,-5.7,3.593,3.209,76.246,6.898,2.06,-4.359,129.032,-5.033,4.314,-3.02,23.46,-111.437,-58.651
5.355,-5.556,3.401,3.353,70.381,6.993,1.341,-4.79,105.572,-5.033,4.026,-3.164,23.46,-99.707,-52.786
5.36,-4.982,2.922,3.401,58.651,6.61,1.006,-5.173,82.111,-5.033,4.026,-3.451,29.326,-93.842,-41.056
5.365,-4.886,2.587,3.593,46.921,6.179,1.054,-5.748,52.786,-5.321,4.17,-3.451,29.326,-93.842,-35.191
5.37,-4.79,2.874,4.167,35.191,6.131,1.293,-6.035,29.326,-4.602,3.595,-3.595,23.46,-93.842,-23.46
5.375,-5.317,3.018,4.215,23.46,6.323,1.724,-6.275,11.73,-4.745,3.307,-4.17,23.46,-87.977,-17.595
5.38,-5.173,3.018,4.311,11.73,6.562,2.012,-6.179,0.0,-4.889,3.595,-4.17,23.46,-87.977,-11.73
5.385,-5.509,2.922,4.455,-0.0,6.802,2.299,-6.323,-5.865,-4.889,3.883,-4.17,17.595,-82.111,0.0
5.39,-5.796,3.257,4.79,-5.865,7.089,2.97,-6.275,-17.595,-5.177,3.883,-4.458,17.595,-76.246,5.865
5.3950000000000005,-6.131,3.688,4.934,-17.595,6.993,3.545,-6.083,-23.46,-5.464,4.17,-4.602,11.73,-70.381,17.595
5.4,-6.323,3.736,4.886,-23.46,7.041,3.976,-6.562,-29.326,-5.752,4.458,-4.889,11.73,-58.651,29.326
5.405,-6.371,4.119,4.934,-29.326,7.185,4.598,-6.898,-35.191,-5.752,4.745,-4.889,11.73,-58.651,35.191
5.41,-6.083,5.077,5.317,-41.056,7.185,5.269,-6.179,-41.056,-5.464,5.608,-5.033,0.0,-52.786,41.056
5.415,-6.131,6.083,5.7,-46.921,7.377,5.748,-5.604,-41.056,-5.321,6.471,-5.321,0.0,-41.056,46.921
5.42,-6.227,6.802,5.892,-46.921,7.281,6.083,-5.556,-41.056,-5.321,7.478,-5.896,0.0,-35.191,52.786
5.425,-6.61,7.76,6.323,-46.921,7.52,6.898,-5.7,-35.191,-5.464,8.34,-6.327,0.0,-35.191,46.921
5.43,-6.61,8.526,6.61,-46.921,7.089,7.76,-5.125,-29.326,-5.321,9.059,-6.327,0.0,-35.191,46.921
5.4350000000000005,-6.754,8.862,6.61,-41.056,5.988,8.909,-3.449,-29.326,-5.464,9.491,-6.327,0.0,-29.326,46.921
5.44,-6.802,9.341,6.658,-41.056,5.221,9.532,-3.449,-17.595,-5.608,9.922,-6.615,0.0,-23.46,41.056
5.445,-6.898,9.628,6.562,-41.056,5.125,9.341,-4.311,5.865,-5.464,10.21,-6.759,0.0,-17.595,35.191
5.45,-6.754,9.532,6.419,-41.056,5.413,9.101,-5.748,35.191,-5.321,10.354,-6.471,0.0,-11.73,35.191
5.455,-6.275,9.58,6.227,-41.056,6.035,9.005,-6.754,52.786,-5.033,10.354,-6.183,11.73,-5.865,41.056
5.46,-5.796,9.724,6.083,-41.056,6.371,8.047,-7.185,70.381,-5.033,9.922,-6.327,11.73,0.0,41.056
5.465,-5.365,9.915,5.892,-41.056,6.179,8.095,-7.568,76.246,-4.314,10.21,-5.896,17.595,5.865,41.056
5.47,-4.742,9.772,5.7,-46.921,6.323,7.568,-7.233,82.111,-4.026,10.21,-5.752,17.595,11.73,46.921
5.4750000000000005,-4.359,9.772,5.509,-52.786,5.94,7.712,-7.76,82.111,-3.451,10.21,-5.608,17.595,17.595,52.786
5.48,-3.928,9.628,5.604,-58.651,5.748,6.754,-7.712,87.977,-3.164,10.21,-5.608,17.595,17.595,58.651
5.485,-3.688,9.388,5.748,-64.516,5.7,6.371,-7.808,87.977,-2.732,10.066,-5.608,17.595,23.46,70.381
5.49,-3.449,9.484,5.7,-76.246,5.317,5.796,-8.43,82.111,-2.445,9.922,-6.04,17.595,29.326,76.246
5.495,-3.066,9.388,4.886,-82.111,5.173,5.125,-7.999,82.111,-2.301,10.066,-5.752,17.595,29.326,82.111
5.5,-3.64,9.963,5.892,-93.842,4.838,5.221,-7.808,76.246,-2.013,10.497,-5.608,17.595,29.326,93.842
5.505,-3.353,9.867,5.173,-105.572,5.365,4.551,-8.143,70.381,-2.157,10.354,-4.889,11.73,41.056,105.572
5.51,-3.305,9.867,4.886,-117.302,5.796,4.455,-8.335,58.651,-2.013,10.354,-5.033,0.0,46.921,111.437
5.515,-3.257,10.155,4.694,-123.167,6.275,4.79,-7.76,41.056,-1.869,10.641,-4.745,0.0,52.786,123.167
5.5200000000000005,-3.018,10.011,4.694,-129.032,6.083,6.131,-8.143,29.326,-1.726,10.641,-4.602,11.73,58.651,129.032
5.525,-2.826,9.963,4.646,-134.897,6.419,5.652,-8.526,23.46,-1.582,10.497,-4.602,17.595,64.516,134.897
5.53,-2.347,10.49,4.455,-140.762,6.227,5.125,-8.574,17.595,-1.294,10.497,-4.458,17.595,70.381,140.762
5.535,-2.395,10.634,4.503,-140.762,6.419,5.077,-8.814,11.73,-1.007,11.073,-4.314,23.46,70.381,140.762
5.54,-2.108,10.634,4.646,-140.762,6.85,5.03,-9.149,5.865,-1.007,11.073,-4.458,23.46,76.246,146.628
5.545,-1.341,10.682,4.838,-140.762,7.185,4.838,-9.436,0.0,-1.15,10.929,-4.889,29.326,76.246,140.762
5.55,-1.245,10.921,4.694,-140.762,7.664,4.646,-9.963,0.0,-0.575,10.785,-4.745,29.326,70.381,140.762
5.555,-1.15,10.73,4.838,-134.897,7.472,3.688,-10.538,0.0,-0.288,11.073,-4.745,29.326,64.516,140.762
5.5600000000000005,-1.724,11.113,4.838,-129.032,8.095,4.072,-10.299,-5.865,-0.144,11.073,-4.889,29.326,58.651,140.762
5.565,-1.389,10.825,4.694,-117.302,8.335,3.784,-10.011,-11.73,0.0,11.073,-4.745,29.326,46.921,134.897
5.57,-1.581,11.209,4.742,-105.572,8.574,3.784,-10.155,-17.595,0.0,10.929,-4.745,35.191,41.056,129.032
5.575,-1.724,11.161,4.742,-93.842,8.478,3.784,-10.299,-17.595,0.0,11.073,-5.033,29.326,35.191,117.302
5.58,-1.772,10.969,5.077,-82.111,8.239,3.449,-10.059,-11.73,0.0,11.073,-5.033,29.326,29.326,105.572
5.585,-1.964,11.065,4.886,-76.246,8.095,3.449,-9.532,-11.73,-0.144,10.785,-5.177,23.46,17.595,93.842
5.59,-1.916,10.969,4.79,-64.516,7.904,3.401,-8.909,-5.865,-0.288,10.929,-4.889,23.46,0.0,87.977
5.595,-1.772,10.921,4.694,-58.651,8.335,3.449,-8.047,-5.865,-0.719,11.216,-4.602,23.46,0.0,87.977
5.6000000000000005,-2.156,10.921,4.934,-58.651,7.999,3.688,-8.287,0.0,-1.007,11.216,-4.889,23.46,-5.865,87.977
5.605,-2.682,11.017,4.886,-64.516,8.143,3.976,-8.239,0.0,-1.007,11.648,-5.033,29.326,-5.865,87.977
5.61,-2.922,10.873,4.455,-70.381,8.143,4.024,-8.047,0.0,-0.863,11.648,-5.033,35.191,0.0,93.842
5.615,-2.778,10.634,4.359,-76.246,8.526,4.838,-7.089,0.0,-0.719,11.216,-4.889,35.191,5.865,99.707
5.62,-2.347,10.442,4.551,-82.111,8.287,4.024,-6.419,5.865,-0.863,10.785,-4.602,41.056,11.73,105.572
5.625,-2.06,10.107,4.598,-87.977,8.047,4.072,-6.419,5.865,-0.288,10.21,-4.314,46.921,17.595,105.572
5.63,-2.012,9.963,3.784,-87.977,8.047,4.024,-6.179,11.73,-0.431,9.635,-4.026,46.921,11.73,105.572
5.635,-2.347,9.58,4.072,-82.111,7.808,4.024,-6.083,11.73,-1.007,10.066,-3.883,52.786,11.73,93.842
5.64,-2.156,9.676,3.449,-82.111,7.377,3.88,-6.083,11.73,-1.294,9.922,-3.883,58.651,11.73,93.842
5.6450000000000005,-2.73,9.772,3.353,-82.111,7.233,3.497,-5.844,11.73,-1.438,10.354,-3.451,64.516,11.73,93.842
5.65,-2.826,9.915,3.066,-93.842,7.137,3.209,-5.94,17.595,-1.438,10.641,-2.876,70.381,23.46,99.707
5.655,-2.97,10.059,3.066,-105.572,7.185,2.97,-6.323,23.46,-1.007,9.491,-2.588,76.246,29.326,111.437
5.66,-2.826,9.915,2.251,-123.167,7.089,2.97,-6.227,29.326,-1.15,9.635,-2.876,87.977,35.191,117.302
5.665,-2.826,9.532,2.539,-134.897,6.898,3.209,-6.275,35.191,-1.007,9.778,-2.588,93.842,41.056,117.302
5.67,-2.347,9.197,2.156,-152.493,6.85,3.209,-6.514,46.921,-0.863,9.778,-1.869,105.572,41.056,123.167
5.675,-1.772,8.622,1.868,-164.223,6.993,2.922,-6.658,58.651,-1.726,9.635,-1.582,117.302,41.056,129.032
5.68,-2.203,8.43,1.82,-170.088,6.898,2.682,-6.514,64.516,-1.726,9.491,-1.726,117.302,41.056,146.628
5.6850000000000005,-2.299,8.335,1.581,-170.088,6.993,2.299,-6.371,76.246,-1.438,8.772,-1.438,123.167,41.056,152.493
5.69,-2.443,8.239,1.437,-175.953,6.85,2.108,-6.227,82.111,-1.438,8.628,-1.438,129.032,41.056,164.223
5.695,-2.299,7.999,1.15,-181.818,6.706,1.677,-6.083,82.111,-1.007,8.484,-1.294,129.032,35.191,164.223
5.7,-2.203,7.616,0.862,-181.818,6.562,1.293,-5.7,87.977,-1.007,7.909,-1.007,134.897,35.191,164.223
5.705,-2.203,7.185,0.862,-181.818,6.083,1.054,-5.7,87.977,-1.007,7.909,-0.575,140.762,35.191,164.223
5.71,-2.012,7.185,0.431,-175.953,5.988,0.814,-5.604,93.842,-1.007,7.19,-0.144,140.762,35.191,164.223
5.715,-2.299,7.137,0.527,-170.088,5.796,0.479,-5.652,87.977,-1.294,7.19,-0.288,140.762,35.191,152.493
5.72,-2.156,6.993,0.431,-158.358,5.413,0.383,-5.652,82.111,-1.007,7.046,-0.144,146.628,35.191,146.628
5.7250000000000005,-2.012,6.85,0.287,-152.493,5.03,-0.144,-5.604,76.246,-0.863,6.902,0.144,152.493,35.191,134.897
5.73,-1.916,7.137,0.479,-146.628,4.598,0.623,-6.035,70.381,-1.007,7.621,0.288,152.493,41.056,123.167
5.735,-1.772,6.85,-0.192,-146.628,4.024,0.671,-6.371,58.651,-1.007,8.053,0.431,158.358,46.921,123.167
5.74,-1.772,7.185,0.048,-152.493,3.64,1.102,-7.185,41.056,-1.294,7.765,0.863,158.358,52.786,129.032
5.745,-1.868,6.898,-0.814,-152.493,3.114,1.054,-7.041,23.46,-1.294,7.19,0.575,158.358,52.786,134.897
5.75,-1.533,7.329,-0.24,-158.358,2.539,1.389,-6.946,5.865,-0.719,7.334,0.863,158.358,52.786,134.897
5.755,-1.198,7.425,-1.15,-158.358,2.012,1.581,-6.946,-17.595,-0.719,7.478,0.719,164.223,52.786,129.032
5.76,-0.91,7.52,-0.862,-152.493,1.341,1.629,-6.85,-46.921,-0.288,7.621,0.863,164.223,46.921,123.167
5.765,-0.671,7.377,-0.958,-152.493,2.826,0.287,-4.886,-64.516,-0.431,7.478,1.15,164.223,41.056,117.302
5.7700000000000005,-0.671,7.568,-1.15,-152.493,3.832,0.192,-4.455,-64.516,0.0,7.621,1.438,164.223,35.191,111.437
5.775,-0.671,7.233,-1.629,-146.628,3.784,0.575,-4.551,-64.516,0.144,7.621,1.726,158.358,29.326,99.707
5.78,-0.479,7.233,-1.437,-146.628,4.407,1.006,-3.976,-64.516,0.431,7.621,1.869,158.358,29.326,93.842
5.785,-0.192,7.472,-1.82,-146.628,4.359,0.527,-3.832,-58.651,0.144,7.478,2.013,158.358,23.46,87.977
5.79,0.24,7.281,-1.916,-146.628,4.263,0.527,-3.832,-46.921,0.575,7.621,2.157,158.358,17.595,82.111
5.795,0.24,7.377,-1.916,-152.493,4.311,0.719,-4.359,-35.191,0.719,7.621,2.157,158.358,11.73,76.246
5.8,0.383,7.137,-2.108,-152.493,4.646,1.102,-4.598,-23.46,0.719,7.621,2.157,164.223,5.865,70.381
5.805,0.527,6.993,-2.443,-146.628,4.694,1.389,-4.934,-11.73,0.575,7.621,2.445,164.223,0.0,58.651
5.8100000000000005,0.575,6.898,-2.491,-140.762,4.79,1.341,-5.317,0.0,0.863,7.765,2.588,164.223,-5.865,58.651
5.815,0.719,7.999,-2.682,-140.762,4.838,1.198,-5.221,5.865,0.863,7.334,3.02,170.088,-5.865,52.786
5.82,0.766,7.52,-2.97,-134.897,4.838,1.245,-5.604,11.73,0.719,6.759,3.307,164.223,-11.73,46.921
5.825,1.15,7.329,-3.018,-134.897,4.503,1.341,-5.844,23.46,0.719,7.334,3.164,152.493,-11.73,41.056
5.83,1.533,7.041,-2.922,-123.167,4.503,1.102,-6.131,29.326,0.863,7.478,3.164,146.628,-11.73,35.191
5.835,1.724,7.041,-3.209,-111.437,4.646,0.958,-6.323,35.191,1.007,7.334,3.451,140.762,-11.73,35.191
5.84,1.677,6.946,-3.353,-105.572,4.694,0.958,-6.946,41.056,1.294,7.046,3.595,140.762,-11.73,29.326
5.845,2.012,6.85,-3.449,-99.707,4.551,0.719,-7.377,52.786,1.438,7.334,3.739,129.032,-11.73,29.326
5.8500000000000005,2.108,7.329,-3.593,-93.842,4.359,0.287,-8.047,52.786,1.438,7.621,3.595,129.032,-17.595,23.46
5.855,2.108,7.329,-3.832,-87.977,4.263,-0.287,-8.622,58.651,1.582,7.621,3.883,123.167,-17.595,23.46
5.86,2.251,7.664,-4.024,-82.111,4.215,-0.575,-9.197,64.516,1.582,7.909,4.17,117.302,-23.46,23.46
5.865,2.156,7.808,-4.311,-76.246,4.167,-0.766,-9.676,64.516,1.438,8.053,4.602,117.302,-23.46,23.46
5.87,2.251,7.904,-4.503,-76.246,4.024,-1.581,-10.011,70.381,1.582,8.197,4.602,111.437,-23.46,29.326
5.875,2.299,7.999,-4.646,-70.381,4.072,-2.108,-10.251,70.381,1.869,8.34,5.033,111.437,-23.46,29.326
5.88,2.443,8.143,-4.838,-76.246,3.593,-2.347,-10.155,70.381,2.157,8.484,5.033,111.437,-23.46,35.191
5.885,2.682,8.191,-5.125,-82.111,3.497,-2.635,-10.299,70.381,2.157,8.484,5.177,111.437,-23.46,35.191
5.89,2.97,8.191,-5.365,-87.977,2.97,-2.778,-10.299,64.516,2.301,8.628,5.321,111.437,-23.46,41.056
5.8950000000000005,3.353,8.143,-5.556,-87.977,3.209,-2.922,-10.394,70.381,2.588,8.628,5.464,111.437,-29.326,41.056
5.9,3.64,8.143,-5.748,-93.842,3.64,-2.874,-10.203,82.111,2.876,8.484,5.608,111.437,-35.191,46.921
5.905,4.024,7.904,-5.844,-99.707,4.024,-2.97,-10.011,93.842,3.307,8.484,5.896,111.437,-41.056,46.921
5.91,4.455,7.712,-6.131,-93.842,4.167,-2.922,-9.772,111.437,3.595,8.34,6.04,111.437,-46.921,41.056
5.915,4.886,7.568,-6.083,-93.842,4.311,-2.826,-9.58,123.167,3.883,8.197,6.183,111.437,-58.651,35.191
5.92,5.413,7.233,-6.131,-87.977,4.215,-3.209,-9.341,129.032,4.026,8.053,6.183,105.572,-64.516,29.326
5.925,5.7,7.137,-6.035,-76.246,4.072,-3.449,-9.101,134.897,3.883,8.053,6.04,99.707,-70.381,23.46
5.93,5.796,7.041,-5.892,-64.516,3.353,-3.353,-9.245,140.762,3.883,8.053,6.04,93.842,-76.246,17.595
5.9350000000000005,5.7,6.946,-5.748,-52.786,3.114,-3.688,-9.484,140.762,4.314,8.053,5.896,87.977,-82.111,17.595
5.94,5.94,6.946,-5.652,-46.921,3.018,-3.832,-9.58,140.762,4.458,7.909,5.752,82.111,-87.977,17.595
5.945,5.892,6.993,-5.604,-41.056,2.922,-3.64,-10.251,140.762,4.602,7.909,5.608,76.246,-99.707,17.595
5.95,5.892,6.993,-5.461,-35.191,3.114,-3.736,-10.73,140.762,4.602,7.909,5.464,70.381,-105.572,17.595
5.955,5.844,7.089,-5.317,-23.46,3.114,-3.784,-11.113,134.897,4.602,8.053,5.608,64.516,-111.437,11.73
5.96,5.748,7.185,-5.221,-17.595,3.066,-3.928,-11.4,129.032,4.458,8.197,5.608,58.651,-117.302,11.73
5.965,5.413,7.329,-5.221,-17.595,3.353,-4.119,-12.262,123.167,4.458,8.34,5.608,52.786,-117.302,11.73
5.97,5.173,7.52,-5.221,-11.73,3.066,-3.976,-12.694,123.167,4.458,8.628,5.752,41.056,-117.302,11.73
5.9750000000000005,4.934,7.856,-5.221,-11.73,2.299,-3.784,-12.933,117.302,4.314,8.916,5.896,35.191,-117.302,17.595
5.98,4.79,8.335,-5.125,-11.73,1.772,-3.593,-12.502,111.437,4.314,9.203,5.752,23.46,-111.437,23.46
5.985,4.886,8.814,-5.03,-11.73,1.772,-3.784,-12.454,105.572,4.314,9.347,5.608,17.595,-111.437,23.46
5.99,4.934,9.197,-5.269,-11.73,1.581,-3.784,-11.831,93.842,4.314,9.635,5.608,17.595,-105.572,29.326
5.995,4.838,9.388,-5.125,-11.73,1.868,-3.64,-11.448,87.977,4.314,10.066,5.608,17.595,-105.572,23.46
6.0,4.694,9.628,-5.125,-23.46,2.156,-3.449,-11.113,82.111,4.458,10.497,5.896,11.73,-99.707,29.326
