time_aligned_sec,L_Acc_X_aligned,L_Acc_Y_aligned,L_Acc_Z_aligned,L_Gyro_Z_aligned,R_Acc_X_aligned,R_Acc_Y_aligned,R_Acc_Z_aligned,R_Gyro_Z_aligned,T_Acc_X_aligned,T_Acc_Y_aligned,T_Acc_Z_aligned,T_Gyro_X_aligned,T_Gyro_Y_aligned,T_Gyro_Z_aligned
0.0,0.766,7.904,-5.94,23.46,-0.719,7.664,5.844,0.0,-0.719,8.34,-6.183,29.326,-5.865,-5.865
0.005,0.383,8.957,-5.94,17.595,-0.814,7.616,5.892,0.0,-0.575,7.19,-6.04,23.46,-5.865,-5.865
0.01,0.479,8.335,-5.269,11.73,-0.671,7.52,5.796,-5.865,-0.288,8.197,-5.752,29.326,-5.865,-5.865
0.015,0.383,7.568,-5.556,5.865,-0.144,7.904,5.7,0.0,-0.288,9.059,-6.183,29.326,0.0,0.0
0.02,0.192,8.143,-6.035,-0.0,0.144,8.574,5.796,0.0,-0.144,9.635,-6.04,29.326,0.0,0.0
0.025,1.054,8.335,-6.706,-11.73,-0.814,8.191,6.946,5.865,-0.288,7.478,-6.902,29.326,0.0,5.865
0.03,1.772,10.73,-2.874,-23.46,-0.192,8.095,6.658,17.595,0.288,14.668,-5.321,41.056,-5.865,17.595
0.035,-1.437,5.269,-5.556,-29.326,0.048,11.017,6.371,17.595,-0.575,10.641,-6.759,29.326,5.865,17.595
0.04,0.575,7.808,-5.892,-0.0,-0.766,9.388,5.748,11.73,-0.863,8.916,-6.183,5.865,0.0,11.73
0.045,0.144,8.43,-5.844,11.73,-0.479,8.814,5.844,11.73,-0.431,9.059,-6.183,5.865,0.0,11.73
0.05,0.192,8.478,-5.988,17.595,-0.24,8.526,6.275,17.595,-0.431,8.772,-6.471,5.865,5.865,17.595
0.055,0.383,8.43,-6.419,17.595,-1.15,7.664,6.754,17.595,-1.007,8.197,-6.902,5.865,5.865,11.73
0.06,0.671,8.335,-6.275,17.595,-1.15,7.616,6.658,17.595,-1.007,8.197,-6.615,0.0,5.865,17.595
0.065,0.383,8.335,-5.892,17.595,-0.958,8.143,6.323,17.595,-0.863,8.484,-6.471,-5.865,11.73,17.595
0.07,0.431,8.478,-6.035,17.595,-0.766,7.712,6.61,17.595,-0.719,8.34,-6.759,-5.865,17.595,17.595
0.075,0.383,8.478,-6.419,11.73,-0.575,7.089,7.089,17.595,-0.719,8.053,-7.334,-17.595,17.595,11.73
0.08,0.431,8.239,-7.041,11.73,-0.623,6.85,7.52,11.73,-0.575,7.765,-7.621,-23.46,17.595,11.73
0.085,0.287,7.76,-6.61,5.865,-0.671,7.472,6.993,11.73,-0.575,7.909,-6.759,-35.191,17.595,5.865
0.09,0.24,7.52,-5.892,11.73,-0.431,7.951,6.275,11.73,-0.431,7.909,-6.183,-41.056,23.46,11.73
0.095,0.144,7.329,-5.652,11.73,-0.24,8.095,6.035,17.595,-0.288,7.765,-6.04,-41.056,23.46,17.595
0.1,0.048,6.993,-5.556,17.595,-0.287,8.143,5.94,17.595,-0.288,7.765,-5.896,-35.191,23.46,17.595
0.105,0.0,6.946,-5.413,17.595,-0.048,8.239,5.844,23.46,-0.144,7.765,-5.752,-29.326,23.46,17.595
0.11,0.0,6.946,-5.317,23.46,0.048,8.143,5.7,23.46,-0.144,7.765,-5.752,-23.46,23.46,23.46
0.115,0.0,6.658,-5.317,23.46,0.0,8.191,5.7,23.46,-0.144,7.621,-5.608,-17.595,23.46,23.46
0.12,0.096,6.562,-5.269,29.326,-0.144,8.047,5.652,29.326,-0.288,7.478,-5.608,-5.865,23.46,29.326
0.125,0.048,6.85,-5.173,35.191,-0.144,7.904,5.556,29.326,-0.144,7.621,-5.608,5.865,23.46,29.326
0.13,0.048,7.329,-5.173,35.191,-0.048,7.951,5.604,35.191,-0.144,7.909,-5.608,5.865,23.46,35.191
0.135,0.048,7.76,-5.269,35.191,-0.144,8.047,5.7,41.056,-0.288,8.197,-5.752,5.865,23.46,35.191
0.14,0.0,8.047,-5.413,35.191,-0.24,8.191,5.796,41.056,-0.288,8.34,-5.896,17.595,23.46,35.191
0.145,0.0,8.239,-5.413,41.056,-0.383,8.191,5.844,41.056,-0.431,8.484,-5.896,17.595,23.46,35.191
0.15,0.048,8.43,-5.365,35.191,-0.335,8.191,5.796,41.056,-0.288,8.484,-5.896,17.595,23.46,35.191
0.155,0.0,8.383,-5.269,35.191,-0.24,8.191,5.7,35.191,-0.288,8.484,-5.752,5.865,29.326,35.191
0.16,0.048,8.335,-5.221,35.191,-0.192,8.191,5.652,35.191,-0.288,8.484,-5.752,5.865,29.326,29.326
0.165,0.0,8.287,-5.173,35.191,-0.048,8.239,5.604,35.191,-0.144,8.484,-5.608,5.865,29.326,29.326
0.17,0.0,8.239,-5.125,29.326,0.0,8.287,5.556,29.326,-0.144,8.484,-5.608,5.865,29.326,29.326
0.17500000000000002,-0.048,8.143,-5.077,29.326,0.048,8.383,5.509,29.326,-0.144,8.484,-5.464,5.865,29.326,29.326
0.18,-0.048,8.095,-5.077,35.191,0.048,8.383,5.509,35.191,-0.144,8.484,-5.464,5.865,29.326,29.326
0.185,0.0,8.191,-5.077,35.191,0.0,8.335,5.509,35.191,-0.144,8.484,-5.608,5.865,29.326,29.326
0.19,0.048,8.287,-5.125,35.191,-0.048,8.287,5.604,35.191,-0.144,8.484,-5.608,5.865,29.326,35.191
0.195,0.048,8.287,-5.221,35.191,0.0,8.335,5.7,35.191,-0.144,8.484,-5.752,5.865,29.326,35.191
0.2,0.0,8.383,-5.317,35.191,-0.144,8.287,5.748,35.191,-0.288,8.484,-5.752,5.865,29.326,35.191
0.20500000000000002,0.144,8.43,-5.413,35.191,-0.24,8.335,5.844,35.191,-0.431,8.628,-5.896,5.865,29.326,29.326
0.21,0.096,8.43,-5.461,35.191,-0.287,8.43,5.892,35.191,-0.431,8.628,-5.896,0.0,29.326,29.326
0.215,0.144,8.287,-5.461,29.326,-0.335,8.43,5.892,29.326,-0.431,8.628,-5.896,0.0,29.326,29.326
0.22,0.096,8.143,-5.461,29.326,-0.24,8.478,5.844,29.326,-0.288,8.484,-5.896,0.0,29.326,29.326
0.225,0.096,8.047,-5.413,29.326,-0.144,8.43,5.844,29.326,-0.288,8.484,-5.752,0.0,29.326,23.46
0.23,0.048,7.904,-5.317,23.46,-0.096,8.478,5.748,29.326,-0.288,8.34,-5.752,5.865,29.326,23.46
0.23500000000000001,0.096,7.712,-5.269,23.46,-0.192,8.526,5.7,23.46,-0.288,8.197,-5.608,5.865,29.326,23.46
0.24,0.192,7.52,-5.221,29.326,-0.287,8.478,5.652,23.46,-0.431,8.197,-5.608,5.865,29.326,23.46
0.245,0.24,7.425,-5.269,23.46,-0.287,8.335,5.7,29.326,-0.431,8.053,-5.752,17.595,29.326,23.46
0.25,0.24,7.568,-5.365,23.46,-0.24,8.191,5.844,23.46,-0.431,8.053,-5.896,23.46,29.326,23.46
0.255,0.24,7.712,-5.556,23.46,-0.24,8.143,5.988,29.326,-0.431,8.197,-6.04,29.326,29.326,23.46
0.26,0.287,7.856,-5.748,29.326,-0.287,8.143,6.227,29.326,-0.431,8.197,-6.183,29.326,29.326,23.46
0.265,0.287,8.047,-5.892,23.46,-0.431,8.239,6.371,29.326,-0.575,8.34,-6.471,29.326,29.326,23.46
0.27,0.335,8.287,-5.988,29.326,-0.575,8.383,6.467,29.326,-0.575,8.628,-6.471,29.326,29.326,23.46
0.275,0.335,8.383,-6.083,29.326,-0.575,8.526,6.562,29.326,-0.575,8.628,-6.615,29.326,29.326,23.46
0.28,0.335,8.43,-6.131,23.46,-0.527,8.622,6.562,23.46,-0.575,8.628,-6.615,29.326,29.326,23.46
0.28500000000000003,0.335,8.191,-6.083,23.46,-0.575,8.67,6.514,23.46,-0.575,8.628,-6.471,29.326,29.326,23.46
0.29,0.383,7.904,-5.988,23.46,-0.575,8.574,6.467,23.46,-0.575,8.34,-6.471,35.191,29.326,23.46
0.295,0.335,7.664,-6.035,23.46,-0.575,8.526,6.467,23.46,-0.575,8.197,-6.471,35.191,35.191,23.46
0.3,0.335,7.568,-5.988,23.46,-0.527,8.383,6.467,23.46,-0.575,8.197,-6.471,41.056,35.191,23.46
0.305,0.287,7.616,-5.94,29.326,-0.527,8.383,6.419,29.326,-0.575,8.197,-6.327,46.921,35.191,29.326
0.31,0.287,7.52,-5.94,29.326,-0.671,8.526,6.371,29.326,-0.575,8.197,-6.327,52.786,35.191,29.326
0.315,0.287,7.425,-5.94,35.191,-0.766,8.67,6.371,35.191,-0.575,8.197,-6.327,58.651,41.056,35.191
0.32,0.287,7.52,-5.892,35.191,-0.766,8.67,6.323,35.191,-0.575,8.34,-6.327,64.516,41.056,35.191
0.325,0.24,7.712,-5.844,41.056,-0.719,8.622,6.323,41.056,-0.575,8.34,-6.183,70.381,46.921,35.191
0.33,0.192,7.904,-5.796,41.056,-0.623,8.574,6.275,41.056,-0.575,8.484,-6.183,76.246,46.921,41.056
0.335,0.144,8.143,-5.7,41.056,-0.575,8.526,6.227,46.921,-0.431,8.628,-6.183,82.111,52.786,41.056
0.34,0.192,8.43,-5.604,46.921,-0.479,8.526,6.083,46.921,-0.431,8.772,-6.04,82.111,52.786,46.921
0.34500000000000003,0.192,8.574,-5.413,46.921,-0.431,8.574,5.892,46.921,-0.431,8.772,-5.896,82.111,52.786,46.921
0.35000000000000003,0.192,8.718,-5.173,46.921,-0.383,8.766,5.652,46.921,-0.431,8.916,-5.608,82.111,52.786,46.921
0.355,0.192,8.862,-4.934,46.921,-0.287,8.862,5.461,46.921,-0.431,9.059,-5.321,82.111,52.786,46.921
0.36,0.192,9.053,-4.694,46.921,-0.144,8.909,5.221,46.921,-0.288,9.203,-5.177,82.111,52.786,41.056
0.365,0.144,9.149,-4.551,41.056,0.0,8.957,5.077,41.056,-0.288,9.347,-5.033,76.246,52.786,41.056
0.37,0.096,9.197,-4.551,41.056,0.0,9.053,5.077,41.056,-0.288,9.347,-5.033,76.246,52.786,41.056
0.375,0.048,9.197,-4.551,41.056,0.0,9.053,5.077,35.191,-0.144,9.347,-5.033,76.246,52.786,35.191
0.38,0.144,9.101,-4.598,35.191,-0.048,9.101,5.077,35.191,-0.288,9.347,-5.033,70.381,46.921,35.191
0.385,0.096,9.053,-4.646,35.191,-0.192,9.101,5.077,35.191,-0.288,9.347,-5.033,70.381,46.921,35.191
0.39,0.096,9.053,-4.598,35.191,-0.192,9.197,5.077,35.191,-0.288,9.347,-5.033,70.381,46.921,35.191
0.395,0.0,8.957,-4.551,35.191,-0.144,9.341,5.03,35.191,-0.288,9.347,-5.033,70.381,46.921,35.191
0.4,0.0,8.909,-4.455,35.191,-0.144,9.436,4.886,35.191,-0.288,9.347,-4.889,70.381,46.921,35.191
0.405,0.0,8.957,-4.263,35.191,-0.048,9.388,4.694,35.191,-0.144,9.347,-4.602,76.246,46.921,35.191
0.41000000000000003,-0.048,8.957,-4.119,35.191,0.048,9.436,4.598,35.191,-0.144,9.347,-4.602,76.246,46.921,29.326
0.41500000000000004,-0.096,9.053,-4.024,35.191,0.048,9.532,4.551,35.191,-0.144,9.491,-4.458,76.246,46.921,35.191
0.42,-0.144,9.149,-3.976,35.191,0.048,9.628,4.455,35.191,0.0,9.635,-4.458,82.111,46.921,29.326
0.425,-0.192,9.293,-3.832,35.191,0.144,9.676,4.311,35.191,0.0,9.778,-4.314,87.977,46.921,35.191
0.43,-0.24,9.436,-3.688,35.191,0.192,9.724,4.167,35.191,0.0,9.778,-4.17,87.977,46.921,35.191
0.435,-0.287,9.484,-3.593,35.191,0.144,9.772,4.072,35.191,0.0,9.922,-4.026,87.977,46.921,35.191
0.44,-0.335,9.436,-3.449,35.191,0.192,9.867,3.928,35.191,0.144,9.922,-3.883,87.977,46.921,35.191
0.445,-0.431,9.436,-3.353,29.326,0.335,9.867,3.88,29.326,0.288,9.922,-3.883,93.842,46.921,29.326
0.45,-0.479,9.724,-3.257,29.326,0.479,9.772,3.736,29.326,0.431,10.066,-3.739,93.842,46.921,29.326
0.455,-0.575,10.107,-3.161,29.326,0.623,9.772,3.688,29.326,0.431,10.21,-3.595,93.842,46.921,23.46
0.46,-0.623,10.251,-3.114,29.326,0.719,9.772,3.64,23.46,0.575,10.354,-3.595,87.977,46.921,23.46
0.465,-0.671,10.299,-2.97,23.46,0.814,9.628,3.497,23.46,0.575,10.21,-3.451,87.977,46.921,23.46
0.47000000000000003,-0.671,10.346,-2.874,23.46,0.766,9.532,3.353,23.46,0.575,10.21,-3.307,82.111,41.056,23.46
0.47500000000000003,-0.671,10.346,-2.682,17.595,0.766,9.532,3.161,17.595,0.575,10.21,-3.164,76.246,41.056,17.595
0.48,-0.671,10.251,-2.491,17.595,0.814,9.532,2.97,17.595,0.575,10.21,-3.02,64.516,41.056,17.595
0.485,-0.766,10.011,-2.347,17.595,0.91,9.532,2.826,17.595,0.719,10.066,-2.876,58.651,41.056,11.73
0.49,-0.814,9.772,-2.347,11.73,0.958,9.58,2.778,11.73,0.719,9.922,-2.732,52.786,35.191,11.73
0.495,-0.91,9.676,-2.108,11.73,0.862,9.82,2.491,11.73,0.863,10.21,-2.301,52.786,35.191,5.865
0.5,-1.341,10.394,-0.862,11.73,0.814,11.592,1.102,11.73,1.007,11.216,-0.863,52.786,35.191,11.73
0.505,-0.431,9.772,-0.719,17.595,1.581,10.346,1.341,17.595,0.719,10.066,-1.438,58.651,35.191,17.595
0.51,-0.431,11.496,-0.719,11.73,1.916,10.059,1.293,11.73,0.719,11.648,-1.15,58.651,29.326,5.865
0.515,-0.671,11.592,-0.862,-11.73,0.719,10.73,1.341,-11.73,0.719,11.073,-1.582,52.786,17.595,-17.595
0.52,-1.245,9.628,-2.012,-17.595,0.719,10.011,2.299,-23.46,1.007,9.922,-2.445,46.921,17.595,-23.46
0.525,-0.958,9.628,-2.012,-11.73,0.958,9.676,2.395,-11.73,0.863,9.922,-2.301,46.921,17.595,-11.73
0.53,-0.862,10.107,-1.389,-0.0,1.006,9.867,1.868,0.0,0.719,10.354,-1.726,46.921,17.595,0.0
0.535,-0.575,10.299,-0.766,-0.0,0.958,10.442,1.245,0.0,0.575,10.641,-1.15,46.921,17.595,0.0
0.54,-0.719,9.963,-0.91,-5.865,0.862,10.394,1.341,-5.865,0.719,10.354,-1.294,46.921,17.595,-5.865
0.545,-0.91,9.484,-1.15,-11.73,0.862,10.203,1.533,-11.73,0.719,10.066,-1.582,46.921,11.73,-11.73
0.55,-0.91,9.436,-1.293,-11.73,0.623,9.867,1.581,-11.73,0.719,9.778,-1.582,52.786,11.73,-11.73
0.555,-0.814,9.149,-1.054,-11.73,0.862,9.772,1.389,-11.73,0.719,9.635,-1.438,52.786,11.73,-11.73
0.56,-0.766,8.814,-0.958,-5.865,0.91,9.532,1.341,-5.865,0.719,9.347,-1.294,58.651,17.595,-5.865
0.5650000000000001,-0.91,8.766,-0.91,-5.865,0.91,9.388,1.341,-5.865,0.719,9.347,-1.294,64.516,11.73,-5.865
0.5700000000000001,-0.862,8.814,-1.054,-5.865,0.814,9.245,1.437,-5.865,0.719,9.347,-1.582,64.516,11.73,-5.865
0.5750000000000001,-0.719,9.053,-1.389,-5.865,0.719,9.101,1.868,-5.865,0.575,9.347,-2.013,64.516,11.73,-5.865
0.58,-0.671,9.436,-1.772,-0.0,0.814,8.957,2.203,-5.865,0.575,9.491,-2.301,64.516,11.73,0.0
0.585,-0.766,9.772,-1.964,-0.0,0.623,8.814,2.443,0.0,0.575,9.635,-2.588,64.516,11.73,-5.865
0.59,-0.671,9.867,-2.156,-0.0,0.527,8.862,2.587,0.0,0.431,9.635,-2.732,52.786,11.73,-5.865
0.595,-0.671,9.867,-2.251,-5.865,0.527,9.053,2.682,-5.865,0.431,9.778,-2.732,46.921,11.73,-5.865
0.6,-0.766,9.915,-2.251,-5.865,0.527,9.197,2.682,-5.865,0.431,9.922,-2.732,41.056,11.73,-5.865
0.605,-0.671,9.867,-2.108,-5.865,0.479,9.341,2.539,-5.865,0.431,9.922,-2.588,35.191,11.73,-5.865
0.61,-0.766,9.197,-1.964,-11.73,0.575,9.197,2.299,-5.865,0.575,9.347,-2.301,29.326,11.73,-11.73
0.615,-0.719,8.526,-1.772,-11.73,0.719,8.814,2.203,-11.73,0.575,8.772,-2.157,29.326,17.595,-11.73
0.62,-0.671,8.526,-1.724,-11.73,0.766,8.67,2.156,-11.73,0.575,8.916,-2.157,29.326,11.73,-11.73
0.625,-0.814,8.814,-2.012,-11.73,0.719,8.957,2.395,-11.73,0.719,9.203,-2.445,29.326,11.73,-11.73
0.63,-1.006,9.053,-2.299,-5.865,0.671,9.388,2.635,-5.865,0.863,9.635,-2.732,29.326,11.73,-5.865
0.635,-1.006,9.341,-2.299,-5.865,0.766,9.772,2.682,0.0,0.863,9.922,-2.732,29.326,17.595,-5.865
0.64,-0.91,9.676,-2.156,-5.865,0.814,10.011,2.539,0.0,0.719,10.066,-2.445,29.326,17.595,-5.865
0.645,-0.862,9.867,-2.012,-5.865,0.862,10.203,2.395,-5.865,0.719,10.354,-2.445,29.326,17.595,-5.865
0.65,-0.814,9.915,-1.964,-5.865,0.91,10.203,2.347,-5.865,0.719,10.354,-2.301,35.191,17.595,-5.865
0.655,-0.862,9.867,-1.964,-5.865,0.91,10.155,2.347,-5.865,0.719,10.21,-2.445,35.191,17.595,-5.865
0.66,-0.814,9.915,-1.964,-5.865,0.766,10.107,2.347,-5.865,0.575,10.21,-2.301,35.191,17.595,-5.865
0.665,-0.671,9.915,-1.916,-5.865,0.575,10.059,2.299,-5.865,0.431,10.21,-2.301,35.191,17.595,-5.865
0.67,-0.623,9.915,-2.012,-5.865,0.479,9.963,2.395,-5.865,0.431,10.21,-2.445,35.191,17.595,-11.73
0.675,-0.623,9.772,-2.108,-11.73,0.479,9.867,2.539,-11.73,0.431,9.922,-2.588,35.191,17.595,-11.73
0.68,-0.623,9.58,-2.156,-11.73,0.431,9.676,2.539,-11.73,0.431,9.778,-2.588,35.191,17.595,-11.73
0.685,-0.575,9.484,-2.156,-11.73,0.335,9.484,2.587,-11.73,0.288,9.635,-2.588,35.191,17.595,-17.595
0.6900000000000001,-0.575,9.293,-2.108,-17.595,0.383,9.293,2.491,-17.595,0.431,9.491,-2.588,35.191,17.595,-17.595
0.6950000000000001,-0.623,9.005,-2.012,-17.595,0.431,9.197,2.395,-11.73,0.431,9.347,-2.445,35.191,17.595,-17.595
0.7000000000000001,-0.479,8.862,-1.868,-17.595,0.383,9.101,2.251,-17.595,0.288,9.203,-2.301,35.191,17.595,-11.73
0.705,-0.431,8.766,-1.82,-11.73,0.335,8.909,2.203,-11.73,0.288,9.059,-2.301,35.191,23.46,-11.73
0.71,-0.335,8.814,-1.772,-11.73,0.192,8.67,2.203,-11.73,0.144,8.916,-2.157,35.191,23.46,-11.73
0.715,-0.335,8.766,-1.82,-11.73,0.144,8.574,2.251,-5.865,0.144,8.916,-2.301,29.326,23.46,-5.865
0.72,-0.335,8.718,-1.82,-5.865,0.048,8.43,2.251,-5.865,0.0,8.772,-2.301,29.326,23.46,-5.865
0.725,-0.335,8.67,-1.772,-5.865,0.048,8.143,2.203,0.0,0.0,8.628,-2.157,29.326,23.46,-5.865
0.73,-0.287,8.67,-1.629,-0.0,0.048,8.095,2.06,0.0,0.0,8.628,-2.013,23.46,23.46,0.0
0.735,-0.287,8.67,-1.581,-0.0,0.048,8.383,2.012,0.0,0.0,8.772,-2.013,17.595,29.326,0.0
0.74,-0.24,8.814,-1.677,-0.0,0.192,8.766,2.108,5.865,0.144,9.059,-2.157,5.865,29.326,0.0
0.745,-0.383,9.197,-1.868,5.865,0.383,9.341,2.299,5.865,0.288,9.635,-2.301,5.865,29.326,5.865
0.75,-0.527,9.724,-1.964,5.865,0.623,10.203,2.299,5.865,0.575,10.354,-2.301,5.865,29.326,5.865
0.755,-0.719,10.059,-1.724,5.865,0.862,10.586,2.108,5.865,0.575,10.641,-2.013,5.865,29.326,5.865
0.76,-0.623,10.155,-1.629,5.865,0.862,10.73,2.012,5.865,0.575,10.641,-2.013,17.595,23.46,5.865
0.765,-0.623,10.107,-1.629,5.865,0.814,10.634,2.06,5.865,0.575,10.497,-2.013,17.595,23.46,5.865
0.77,-0.623,10.011,-1.677,5.865,0.766,10.394,2.06,5.865,0.431,10.641,-2.013,23.46,23.46,5.865
0.775,-0.91,8.909,-1.581,-0.0,0.575,10.538,2.06,5.865,0.0,11.36,-2.013,23.46,17.595,5.865
0.78,-0.479,9.341,-1.581,-0.0,0.479,10.442,2.06,5.865,0.144,10.641,-2.013,17.595,11.73,5.865
0.785,-0.527,9.245,-1.82,-5.865,0.479,10.251,2.06,5.865,0.288,9.778,-2.445,5.865,5.865,5.865
0.79,0.048,10.73,-1.724,-5.865,0.479,9.005,2.491,5.865,0.288,9.635,-2.301,5.865,5.865,11.73
0.795,-0.383,10.251,-1.868,-17.595,0.527,9.484,2.395,11.73,0.431,10.066,-2.445,5.865,5.865,11.73
0.8,-0.287,10.203,-2.012,-17.595,0.479,9.676,2.299,11.73,0.288,9.778,-2.301,5.865,5.865,11.73
0.805,-0.24,10.107,-1.964,-17.595,0.335,9.867,2.251,11.73,0.288,10.21,-2.301,5.865,5.865,11.73
0.81,-0.383,10.107,-1.772,-11.73,0.335,10.059,2.251,11.73,0.288,10.497,-2.301,0.0,5.865,11.73
0.8150000000000001,-0.383,10.251,-1.772,-11.73,0.431,10.251,2.108,11.73,0.288,10.641,-2.157,0.0,5.865,11.73
0.8200000000000001,-0.192,10.346,-1.724,-11.73,0.527,10.251,2.108,11.73,0.575,10.354,-2.157,0.0,5.865,11.73
0.8250000000000001,-0.287,10.011,-1.724,-11.73,0.527,10.107,2.06,11.73,0.431,10.354,-2.157,0.0,5.865,11.73
0.8300000000000001,-0.192,9.82,-1.629,-11.73,0.575,9.867,2.012,11.73,0.431,10.066,-2.013,-5.865,5.865,11.73
0.835,-0.24,9.436,-1.437,-11.73,0.527,9.772,1.82,11.73,0.431,9.922,-1.869,-5.865,5.865,11.73
0.84,-0.287,9.245,-1.341,-17.595,0.431,9.676,1.772,11.73,0.288,9.922,-1.726,-5.865,5.865,5.865
0.845,-0.335,8.909,-1.485,-23.46,0.287,9.724,1.82,11.73,0.288,9.922,-1.869,-5.865,5.865,5.865
0.85,-0.671,8.67,-1.868,-29.326,0.24,9.867,1.82,11.73,-1.294,8.916,-1.726,-5.865,5.865,11.73
0.855,-0.048,8.239,-1.485,-35.191,-0.24,9.82,2.203,11.73,-0.719,10.21,-2.157,-5.865,0.0,11.73
0.86,-0.192,8.622,-1.629,-29.326,-0.287,10.155,2.73,5.865,-0.144,10.641,-2.588,-5.865,0.0,5.865
0.865,-0.814,8.287,-1.724,-23.46,0.0,11.113,2.874,5.865,-0.288,11.504,-2.732,-17.595,0.0,5.865
0.87,0.287,10.634,-2.251,-23.46,0.335,10.203,2.826,11.73,0.431,9.491,-2.732,-17.595,0.0,11.73
0.875,0.958,11.592,-2.299,-23.46,1.006,9.197,2.682,11.73,1.15,8.197,-2.588,-17.595,5.865,11.73
0.88,0.144,10.634,-2.06,-17.595,0.814,9.436,2.395,5.865,0.719,9.347,-2.301,-5.865,5.865,5.865
0.885,0.192,9.963,-1.629,-5.865,0.431,9.772,2.012,5.865,0.288,9.778,-2.013,5.865,11.73,5.865
0.89,0.144,9.676,-1.485,-5.865,0.479,10.011,1.964,5.865,0.144,10.354,-2.013,5.865,11.73,5.865
0.895,0.24,10.299,-1.772,-0.0,0.575,9.915,2.156,5.865,0.431,10.21,-2.157,5.865,5.865,5.865
0.9,0.24,10.442,-1.964,-0.0,0.479,9.867,2.395,5.865,0.288,10.354,-2.445,5.865,5.865,5.865
0.905,0.24,10.394,-2.012,-0.0,0.287,9.915,2.395,5.865,0.144,10.354,-2.445,0.0,5.865,0.0
0.91,0.192,10.059,-2.012,-0.0,0.192,9.915,2.395,0.0,0.0,10.354,-2.445,0.0,5.865,0.0
0.915,0.192,9.724,-2.012,-5.865,0.144,9.82,2.395,0.0,0.0,10.21,-2.445,-5.865,5.865,0.0
0.92,0.383,9.915,-2.06,-5.865,0.192,9.676,2.443,0.0,0.0,9.778,-2.445,-5.865,5.865,0.0
0.925,0.287,9.676,-2.06,-11.73,0.144,9.532,2.491,0.0,0.144,9.635,-2.445,-5.865,5.865,-5.865
0.93,0.192,9.341,-2.06,-11.73,0.096,9.532,2.443,0.0,0.0,9.778,-2.445,-5.865,5.865,-5.865
0.935,0.383,9.532,-2.06,-11.73,0.0,9.484,2.491,0.0,0.0,9.635,-2.445,-5.865,5.865,-5.865
0.9400000000000001,0.383,9.436,-2.06,-5.865,0.048,9.532,2.491,0.0,0.0,9.491,-2.588,-5.865,11.73,0.0
0.9450000000000001,0.287,9.436,-2.06,-5.865,0.096,9.628,2.491,0.0,0.0,9.635,-2.445,-5.865,11.73,0.0
0.9500000000000001,0.24,9.293,-2.06,-0.0,0.192,9.676,2.491,5.865,0.144,9.635,-2.445,-5.865,11.73,0.0
0.9550000000000001,0.287,9.388,-2.012,-0.0,0.144,9.532,2.395,5.865,0.0,9.491,-2.445,-5.865,11.73,5.865
0.96,0.335,9.436,-1.964,5.865,0.144,9.58,2.443,11.73,0.0,9.635,-2.445,0.0,11.73,5.865
0.965,0.335,9.484,-2.012,5.865,0.144,9.82,2.443,11.73,0.0,9.778,-2.445,0.0,11.73,5.865
0.97,0.335,9.676,-1.964,11.73,0.24,9.82,2.395,11.73,0.0,9.922,-2.301,5.865,11.73,11.73
0.975,0.335,9.724,-1.916,5.865,0.287,9.772,2.347,11.73,0.0,9.922,-2.445,5.865,11.73,5.865
0.98,0.335,9.724,-1.964,5.865,0.192,9.676,2.347,11.73,0.0,9.922,-2.445,5.865,11.73,5.865
0.985,0.335,9.676,-1.964,5.865,0.096,9.58,2.395,5.865,0.0,9.778,-2.445,5.865,11.73,5.865
0.99,0.383,9.628,-2.06,5.865,0.096,9.436,2.443,5.865,0.0,9.778,-2.588,0.0,11.73,5.865
0.995,0.383,9.532,-2.156,5.865,0.096,9.341,2.539,5.865,0.0,9.635,-2.588,0.0,11.73,5.865
1.0,0.335,9.436,-2.251,5.865,0.048,9.388,2.635,5.865,0.0,9.635,-2.732,-5.865,11.73,0.0
1.0050000000000001,0.335,9.388,-2.299,-0.0,-0.096,9.341,2.682,0.0,-0.144,9.635,-2.732,-5.865,11.73,0.0
1.01,0.335,9.293,-2.299,-0.0,-0.287,9.293,2.682,0.0,-0.288,9.491,-2.732,-5.865,11.73,0.0
1.0150000000000001,0.383,9.197,-2.299,-5.865,-0.287,9.245,2.73,0.0,-0.288,9.491,-2.732,-5.865,17.595,-5.865
1.02,0.383,9.149,-2.347,-5.865,-0.144,9.245,2.778,-5.865,-0.144,9.347,-2.876,-5.865,17.595,-5.865
1.025,0.287,9.101,-2.395,-5.865,0.0,9.293,2.778,-5.865,0.0,9.347,-2.732,-5.865,23.46,-5.865
1.03,0.287,9.005,-2.299,-5.865,0.048,9.245,2.73,0.0,0.0,9.347,-2.732,-5.865,23.46,0.0
1.035,0.335,9.005,-2.203,-0.0,0.096,9.197,2.635,0.0,0.0,9.347,-2.588,-5.865,23.46,0.0
1.04,0.192,8.909,-2.06,-0.0,0.096,9.149,2.539,0.0,0.0,9.347,-2.445,-5.865,23.46,0.0
1.045,0.335,9.101,-2.06,5.865,-1.006,7.664,2.539,5.865,1.582,11.504,-2.301,-5.865,23.46,5.865
1.05,-0.527,9.82,-2.251,11.73,-0.383,8.67,2.347,-5.865,0.575,10.066,-2.301,5.865,11.73,11.73
1.055,0.096,9.532,-1.916,11.73,-0.287,8.047,2.299,-5.865,0.431,9.778,-2.157,5.865,5.865,11.73
1.06,0.335,9.293,-1.916,5.865,-0.096,8.43,2.156,5.865,0.288,9.635,-2.301,5.865,5.865,5.865
1.065,0.096,9.532,-1.629,5.865,-0.287,6.85,2.251,11.73,0.575,10.21,-2.157,5.865,0.0,5.865
1.07,0.048,9.82,-1.724,-0.0,0.431,7.089,2.251,17.595,0.0,10.497,-2.301,17.595,-5.865,5.865
1.075,0.335,9.867,-1.82,-0.0,1.054,10.969,1.437,17.595,-0.144,8.772,-2.301,23.46,-5.865,5.865
1.08,0.287,9.724,-1.677,5.865,0.814,9.676,2.203,23.46,0.144,10.497,-2.013,17.595,0.0,5.865
1.085,0.096,10.107,-1.581,5.865,0.766,11.209,2.443,17.595,0.288,10.785,-2.301,17.595,0.0,11.73
1.09,-0.048,10.394,-1.82,5.865,0.719,10.442,2.012,11.73,0.144,10.21,-2.157,17.595,0.0,5.865
1.095,0.192,10.155,-1.677,5.865,0.91,10.49,2.539,11.73,0.431,10.641,-2.301,5.865,0.0,11.73
1.1,0.144,9.963,-2.156,5.865,1.389,11.257,2.395,5.865,0.431,9.922,-2.301,5.865,0.0,11.73
1.105,-0.144,9.484,-1.82,5.865,1.102,11.113,2.491,0.0,0.288,9.922,-2.445,5.865,0.0,11.73
1.11,0.287,9.772,-2.443,5.865,1.341,10.49,2.395,0.0,0.575,9.635,-2.876,5.865,0.0,11.73
1.115,-0.048,9.436,-2.012,5.865,0.814,10.73,2.73,0.0,0.431,9.778,-2.588,0.0,-5.865,11.73
1.12,0.144,9.484,-2.299,5.865,0.671,10.921,2.826,0.0,0.288,9.778,-2.732,0.0,-5.865,5.865
1.125,0.24,9.532,-2.203,5.865,0.623,11.161,2.73,0.0,0.0,10.066,-2.588,0.0,0.0,5.865
1.1300000000000001,0.192,9.628,-2.012,5.865,0.527,11.448,2.443,0.0,0.0,10.066,-2.301,0.0,0.0,5.865
1.135,0.048,9.867,-1.916,-0.0,0.527,11.113,2.347,0.0,0.431,10.21,-2.301,0.0,0.0,5.865
1.1400000000000001,-0.144,10.011,-1.916,-0.0,0.766,10.682,2.395,0.0,0.575,10.21,-2.301,0.0,0.0,5.865
1.145,-0.096,9.915,-1.868,-0.0,1.006,10.538,2.347,5.865,0.719,10.354,-2.301,5.865,0.0,5.865
1.1500000000000001,-0.144,10.155,-1.677,-0.0,0.958,10.586,2.108,5.865,0.719,10.497,-2.013,5.865,0.0,5.865
1.155,-0.048,10.299,-1.581,5.865,0.958,10.682,2.06,5.865,0.719,10.641,-2.013,5.865,0.0,5.865
1.16,-0.048,10.299,-1.581,5.865,0.91,10.682,2.108,5.865,0.719,10.785,-2.013,5.865,-5.865,5.865
1.165,-0.144,10.346,-1.629,5.865,0.862,10.682,2.06,5.865,0.719,10.785,-2.013,5.865,-5.865,5.865
1.17,-0.192,10.394,-1.581,5.865,0.814,10.538,2.06,5.865,0.719,10.785,-2.013,5.865,-11.73,5.865
1.175,-0.192,10.251,-1.485,5.865,0.623,10.251,2.012,5.865,0.575,10.497,-1.869,5.865,-11.73,5.865
1.18,0.0,10.203,-1.581,-0.0,0.527,10.011,2.06,5.865,0.575,10.21,-2.013,5.865,-11.73,0.0
1.185,-0.096,9.963,-1.629,-0.0,0.479,9.82,2.108,0.0,0.431,10.066,-2.157,5.865,-11.73,0.0
1.19,-0.096,9.772,-1.677,-0.0,0.431,9.724,2.203,0.0,0.431,9.922,-2.157,5.865,-11.73,0.0
1.195,-0.096,9.676,-1.724,-0.0,0.383,9.676,2.251,0.0,0.431,9.922,-2.157,5.865,-11.73,0.0
1.2,-0.096,9.58,-1.82,-0.0,0.383,9.676,2.251,0.0,0.431,9.778,-2.157,5.865,-5.865,0.0
1.205,-0.096,9.58,-1.868,-0.0,0.383,9.58,2.347,0.0,0.431,9.778,-2.301,5.865,-5.865,0.0
1.21,-0.048,9.58,-1.82,-5.865,0.383,9.484,2.299,0.0,0.431,9.778,-2.301,5.865,-5.865,0.0
1.215,0.0,9.484,-1.82,-0.0,0.335,9.341,2.347,0.0,0.431,9.635,-2.301,5.865,-5.865,0.0
1.22,0.0,9.341,-1.724,-0.0,0.24,9.197,2.491,0.0,0.288,9.347,-2.157,5.865,-5.865,0.0
1.225,-0.048,9.197,-1.916,-0.0,0.192,9.053,2.299,0.0,0.288,9.347,-2.301,5.865,0.0,0.0
1.23,0.096,9.101,-1.868,-0.0,0.048,8.957,2.395,0.0,0.144,9.203,-2.301,5.865,0.0,0.0
1.235,0.096,9.101,-1.964,-0.0,0.096,8.909,2.491,0.0,0.288,9.203,-2.445,5.865,0.0,0.0
1.24,0.0,9.101,-2.108,-0.0,0.24,9.053,2.587,0.0,0.431,9.347,-2.588,0.0,5.865,5.865
1.245,-0.287,9.293,-2.156,-0.0,0.527,9.388,2.682,5.865,0.575,9.635,-2.588,0.0,5.865,0.0
1.25,-0.144,9.532,-2.108,5.865,0.671,9.676,2.539,5.865,0.575,9.922,-2.445,0.0,5.865,5.865
1.2550000000000001,-0.096,9.724,-2.012,5.865,0.766,10.011,2.491,5.865,0.575,10.066,-2.445,0.0,5.865,5.865
1.26,-0.192,9.963,-2.012,5.865,0.958,10.203,2.539,5.865,0.863,10.354,-2.445,0.0,5.865,5.865
1.2650000000000001,-0.144,10.155,-2.012,5.865,0.91,10.442,2.491,5.865,0.719,10.497,-2.445,5.865,0.0,5.865
1.27,0.0,10.251,-2.06,5.865,0.814,10.634,2.491,11.73,0.575,10.641,-2.588,5.865,0.0,5.865
1.2750000000000001,0.048,10.346,-2.299,5.865,0.862,10.586,2.778,11.73,0.719,10.641,-2.732,5.865,0.0,5.865
1.28,-0.144,10.155,-2.108,5.865,0.623,10.538,2.587,5.865,0.575,10.497,-2.588,5.865,-5.865,5.865
1.285,-0.048,9.867,-2.012,11.73,0.623,10.394,2.491,5.865,0.575,10.21,-2.445,5.865,-5.865,5.865
1.29,-0.048,9.676,-2.108,11.73,0.623,10.155,2.587,11.73,0.575,10.066,-2.588,5.865,-5.865,11.73
1.295,-0.192,9.58,-2.156,5.865,0.623,10.011,2.635,11.73,0.575,9.922,-2.588,17.595,-5.865,5.865
1.3,-0.192,9.436,-2.203,11.73,0.719,9.867,2.682,11.73,0.575,9.778,-2.732,17.595,-5.865,5.865
1.305,-0.192,9.293,-2.347,5.865,0.575,9.867,2.778,11.73,0.575,9.778,-2.732,23.46,-5.865,11.73
1.31,-0.24,9.245,-2.443,11.73,0.479,9.915,2.874,11.73,0.575,9.778,-2.876,23.46,-5.865,11.73
1.315,-0.431,9.053,-2.73,11.73,0.479,10.251,3.161,11.73,0.719,9.778,-3.307,29.326,-5.865,11.73
1.32,-1.341,8.383,-4.072,5.865,0.719,10.634,4.167,11.73,1.007,9.635,-3.883,41.056,0.0,5.865
1.325,0.383,9.245,-2.682,-0.0,-0.096,9.915,3.161,0.0,-0.144,9.778,-2.876,52.786,0.0,0.0
1.33,0.287,9.245,-2.299,-0.0,0.096,9.772,2.778,5.865,0.288,9.635,-2.732,58.651,5.865,0.0
1.335,-0.335,8.814,-2.299,5.865,0.575,9.772,2.778,5.865,0.719,9.491,-2.732,64.516,5.865,5.865
1.34,-0.431,8.957,-2.251,5.865,0.766,9.772,2.73,5.865,0.863,9.635,-2.588,70.381,5.865,5.865
1.345,-0.24,9.532,-1.964,5.865,0.671,9.724,2.443,5.865,0.575,9.922,-2.301,76.246,5.865,5.865
1.35,-0.431,10.155,-1.82,5.865,0.575,9.676,2.491,5.865,1.438,10.354,-3.02,76.246,11.73,5.865
1.355,-0.096,10.394,-2.778,11.73,1.054,9.82,3.066,11.73,0.575,10.354,-3.02,70.381,11.73,11.73
1.36,-0.048,10.299,-2.06,17.595,0.335,10.203,2.491,17.595,0.431,10.497,-2.301,64.516,11.73,17.595
1.365,0.048,10.346,-1.677,17.595,0.479,10.251,2.108,17.595,0.575,10.497,-2.013,64.516,11.73,17.595
1.37,-0.144,10.346,-1.437,11.73,0.575,10.251,1.964,11.73,0.575,10.497,-1.869,58.651,11.73,11.73
1.375,-0.144,10.394,-1.437,5.865,0.671,10.203,1.964,5.865,0.719,10.497,-1.869,58.651,11.73,5.865
1.3800000000000001,-0.24,11.448,-2.682,-0.0,2.012,8.909,3.736,0.0,1.294,10.641,-3.451,58.651,11.73,0.0
1.385,-0.575,11.017,-2.97,5.865,1.054,9.005,3.497,5.865,0.863,10.354,-3.307,46.921,5.865,11.73
1.3900000000000001,-0.096,10.538,-2.539,17.595,0.431,9.58,3.018,17.595,0.288,10.354,-2.876,29.326,5.865,17.595
1.395,0.144,10.203,-2.156,23.46,0.048,9.867,2.587,23.46,0.144,10.354,-2.445,23.46,5.865,23.46
1.4000000000000001,0.048,10.011,-1.868,23.46,0.144,9.867,2.347,17.595,0.288,10.21,-2.301,5.865,5.865,23.46
1.405,-0.144,9.772,-1.868,17.595,0.192,10.059,2.299,17.595,0.431,10.066,-2.157,5.865,11.73,17.595
1.41,-0.192,9.628,-1.82,17.595,0.431,10.155,2.251,17.595,0.575,10.066,-2.157,17.595,17.595,11.73
1.415,-0.192,9.676,-1.724,11.73,0.623,10.011,2.251,17.595,0.719,10.066,-2.157,17.595,17.595,11.73
1.42,-0.287,9.676,-1.724,11.73,0.91,10.107,2.251,11.73,0.863,10.066,-2.157,23.46,17.595,11.73
1.425,-0.335,9.676,-1.724,11.73,0.958,10.107,2.108,11.73,0.719,10.066,-2.013,23.46,17.595,11.73
1.43,-0.24,9.58,-1.629,11.73,0.814,10.299,2.108,17.595,0.719,10.066,-2.013,29.326,17.595,17.595
1.435,-0.24,9.58,-1.581,17.595,0.671,10.299,1.916,17.595,0.719,10.21,-2.013,29.326,17.595,17.595
1.44,-0.144,9.867,-1.437,17.595,0.766,10.394,1.916,23.46,0.719,10.354,-1.869,35.191,17.595,17.595
1.445,-0.287,9.963,-1.389,17.595,0.958,10.299,1.916,17.595,0.863,10.354,-1.869,41.056,11.73,17.595
1.45,-0.335,9.772,-1.293,17.595,0.91,10.394,1.724,17.595,0.863,10.354,-1.582,41.056,11.73,17.595
1.455,-0.479,9.82,-0.383,17.595,1.677,11.448,0.766,17.595,1.438,11.073,-0.431,46.921,11.73,17.595
1.46,-1.198,10.203,1.629,17.595,1.724,13.795,-1.581,17.595,1.726,11.792,1.869,52.786,5.865,17.595
1.465,-0.623,10.251,2.012,23.46,1.772,11.257,-1.293,23.46,1.294,10.929,1.15,76.246,5.865,23.46
1.47,-0.287,10.682,0.287,23.46,1.82,9.867,0.144,23.46,1.438,10.497,-0.288,87.977,0.0,23.46
1.475,-0.719,10.825,0.24,17.595,1.485,9.772,0.287,17.595,1.294,10.497,0.144,82.111,-5.865,11.73
1.48,-0.766,10.442,1.245,11.73,1.82,8.622,-0.814,11.73,1.582,9.347,1.15,70.381,-11.73,11.73
1.485,-0.671,8.766,2.395,11.73,2.06,7.76,-1.677,11.73,1.294,8.053,2.157,58.651,-17.595,11.73
1.49,-0.671,8.047,2.203,17.595,1.437,10.011,-1.389,11.73,1.15,7.909,1.438,46.921,-23.46,17.595
1.495,-1.198,8.478,1.677,29.326,1.629,9.82,-1.198,11.73,1.726,8.484,1.438,35.191,-23.46,29.326
1.5,-1.437,9.101,1.82,29.326,2.443,9.388,-1.198,5.865,1.869,9.059,1.438,29.326,-23.46,29.326
1.5050000000000001,-0.766,10.107,1.341,23.46,1.198,8.814,-0.814,-5.865,1.294,10.785,0.863,23.46,-29.326,23.46
1.51,-0.335,11.065,1.006,11.73,0.814,8.718,-0.479,-11.73,0.863,11.073,0.575,17.595,-29.326,5.865
1.5150000000000001,-0.479,10.969,0.623,-5.865,0.383,9.245,-0.335,-23.46,0.863,11.36,0.288,5.865,-29.326,-11.73
1.52,-0.719,10.203,0.479,-23.46,0.575,9.915,-0.048,-29.326,1.007,10.785,-0.0,17.595,-29.326,-23.46
1.5250000000000001,-0.91,9.82,0.048,-29.326,1.341,9.915,0.527,-29.326,1.438,10.066,-0.575,23.46,-23.46,-29.326
1.53,-0.862,9.772,-0.527,-29.326,1.485,9.293,1.054,-29.326,1.438,9.922,-1.007,23.46,-23.46,-23.46
1.5350000000000001,-0.671,9.82,-0.958,-23.46,1.15,9.532,1.437,-23.46,1.15,10.066,-1.438,29.326,-23.46,-23.46
1.54,-0.527,9.772,-1.054,-23.46,0.719,10.059,1.485,-17.595,0.863,10.21,-1.438,23.46,-29.326,-23.46
1.545,-0.383,9.772,-1.054,-17.595,0.575,10.394,1.485,-17.595,0.719,10.354,-1.438,29.326,-29.326,-11.73
1.55,-0.287,9.772,-1.006,-11.73,0.575,10.394,1.437,-5.865,0.719,10.21,-1.438,29.326,-23.46,-5.865
1.555,-0.383,9.628,-0.958,-5.865,0.671,10.203,1.389,0.0,0.863,10.066,-1.294,35.191,-23.46,-5.865
1.56,-0.479,9.484,-0.671,-0.0,0.91,10.011,1.15,0.0,1.007,9.922,-1.007,41.056,-23.46,0.0
1.565,-0.527,9.676,-0.383,-0.0,1.054,10.251,0.862,0.0,1.007,10.066,-0.719,41.056,-23.46,0.0
1.57,-0.335,10.011,-0.192,-0.0,1.15,11.017,0.766,5.865,0.719,10.21,-0.575,41.056,-23.46,0.0
1.575,-0.335,10.49,-0.144,-0.0,1.006,10.921,0.671,5.865,0.863,10.641,-0.575,41.056,-23.46,0.0
1.58,-0.431,10.873,-0.144,-5.865,0.766,10.682,0.671,5.865,1.007,10.785,-0.575,35.191,-23.46,-5.865
1.585,-0.431,10.73,-0.24,-11.73,0.814,10.73,0.719,5.865,0.863,10.641,-0.575,29.326,-23.46,-11.73
1.59,-0.287,10.49,-0.287,-11.73,0.671,10.394,0.814,0.0,0.719,10.641,-0.719,29.326,-23.46,-11.73
1.595,-0.335,10.442,-0.335,-17.595,0.719,9.867,0.766,-5.865,0.863,10.785,-0.719,29.326,-23.46,-17.595
1.6,-0.335,10.346,-0.383,-17.595,0.671,10.059,0.862,-5.865,0.863,10.641,-0.863,23.46,-29.326,-17.595
1.605,-0.144,10.73,-0.623,-17.595,0.623,10.107,1.054,-11.73,0.863,10.066,-1.007,23.46,-23.46,-23.46
1.61,0.048,11.113,-0.719,-17.595,0.383,9.58,1.15,-11.73,0.575,10.641,-1.15,29.326,-23.46,-23.46
1.615,0.0,10.586,-0.671,-23.46,0.527,10.107,1.15,-17.595,0.431,10.929,-1.15,29.326,-23.46,-23.46
1.62,-0.048,10.394,-0.719,-23.46,0.527,10.203,1.15,-17.595,0.431,10.641,-1.15,29.326,-23.46,-23.46
1.625,-0.048,10.299,-0.623,-17.595,0.623,10.011,1.006,-17.595,0.575,10.641,-1.007,23.46,-23.46,-23.46
1.6300000000000001,-0.192,10.251,-0.383,-17.595,0.766,9.963,0.862,-17.595,0.719,10.497,-0.719,23.46,-23.46,-23.46
1.635,-0.24,9.724,-0.24,-17.595,0.862,10.011,0.719,-11.73,0.719,10.354,-0.719,23.46,-23.46,-17.595
1.6400000000000001,-0.287,9.724,-0.096,-11.73,0.814,9.867,0.575,-11.73,0.719,10.21,-0.431,17.595,-29.326,-17.595
1.645,-0.24,9.82,0.048,-11.73,0.671,9.58,0.383,-11.73,0.719,9.922,-0.288,17.595,-29.326,-11.73
1.6500000000000001,-0.287,9.532,0.048,-11.73,0.719,9.628,0.431,-5.865,0.719,10.066,-0.431,17.595,-29.326,-11.73
1.655,-0.24,9.628,-0.144,-5.865,0.766,9.532,0.623,-5.865,0.719,9.922,-0.575,17.595,-29.326,-11.73
1.6600000000000001,-0.287,9.772,-0.192,-5.865,0.91,9.58,0.623,-5.865,0.863,10.066,-0.575,5.865,-29.326,-5.865
1.665,-0.335,9.915,-0.096,-5.865,0.91,9.58,0.575,0.0,0.863,10.066,-0.431,5.865,-29.326,0.0
1.67,-0.287,9.867,0.0,-0.0,0.91,9.58,0.527,0.0,0.719,9.922,-0.431,5.865,-29.326,0.0
1.675,-0.335,9.82,0.048,-0.0,0.91,9.628,0.431,5.865,0.863,9.922,-0.431,5.865,-29.326,0.0
1.68,-0.383,9.772,0.048,5.865,0.862,9.724,0.383,5.865,0.863,10.066,-0.288,5.865,-35.191,5.865
1.685,-0.383,9.82,0.192,5.865,0.862,9.82,0.287,5.865,0.863,10.066,-0.144,5.865,-35.191,5.865
1.69,-0.383,9.867,0.383,5.865,0.862,9.867,0.144,11.73,0.863,10.066,-0.0,0.0,-35.191,5.865
1.695,-0.383,9.772,0.431,5.865,0.862,9.82,0.048,5.865,0.863,9.922,0.144,0.0,-35.191,5.865
1.7,-0.431,9.724,0.479,5.865,0.91,9.724,0.0,5.865,0.863,9.922,0.144,0.0,-35.191,5.865
1.705,-0.383,9.772,0.431,5.865,0.91,9.724,0.048,5.865,0.863,9.922,-0.0,0.0,-35.191,5.865
1.71,-0.383,9.82,0.383,5.865,0.862,9.867,0.096,5.865,0.863,10.066,-0.0,0.0,-35.191,5.865
1.715,-0.335,9.915,0.335,5.865,0.766,9.963,0.144,5.865,0.719,10.21,-0.144,0.0,-35.191,5.865
1.72,-0.287,10.011,0.24,5.865,0.671,10.107,0.192,5.865,0.719,10.354,-0.144,0.0,-35.191,5.865
1.725,-0.24,10.155,0.144,5.865,0.623,10.251,0.335,5.865,0.575,10.497,-0.288,0.0,-35.191,5.865
1.73,-0.24,10.203,0.048,5.865,0.623,10.394,0.383,5.865,0.575,10.497,-0.288,0.0,-35.191,5.865
1.735,-0.192,10.299,0.192,5.865,0.479,10.442,0.24,5.865,0.431,10.641,-0.144,0.0,-35.191,5.865
1.74,-0.096,10.251,0.335,5.865,0.431,10.49,0.144,5.865,0.431,10.497,-0.144,0.0,-29.326,5.865
1.745,-0.144,10.203,0.479,5.865,0.479,10.49,-0.048,5.865,0.575,10.641,0.144,0.0,-29.326,5.865
1.75,-0.144,10.299,0.719,5.865,0.575,10.538,-0.287,5.865,0.575,10.641,0.431,5.865,-29.326,5.865
1.7550000000000001,-0.096,10.394,0.814,5.865,0.623,10.682,-0.383,5.865,0.575,10.785,0.431,5.865,-29.326,5.865
1.76,-0.144,10.442,1.006,5.865,0.766,10.778,-0.527,11.73,0.863,10.785,0.575,5.865,-29.326,5.865
1.7650000000000001,-0.24,10.538,1.102,5.865,0.814,10.73,-0.671,11.73,0.719,10.929,0.719,5.865,-29.326,5.865
1.77,-0.096,10.969,1.102,11.73,0.671,10.873,-0.671,11.73,0.575,11.216,0.719,5.865,-29.326,5.865
1.7750000000000001,-0.048,11.065,1.198,5.865,0.671,10.825,-0.766,5.865,0.575,11.073,0.863,5.865,-29.326,5.865
1.78,-0.048,11.113,1.245,5.865,0.719,10.538,-0.814,5.865,0.575,11.073,0.863,5.865,-29.326,5.865
1.7850000000000001,0.0,11.209,1.724,5.865,0.766,10.299,-1.15,5.865,0.575,10.929,1.15,0.0,-29.326,5.865
1.79,0.0,11.017,1.485,5.865,0.814,10.299,-1.006,5.865,0.575,10.929,1.15,-5.865,-29.326,5.865
1.795,-0.192,10.825,1.629,5.865,0.766,10.059,-1.15,5.865,0.719,10.641,1.438,-11.73,-35.191,5.865
1.8,-0.479,11.688,3.305,5.865,1.964,9.245,-2.97,5.865,1.438,10.641,2.876,-17.595,-35.191,5.865
1.805,-0.527,10.873,2.73,-0.0,1.724,9.963,-2.156,0.0,1.294,10.641,2.301,-29.326,-41.056,0.0
1.81,-0.479,10.825,2.826,-5.865,1.15,10.251,-2.395,-5.865,1.007,10.785,2.588,-41.056,-46.921,-11.73
1.815,-0.431,11.065,3.066,-11.73,1.198,10.107,-2.539,-11.73,1.007,10.785,2.732,-41.056,-46.921,-11.73
1.82,-0.671,10.682,3.305,-17.595,1.724,9.963,-2.778,-17.595,1.438,10.497,3.02,-52.786,-52.786,-17.595
1.825,-1.15,10.299,4.024,-17.595,3.018,10.011,-3.64,-17.595,2.445,10.354,4.026,-58.651,-52.786,-23.46
1.83,-0.958,9.963,5.03,-23.46,2.73,9.388,-4.455,-23.46,1.869,9.922,4.889,-64.516,-58.651,-23.46
1.835,-0.862,9.676,5.748,-23.46,2.539,9.436,-5.269,-29.326,1.869,9.778,5.608,-64.516,-70.381,-23.46
1.84,-1.054,9.436,6.371,-35.191,2.826,9.532,-5.796,-35.191,2.013,9.635,6.04,-64.516,-82.111,-35.191
1.845,-1.054,9.388,6.706,-35.191,2.97,9.532,-6.227,-41.056,2.157,9.778,6.471,-64.516,-87.977,-41.056
1.85,-1.245,9.388,6.993,-41.056,3.161,9.436,-6.323,-41.056,2.301,9.635,6.615,-64.516,-99.707,-41.056
1.855,-0.958,9.484,6.946,-41.056,3.066,9.101,-6.323,-41.056,2.157,9.491,6.471,-64.516,-111.437,-41.056
1.86,-1.916,8.718,8.43,-41.056,3.88,9.82,-7.233,-41.056,2.876,9.203,7.909,-64.516,-123.167,-41.056
1.865,-1.245,8.718,7.999,-35.191,3.64,9.197,-7.425,-35.191,2.445,9.203,7.621,-64.516,-134.897,-35.191
1.87,-1.485,9.293,7.808,-35.191,3.353,9.149,-6.946,-35.191,2.301,9.491,7.19,-58.651,-146.628,-35.191
1.875,-1.245,9.532,7.185,-41.056,3.114,8.909,-6.275,-41.056,2.301,9.491,6.471,-58.651,-158.358,-41.056
1.8800000000000001,-1.629,9.82,6.371,-41.056,3.066,8.909,-5.413,-41.056,2.301,9.635,5.608,-58.651,-170.088,-46.921
1.885,-1.389,9.867,5.7,-46.921,3.018,8.766,-4.742,-46.921,2.301,9.635,5.033,-64.516,-175.953,-46.921
1.8900000000000001,-1.533,9.915,5.173,-46.921,3.066,8.766,-4.119,-52.786,2.301,9.635,4.458,-70.381,-187.683,-52.786
1.895,-1.341,9.772,4.646,-46.921,2.874,8.718,-3.545,-52.786,2.157,9.491,3.883,-76.246,-199.413,-52.786
1.9000000000000001,-1.437,9.532,4.024,-52.786,2.826,8.862,-2.922,-52.786,2.301,9.491,3.307,-87.977,-205.279,-52.786
1.905,-1.485,9.341,3.401,-52.786,2.682,9.149,-2.251,-52.786,2.157,9.491,2.588,-87.977,-211.144,-52.786
1.9100000000000001,-1.245,9.293,2.587,-52.786,2.395,9.341,-1.389,-58.651,1.869,9.635,1.726,-93.842,-217.009,-52.786
1.915,-1.15,9.388,1.485,-52.786,2.108,9.436,-0.24,-58.651,1.726,9.635,0.431,-87.977,-222.874,-58.651
1.92,-0.91,9.58,0.144,-52.786,1.677,9.436,1.15,-52.786,1.438,9.778,-1.007,-87.977,-228.739,-52.786
1.925,-0.671,9.867,-1.533,-52.786,1.389,9.436,2.874,-52.786,1.15,9.922,-2.732,-87.977,-234.604,-52.786
1.93,-0.383,9.915,-3.497,-52.786,0.671,9.245,4.838,-52.786,0.719,9.778,-4.889,-93.842,-234.604,-52.786
1.935,-0.192,9.963,-5.796,-52.786,-0.048,9.197,7.185,-52.786,0.288,9.778,-7.19,-99.707,-234.604,-52.786
1.94,0.144,9.963,-8.287,-52.786,-1.054,9.005,9.628,-52.786,-0.431,9.778,-9.778,-105.572,-234.604,-52.786
1.945,0.479,9.82,-10.921,-52.786,-2.06,8.862,12.215,-52.786,-1.15,9.635,-12.367,-111.437,-222.874,-52.786
1.95,0.671,9.436,-13.316,-52.786,-3.209,8.862,14.514,-52.786,-1.726,9.347,-14.668,-117.302,-211.144,-52.786
1.955,1.006,8.814,-15.424,-52.786,-4.263,8.909,16.382,-58.651,-2.445,8.916,-16.537,-123.167,-193.548,-58.651
1.96,1.198,7.904,-17.005,-52.786,-5.221,8.957,17.819,-58.651,-3.02,8.484,-17.831,-123.167,-170.088,-58.651
1.965,1.389,6.898,-18.154,-52.786,-5.892,8.909,18.777,-58.651,-3.307,7.909,-18.982,-117.302,-140.762,-58.651
1.97,1.293,5.652,-18.921,-52.786,-5.173,9.724,19.064,-52.786,-1.582,9.922,-16.825,-105.572,-105.572,-52.786
1.975,1.054,5.173,-19.304,-46.921,-6.898,8.287,19.208,-46.921,-4.026,6.615,-19.125,-82.111,-70.381,-46.921
1.98,0.862,4.215,-19.064,-35.191,-5.413,8.287,19.352,-35.191,-2.732,6.183,-19.269,-58.651,-35.191,-23.46
1.985,0.671,3.832,-18.058,-11.73,-4.934,8.143,18.25,-11.73,-2.445,6.04,-18.119,-29.326,0.0,-5.865
1.99,0.719,4.359,-16.765,5.865,-4.455,8.43,17.005,11.73,-2.301,6.471,-16.825,-5.865,35.191,11.73
1.995,0.575,4.982,-15.424,29.326,-3.976,8.718,15.759,29.326,-2.013,7.046,-15.53,23.46,64.516,29.326
2.0,0.479,6.227,-14.131,41.056,-3.161,8.909,14.514,46.921,-1.582,7.765,-14.236,52.786,93.842,46.921
2.005,0.527,7.472,-12.502,52.786,-1.581,8.957,13.029,58.651,-1.007,8.34,-12.511,70.381,117.302,52.786
2.0100000000000002,0.335,8.047,-11.017,58.651,-2.012,8.43,11.592,64.516,-0.863,8.484,-11.216,76.246,134.897,58.651
2.015,0.192,8.862,-9.628,64.516,-1.15,8.43,10.299,64.516,-0.431,8.916,-9.778,76.246,146.628,64.516
2.02,0.335,9.197,-7.712,58.651,-0.527,8.143,8.383,58.651,-0.144,8.916,-7.765,76.246,158.358,58.651
2.025,-0.335,8.957,-6.083,58.651,0.0,8.239,6.802,58.651,0.431,8.772,-6.327,70.381,164.223,58.651
2.0300000000000002,-0.383,8.862,-4.598,58.651,0.479,8.335,5.269,58.651,0.575,8.772,-4.745,64.516,170.088,58.651
2.035,-0.24,8.909,-2.635,52.786,0.814,8.239,3.305,52.786,0.719,8.772,-2.732,58.651,170.088,46.921
2.04,-0.479,8.622,-0.862,41.056,1.245,8.287,1.533,46.921,1.15,8.628,-1.007,52.786,170.088,41.056
2.045,-0.766,8.43,0.575,41.056,1.629,8.574,0.144,41.056,1.438,8.772,0.431,52.786,164.223,35.191
2.05,-0.719,8.574,2.156,35.191,1.916,8.718,-1.485,41.056,1.438,8.916,2.013,52.786,164.223,35.191
2.055,-0.719,8.862,3.64,35.191,2.203,9.005,-3.018,35.191,1.582,9.203,3.595,52.786,158.358,35.191
2.06,-0.814,9.053,5.221,35.191,2.635,9.053,-4.598,35.191,1.726,9.347,5.177,52.786,146.628,29.326
2.065,-0.814,9.293,6.85,29.326,2.922,9.341,-6.275,35.191,2.013,9.635,6.902,52.786,140.762,35.191
2.07,-0.814,9.293,8.239,35.191,3.449,9.436,-7.664,35.191,2.301,9.635,8.197,52.786,129.032,35.191
2.075,-0.766,9.532,9.436,35.191,3.832,9.628,-8.909,35.191,2.301,9.922,9.491,52.786,111.437,35.191
2.08,-0.623,10.011,10.538,35.191,3.88,9.915,-10.011,35.191,2.301,10.21,10.497,58.651,93.842,35.191
2.085,-0.335,10.442,11.209,35.191,4.024,10.155,-10.73,41.056,2.157,10.641,11.073,58.651,70.381,35.191
2.09,-0.24,10.969,11.688,35.191,4.072,10.059,-11.209,41.056,2.157,10.785,11.504,52.786,52.786,35.191
2.095,-0.144,11.544,11.736,35.191,3.928,9.963,-11.257,35.191,2.013,11.073,11.504,52.786,23.46,35.191
2.1,0.0,12.071,11.448,29.326,3.545,10.011,-10.921,29.326,1.726,11.36,11.073,41.056,0.0,29.326
2.105,0.144,12.598,10.873,23.46,3.257,9.915,-10.346,23.46,1.582,11.648,10.497,29.326,-23.46,17.595
2.11,0.287,12.933,10.394,11.73,3.497,9.484,-9.82,11.73,1.726,11.504,10.066,5.865,-46.921,11.73
2.115,0.0,12.646,10.011,-0.0,3.066,9.197,-9.341,0.0,1.582,11.216,9.491,-17.595,-64.516,0.0
2.12,0.096,12.215,9.293,-17.595,2.443,9.341,-8.67,-17.595,1.294,11.073,8.772,-35.191,-87.977,-17.595
2.125,-0.096,12.023,8.622,-29.326,2.97,9.101,-7.856,-29.326,1.726,10.785,7.909,-58.651,-105.572,-35.191
2.13,-0.623,11.544,7.76,-41.056,3.353,8.814,-6.85,-41.056,2.157,10.497,7.046,-76.246,-117.302,-46.921
2.1350000000000002,-0.814,10.73,6.658,-46.921,3.257,8.909,-5.7,-52.786,2.157,10.066,5.896,-93.842,-134.897,-52.786
2.14,-1.102,9.676,5.509,-52.786,3.066,9.101,-4.455,-52.786,2.157,9.491,4.602,-111.437,-152.493,-58.651
2.145,-1.293,8.718,4.024,-58.651,2.539,9.245,-3.018,-58.651,2.013,9.059,3.02,-111.437,-164.223,-58.651
2.15,-1.389,8.047,2.251,-58.651,2.108,9.293,-1.198,-58.651,1.869,8.772,1.15,-111.437,-170.088,-58.651
2.1550000000000002,-1.581,7.568,0.24,-52.786,1.724,9.197,0.814,-58.651,1.726,8.484,-1.007,-105.572,-175.953,-52.786
2.16,-1.15,7.616,-1.916,-52.786,1.293,9.245,2.874,-52.786,1.294,8.628,-3.02,-93.842,-175.953,-52.786
2.165,-1.293,7.856,-4.119,-46.921,0.719,9.388,5.03,-46.921,1.294,8.916,-5.321,-82.111,-175.953,-46.921
2.17,-1.293,8.047,-6.275,-35.191,0.24,9.628,7.137,-41.056,0.863,9.059,-7.334,-70.381,-170.088,-35.191
2.1750000000000003,-1.054,8.383,-8.191,-29.326,-0.575,9.724,9.005,-29.326,0.431,9.203,-9.203,-58.651,-158.358,-23.46
2.18,-0.719,8.526,-9.772,-23.46,-1.341,9.772,10.49,-23.46,-0.144,9.347,-10.641,-52.786,-146.628,-23.46
2.185,-0.335,8.67,-11.017,-23.46,-2.06,9.676,11.592,-23.46,-0.719,9.347,-11.792,-41.056,-129.032,-23.46
2.19,0.0,8.766,-11.879,-23.46,-2.395,9.484,12.406,-23.46,-1.007,9.347,-12.511,-35.191,-111.437,-23.46
2.195,0.048,8.622,-12.502,-29.326,-2.539,9.197,12.933,-29.326,-1.007,9.059,-12.942,-29.326,-87.977,-29.326
2.2,0.096,8.383,-12.55,-29.326,-2.251,8.862,12.981,-29.326,-0.863,8.772,-12.942,-29.326,-70.381,-29.326
2.205,0.0,8.143,-12.262,-23.46,-1.964,8.526,12.646,-23.46,-0.719,8.484,-12.511,-29.326,-46.921,-23.46
2.21,0.048,7.808,-11.592,-23.46,-1.629,8.335,11.975,-17.595,-0.575,8.197,-11.792,-29.326,-29.326,-17.595
2.215,-0.048,7.616,-10.873,-17.595,-1.389,8.287,11.257,-11.73,-0.431,8.197,-11.216,-23.46,-17.595,-11.73
2.22,-0.096,7.712,-10.299,-11.73,-1.198,8.287,10.682,-5.865,-0.288,8.197,-10.641,-23.46,-5.865,-5.865
2.225,-0.048,7.951,-9.676,-5.865,-1.15,8.287,10.107,0.0,-0.288,8.484,-9.922,-17.595,5.865,-5.865
2.23,-0.048,8.239,-9.101,-0.0,-1.006,8.287,9.532,0.0,-0.288,8.484,-9.491,-17.595,23.46,0.0
2.235,-0.096,8.43,-8.526,-0.0,-0.862,8.143,8.957,0.0,-0.144,8.484,-8.772,-17.595,29.326,0.0
2.24,-0.096,8.526,-7.76,-0.0,-0.575,7.951,8.191,5.865,0.0,8.484,-7.909,-23.46,41.056,0.0
2.245,-0.24,8.43,-6.85,-0.0,-0.24,7.712,7.329,5.865,0.288,8.34,-7.046,-23.46,46.921,0.0
2.25,-0.335,8.191,-5.796,5.865,0.048,7.712,6.275,5.865,0.431,8.197,-6.04,-29.326,58.651,5.865
2.255,-0.383,8.095,-4.694,5.865,0.287,7.904,5.125,5.865,0.575,8.34,-4.889,-35.191,64.516,5.865
2.2600000000000002,-0.431,8.191,-3.545,5.865,0.527,8.239,3.976,5.865,0.719,8.484,-3.739,-41.056,64.516,5.865
2.265,-0.479,8.287,-2.395,-0.0,0.814,8.622,2.874,5.865,0.863,8.772,-2.588,-41.056,70.381,0.0
2.27,-0.527,8.383,-1.293,-0.0,1.15,9.005,1.724,0.0,1.007,8.916,-1.438,-41.056,64.516,0.0
2.275,-0.479,8.478,-0.335,-5.865,1.533,9.101,0.814,-5.865,1.294,9.059,-0.575,-35.191,64.516,-5.865
2.2800000000000002,-0.766,8.478,0.335,-5.865,1.916,9.101,0.192,-5.865,1.582,9.059,-0.0,-29.326,64.516,-5.865
2.285,-0.766,8.718,0.766,-5.865,2.06,9.101,-0.24,-5.865,1.582,9.203,0.431,-29.326,58.651,-5.865
2.29,-0.623,8.957,1.006,-0.0,1.964,9.197,-0.431,0.0,1.438,9.347,0.575,-23.46,52.786,0.0
2.295,-0.623,9.101,1.15,5.865,1.868,9.245,-0.623,5.865,1.294,9.347,0.863,-23.46,46.921,5.865
2.3000000000000003,-0.527,9.101,1.389,5.865,1.724,9.293,-0.91,5.865,1.294,9.491,1.007,-23.46,41.056,5.865
2.305,-0.479,9.197,1.485,5.865,1.724,9.293,-0.958,11.73,1.15,9.491,1.15,-23.46,35.191,11.73
2.31,-0.383,9.293,1.533,5.865,1.82,9.149,-1.054,11.73,1.294,9.491,1.15,-23.46,29.326,11.73
2.315,-0.575,9.341,1.581,5.865,1.82,9.149,-1.054,11.73,1.438,9.491,1.15,-23.46,17.595,5.865
2.32,-0.671,9.293,1.437,5.865,1.82,9.197,-0.91,11.73,1.294,9.491,1.007,-23.46,11.73,5.865
2.325,-0.383,9.388,1.341,5.865,1.533,9.293,-0.814,11.73,1.007,9.635,0.863,-23.46,5.865,5.865
2.33,-0.527,9.436,1.102,5.865,1.389,9.436,-0.527,5.865,1.15,9.635,0.431,-29.326,0.0,5.865
2.335,-0.335,9.293,0.862,-0.0,1.533,9.053,-0.383,0.0,1.007,9.347,0.431,-29.326,0.0,0.0
2.34,-0.479,9.484,0.671,-0.0,1.293,9.484,-0.192,0.0,1.15,9.778,0.288,-29.326,-5.865,-5.865
2.345,-0.479,9.293,0.431,-5.865,1.245,9.915,0.048,-5.865,1.007,9.778,0.144,-29.326,-11.73,-11.73
2.35,-0.192,9.484,2.156,-5.865,0.096,15.089,-2.251,-5.865,-0.431,15.243,3.883,-23.46,-11.73,-5.865
2.355,1.485,14.131,7.377,-17.595,-1.437,15.999,-6.754,-23.46,-0.719,12.798,5.321,5.865,-11.73,-35.191
2.36,-0.575,11.975,0.335,-64.516,6.131,7.664,0.719,-64.516,4.17,10.21,-1.294,41.056,-11.73,-70.381
2.365,-2.203,12.502,-1.772,-70.381,2.874,9.005,2.347,-70.381,1.869,11.504,-2.301,17.595,-35.191,-70.381
2.37,1.15,12.789,-1.389,-41.056,-0.335,10.873,1.868,-46.921,-0.863,12.079,-1.582,-11.73,-46.921,-35.191
2.375,0.575,11.736,-0.766,-17.595,-0.383,11.544,1.245,-17.595,0.0,11.792,-1.15,-23.46,-46.921,-17.595
2.38,0.096,11.257,-0.91,-17.595,0.575,11.496,1.389,-17.595,0.431,11.648,-1.438,-29.326,-46.921,-17.595
2.3850000000000002,0.24,11.4,-1.198,-29.326,0.527,11.448,1.677,-29.326,0.431,11.648,-1.726,-29.326,-46.921,-29.326
2.39,0.0,11.113,-1.629,-29.326,0.527,11.64,2.156,-35.191,0.431,11.504,-2.157,-29.326,-46.921,-35.191
2.395,0.048,10.73,-2.012,-29.326,0.575,11.448,2.491,-29.326,0.575,11.216,-2.588,-29.326,-46.921,-29.326
2.4,0.0,10.586,-2.347,-29.326,0.527,11.352,2.826,-29.326,0.431,11.073,-2.876,-23.46,-46.921,-23.46
2.4050000000000002,0.287,10.586,-2.682,-29.326,0.096,11.113,3.161,-29.326,0.0,11.073,-3.164,-17.595,-46.921,-35.191
2.41,0.24,10.251,-3.018,-35.191,0.144,10.825,3.449,-35.191,0.288,10.641,-3.451,-17.595,-46.921,-35.191
2.415,0.0,9.82,-3.305,-29.326,0.24,10.346,3.784,-29.326,0.288,10.21,-3.739,-11.73,-46.921,-29.326
2.42,0.144,9.484,-3.449,-29.326,0.144,9.963,3.928,-29.326,0.144,9.922,-3.883,-5.865,-46.921,-23.46
2.4250000000000003,0.144,9.149,-3.593,-29.326,-0.048,9.58,4.072,-23.46,0.0,9.491,-4.026,-5.865,-46.921,-23.46
2.43,0.096,8.862,-3.688,-23.46,-0.096,9.293,4.167,-23.46,0.0,9.203,-4.17,0.0,-41.056,-23.46
2.435,0.096,8.622,-3.736,-23.46,-0.096,9.005,4.215,-23.46,0.0,8.916,-4.17,0.0,-41.056,-23.46
2.44,0.096,8.43,-3.736,-17.595,-0.192,8.766,4.215,-23.46,0.0,8.772,-4.17,0.0,-35.191,-17.595
2.445,0.144,8.335,-3.736,-17.595,-0.192,8.67,4.167,-17.595,0.0,8.772,-4.17,5.865,-35.191,-17.595
2.45,0.096,8.287,-3.64,-17.595,-0.144,8.478,4.119,-17.595,0.0,8.628,-4.17,5.865,-29.326,-17.595
2.455,0.192,8.335,-3.545,-17.595,0.0,8.383,4.024,-17.595,0.0,8.628,-4.026,5.865,-29.326,-17.595
2.46,0.144,8.383,-3.305,-17.595,0.048,8.383,3.784,-17.595,0.144,8.628,-3.739,5.865,-23.46,-17.595
2.465,0.144,8.43,-3.161,-17.595,0.096,8.383,3.64,-17.595,0.144,8.628,-3.595,5.865,-23.46,-17.595
2.47,0.192,8.478,-3.066,-17.595,0.096,8.43,3.545,-17.595,0.144,8.772,-3.451,5.865,-23.46,-17.595
2.475,0.144,8.622,-2.922,-11.73,0.144,8.43,3.401,-11.73,0.144,8.772,-3.307,5.865,-23.46,-11.73
2.48,0.144,8.718,-2.826,-11.73,0.192,8.526,3.257,-11.73,0.144,8.916,-3.164,0.0,-23.46,-11.73
2.485,0.287,8.862,-2.682,-11.73,0.096,8.622,3.161,-11.73,0.0,9.059,-3.164,0.0,-23.46,-11.73
2.49,0.096,9.005,-2.587,-17.595,0.24,9.005,3.066,-11.73,0.288,9.347,-3.02,0.0,-23.46,-17.595
2.495,0.096,9.245,-2.443,-17.595,0.24,9.245,2.922,-11.73,0.288,9.491,-2.876,-5.865,-23.46,-17.595
2.5,0.144,9.341,-2.395,-17.595,0.287,9.388,2.826,-17.595,0.288,9.635,-2.732,-5.865,-23.46,-17.595
2.505,0.096,9.293,-2.395,-17.595,0.335,9.532,2.874,-17.595,0.288,9.635,-2.876,-5.865,-23.46,-17.595
2.5100000000000002,0.048,9.388,-2.443,-17.595,0.383,9.676,2.874,-17.595,0.431,9.778,-2.876,-5.865,-23.46,-17.595
2.515,0.0,9.436,-2.443,-17.595,0.431,9.82,2.922,-17.595,0.431,9.922,-2.876,0.0,-23.46,-17.595
2.52,0.048,9.532,-2.443,-17.595,0.431,9.915,2.922,-17.595,0.431,9.922,-2.876,0.0,-23.46,-17.595
2.525,0.048,9.676,-2.443,-17.595,0.527,10.155,2.922,-17.595,0.431,10.21,-2.876,0.0,-23.46,-17.595
2.5300000000000002,0.0,9.867,-2.443,-11.73,0.527,10.394,2.874,-11.73,0.431,10.354,-2.876,5.865,-23.46,-17.595
2.535,-0.048,10.059,-2.347,-11.73,0.671,10.442,2.826,-11.73,0.575,10.497,-2.876,5.865,-23.46,-11.73
2.54,0.0,9.915,-2.491,-11.73,0.431,10.586,2.922,-17.595,0.431,10.497,-2.876,5.865,-23.46,-11.73
2.545,0.0,9.867,-2.539,-17.595,0.431,10.538,2.97,-17.595,0.431,10.354,-3.02,5.865,-23.46,-17.595
2.5500000000000003,-0.096,9.867,-2.491,-11.73,0.575,10.299,2.922,-11.73,0.575,10.21,-3.02,17.595,-23.46,-17.595
2.555,-0.096,9.724,-2.443,-11.73,0.575,10.251,2.922,-11.73,0.431,10.21,-2.876,23.46,-23.46,-11.73
2.56,-0.048,9.772,-2.395,-11.73,0.527,10.059,2.874,-11.73,0.431,10.21,-2.876,23.46,-23.46,-11.73
2.565,-0.096,9.867,-2.491,-11.73,0.575,10.155,2.97,-11.73,0.575,10.21,-3.02,29.326,-23.46,-11.73
2.57,-0.192,10.107,-2.587,-11.73,0.671,10.394,3.066,-11.73,0.719,10.497,-3.02,29.326,-23.46,-11.73
2.575,-0.096,10.442,-2.539,-11.73,0.623,10.49,3.018,-11.73,0.431,10.641,-3.02,29.326,-23.46,-11.73
2.58,0.0,10.49,-2.539,-11.73,0.671,10.251,3.066,-11.73,0.575,10.641,-3.02,29.326,-23.46,-11.73
2.585,-0.048,10.49,-2.635,-11.73,0.479,10.346,3.114,-11.73,0.431,10.785,-3.02,29.326,-23.46,-11.73
2.59,-0.144,10.873,-2.587,-11.73,0.719,10.634,3.018,-11.73,0.575,11.073,-3.02,23.46,-23.46,-11.73
2.595,-0.144,11.161,-2.539,-17.595,0.766,10.778,3.018,-17.595,0.719,11.216,-3.02,23.46,-23.46,-17.595
2.6,-0.192,11.304,-2.682,-23.46,0.814,11.065,3.161,-23.46,0.719,11.504,-3.164,17.595,-23.46,-23.46
2.605,-0.048,11.448,-2.778,-23.46,0.719,11.113,3.257,-23.46,0.575,11.504,-3.307,17.595,-23.46,-23.46
2.61,-0.048,11.448,-2.826,-29.326,0.814,11.209,3.353,-29.326,0.719,11.648,-3.307,5.865,-23.46,-35.191
2.615,-0.287,11.496,-2.826,-35.191,0.766,11.209,3.257,-35.191,0.719,11.648,-3.307,5.865,-29.326,-35.191
2.62,-0.192,11.4,-2.874,-35.191,0.814,11.352,3.353,-41.056,0.719,11.648,-3.307,5.865,-29.326,-41.056
2.625,-0.287,11.496,-2.922,-41.056,0.766,11.544,3.401,-41.056,0.719,11.792,-3.307,5.865,-29.326,-41.056
2.63,-0.24,11.496,-2.97,-41.056,0.814,11.736,3.401,-41.056,0.719,11.935,-3.307,5.865,-23.46,-46.921
2.6350000000000002,-0.24,11.496,-3.066,-46.921,0.719,11.975,3.497,-46.921,0.719,11.935,-3.451,5.865,-23.46,-46.921
2.64,-0.287,11.544,-3.018,-46.921,0.719,12.31,3.449,-46.921,0.719,12.079,-3.451,5.865,-23.46,-52.786
2.645,-0.287,11.496,-3.018,-46.921,0.766,12.454,3.401,-52.786,0.719,12.223,-3.451,5.865,-23.46,-52.786
2.65,-0.192,11.544,-3.066,-52.786,0.814,12.358,3.449,-58.651,0.719,12.223,-3.451,23.46,-23.46,-58.651
2.6550000000000002,0.0,11.64,-3.018,-58.651,1.006,12.502,3.401,-58.651,0.719,12.367,-3.307,29.326,-23.46,-64.516
2.66,-0.671,11.783,-2.73,-64.516,0.096,13.077,3.305,-64.516,0.575,12.654,-2.732,35.191,-29.326,-70.381
2.665,0.24,12.215,-2.491,-64.516,1.389,12.31,3.066,-70.381,0.719,12.511,-3.307,41.056,-29.326,-70.381
2.67,-0.192,12.406,-3.353,-64.516,1.82,11.783,4.024,-70.381,1.15,12.223,-4.17,46.921,-29.326,-70.381
2.6750000000000003,-0.383,12.885,-4.119,-70.381,5.125,10.969,4.119,-76.246,3.595,12.223,-3.595,41.056,-35.191,-76.246
2.68,-2.108,12.167,-2.347,-64.516,0.91,14.178,2.97,-64.516,0.863,13.805,-2.732,29.326,-46.921,-58.651
2.685,1.724,12.358,-2.73,-35.191,-2.491,15.711,2.97,-35.191,-2.157,14.236,-3.164,35.191,-46.921,-23.46
2.69,1.485,13.412,-2.347,-11.73,-2.108,15.089,2.73,-11.73,-1.294,14.524,-2.588,52.786,-35.191,-11.73
2.695,0.814,14.657,-2.012,-23.46,-0.623,14.849,2.395,-23.46,-0.431,14.955,-2.301,70.381,-29.326,-35.191
2.7,0.814,15.041,-1.772,-52.786,0.527,14.035,2.251,-58.651,0.288,14.668,-2.301,70.381,-23.46,-64.516
2.705,0.287,14.514,-2.012,-82.111,1.245,13.556,2.539,-87.977,0.719,14.236,-2.588,70.381,-23.46,-87.977
2.71,0.192,13.652,-2.06,-93.842,1.006,13.22,2.539,-93.842,0.575,13.517,-2.445,64.516,-29.326,-93.842
2.715,0.527,12.885,-1.82,-93.842,0.719,12.406,2.347,-93.842,0.288,12.654,-2.157,52.786,-35.191,-93.842
2.72,0.671,12.023,-1.677,-87.977,0.383,11.64,2.156,-93.842,0.0,11.935,-2.013,52.786,-41.056,-93.842
2.725,0.719,11.065,-1.629,-93.842,0.24,11.065,2.108,-93.842,-0.144,11.073,-2.013,52.786,-41.056,-93.842
2.73,0.623,10.346,-1.629,-93.842,0.096,10.682,2.156,-99.707,-0.144,10.641,-2.157,52.786,-46.921,-99.707
2.735,0.527,9.724,-1.724,-93.842,0.048,10.49,2.251,-99.707,-0.144,10.21,-2.301,52.786,-46.921,-99.707
2.74,0.575,9.341,-1.868,-93.842,-0.096,10.203,2.347,-99.707,-0.288,9.922,-2.301,58.651,-46.921,-93.842
2.745,0.719,9.101,-1.916,-93.842,-0.287,9.772,2.443,-93.842,-0.431,9.491,-2.445,64.516,-46.921,-93.842
2.75,0.814,8.909,-2.012,-87.977,-0.479,9.245,2.539,-93.842,-0.575,9.203,-2.445,64.516,-46.921,-93.842
2.755,0.862,8.574,-2.012,-87.977,-0.623,8.67,2.539,-87.977,-0.719,8.772,-2.445,70.381,-46.921,-93.842
2.7600000000000002,0.958,8.191,-2.012,-87.977,-0.814,8.143,2.539,-87.977,-0.863,8.34,-2.445,70.381,-46.921,-87.977
2.765,1.15,7.951,-1.964,-87.977,-0.862,7.712,2.491,-87.977,-0.863,8.053,-2.445,70.381,-46.921,-87.977
2.77,0.91,7.616,-1.868,-87.977,-0.814,7.281,2.395,-87.977,-0.863,7.621,-2.301,70.381,-41.056,-87.977
2.775,1.389,7.377,-1.772,-82.111,-0.862,6.706,2.299,-87.977,-1.15,7.19,-2.157,64.516,-41.056,-87.977
2.7800000000000002,1.293,6.993,-1.581,-82.111,-1.102,6.371,2.108,-87.977,-1.15,6.902,-2.013,64.516,-41.056,-87.977
2.785,1.389,6.562,-1.533,-82.111,-1.102,6.035,2.06,-87.977,-1.15,6.471,-2.013,58.651,-41.056,-82.111
2.79,1.437,6.083,-1.485,-82.111,-1.15,5.652,2.06,-82.111,-1.294,6.04,-2.013,52.786,-41.056,-82.111
2.795,1.485,5.796,-1.533,-76.246,-1.198,5.269,2.108,-82.111,-1.294,5.752,-2.013,52.786,-41.056,-76.246
2.8000000000000003,1.629,5.604,-1.485,-76.246,-1.389,4.886,2.06,-76.246,-1.582,5.464,-2.013,46.921,-41.056,-76.246
2.805,1.772,5.365,-1.485,-70.381,-1.581,4.598,2.06,-76.246,-1.726,5.177,-2.013,41.056,-41.056,-70.381
2.81,1.724,5.03,-1.581,-70.381,-1.533,4.455,2.108,-70.381,-1.582,4.889,-2.013,35.191,-46.921,-70.381
2.815,1.772,4.838,-1.581,-64.516,-1.629,4.167,2.108,-70.381,-1.726,4.745,-2.013,29.326,-41.056,-64.516
2.82,1.964,4.646,-1.533,-64.516,-1.724,3.88,2.108,-64.516,-1.869,4.458,-2.013,29.326,-46.921,-64.516
2.825,1.868,4.407,-1.485,-58.651,-1.677,3.593,2.108,-64.516,-1.726,4.17,-2.013,23.46,-46.921,-58.651
2.83,1.868,4.024,-1.533,-52.786,-1.629,3.353,2.108,-58.651,-1.726,3.883,-2.013,5.865,-46.921,-58.651
2.835,1.868,3.545,-1.437,-52.786,-1.724,3.066,2.06,-52.786,-1.869,3.451,-2.013,5.865,-46.921,-52.786
2.84,1.916,2.826,-1.437,-46.921,-1.916,2.682,2.06,-46.921,-2.013,2.732,-2.013,5.865,-46.921,-46.921
2.845,2.06,2.108,-1.437,-41.056,-2.108,2.251,2.012,-41.056,-2.157,2.157,-2.013,5.865,-46.921,-41.056
2.85,2.06,1.437,-1.485,-35.191,-2.347,1.724,2.012,-35.191,-2.301,1.582,-2.013,5.865,-46.921,-35.191
2.855,2.012,0.862,-1.629,-23.46,-2.443,1.437,2.203,-23.46,-2.301,1.15,-2.157,5.865,-46.921,-23.46
2.86,1.916,0.575,-1.82,-11.73,-2.395,1.198,2.395,-11.73,-2.157,1.007,-2.445,5.865,-41.056,-11.73
2.865,1.868,0.431,-1.868,-0.0,-2.347,1.15,2.443,0.0,-2.157,1.007,-2.445,17.595,-41.056,5.865
2.87,1.964,0.671,-1.868,11.73,-2.251,1.341,2.443,17.595,-2.157,1.294,-2.301,17.595,-35.191,17.595
2.875,1.868,1.15,-1.82,29.326,-2.251,1.82,2.347,29.326,-2.013,1.726,-2.301,23.46,-35.191,29.326
2.88,1.724,1.533,-1.82,35.191,-2.108,2.299,2.347,35.191,-2.013,2.157,-2.301,29.326,-29.326,35.191
2.8850000000000002,1.724,2.06,-1.916,46.921,-2.012,2.491,2.491,41.056,-1.869,2.588,-2.445,29.326,-29.326,41.056
2.89,1.868,2.73,-2.012,46.921,-1.916,2.587,2.587,46.921,-1.869,2.876,-2.588,35.191,-29.326,46.921
2.895,1.724,3.257,-2.108,52.786,-1.82,2.73,2.682,52.786,-1.726,3.307,-2.732,35.191,-23.46,52.786
2.9,1.724,3.545,-2.203,52.786,-1.82,2.874,2.778,52.786,-1.869,3.451,-2.732,29.326,-23.46,52.786
2.9050000000000002,1.868,3.784,-2.203,58.651,-1.868,2.922,2.778,58.651,-1.869,3.595,-2.732,23.46,-23.46,58.651
2.91,1.916,3.976,-2.203,58.651,-1.868,2.874,2.73,58.651,-1.869,3.739,-2.732,17.595,-23.46,58.651
2.915,1.868,4.119,-2.108,58.651,-1.868,3.209,2.682,58.651,-1.869,4.026,-2.588,5.865,-23.46,58.651
2.92,2.012,4.359,-2.06,58.651,-1.82,3.497,2.587,58.651,-1.869,4.17,-2.588,5.865,-23.46,58.651
2.9250000000000003,1.772,4.646,-2.156,58.651,-1.677,3.928,2.73,58.651,-1.726,4.602,-2.732,-5.865,-23.46,58.651
2.93,1.772,4.982,-2.347,64.516,-1.485,4.551,2.922,64.516,-1.582,5.177,-2.876,-11.73,-23.46,58.651
2.935,1.581,5.604,-2.491,64.516,-1.341,5.365,3.018,64.516,-1.438,5.896,-3.02,-17.595,-29.326,70.381
2.94,7.233,19.639,0.335,70.381,-2.347,19.304,-0.719,70.381,-8.916,64.854,8.628,-29.326,-23.46,70.381
2.945,5.317,11.736,1.15,41.056,-0.958,14.131,1.198,41.056,-0.431,15.387,-3.307,-93.842,-35.191,17.595
2.95,-4.024,17.005,-0.192,-17.595,3.497,11.831,1.102,-17.595,4.745,14.236,-1.007,-82.111,-52.786,-17.595
2.955,2.922,16.861,-1.341,-5.865,4.455,7.712,2.587,-5.865,-0.719,12.223,-2.013,-105.572,-58.651,0.0
2.96,4.119,9.963,-0.431,17.595,-5.509,13.173,1.102,17.595,-5.321,11.648,-0.863,-152.493,-93.842,23.46
2.965,4.694,9.053,-1.245,41.056,-6.562,14.753,1.772,41.056,-5.321,11.792,-2.013,-152.493,-93.842,46.921
2.97,4.072,10.251,-2.156,46.921,-5.077,14.657,2.587,46.921,-4.314,12.654,-2.588,-123.167,-76.246,41.056
2.975,3.305,11.783,-2.203,23.46,-3.928,16.047,2.587,23.46,-3.451,14.236,-2.588,-87.977,-64.516,11.73
2.98,3.305,12.646,-1.916,5.865,-3.161,17.196,2.251,0.0,-3.02,14.955,-2.157,-52.786,-58.651,0.0
2.985,3.066,12.885,-1.533,-0.0,-2.491,16.813,1.868,0.0,-2.588,14.811,-1.869,-23.46,-52.786,0.0
2.99,2.922,12.454,-1.198,-0.0,-1.964,15.568,1.581,0.0,-2.301,13.805,-1.582,5.865,-52.786,0.0
2.995,3.018,11.879,-1.15,-0.0,-1.82,13.843,1.629,0.0,-2.301,12.798,-1.582,29.326,-52.786,5.865
3.0,2.922,11.496,-1.629,5.865,-2.012,12.454,2.156,5.865,-2.445,11.935,-2.301,41.056,-58.651,5.865
3.005,3.018,11.4,-2.347,11.73,-2.395,11.352,2.922,11.73,-2.588,11.504,-3.02,46.921,-58.651,11.73
3.0100000000000002,2.922,11.209,-3.114,17.595,-2.539,10.682,3.64,17.595,-2.588,11.073,-3.739,52.786,-64.516,17.595
3.015,2.682,10.873,-3.688,17.595,-2.635,10.011,4.167,17.595,-2.588,10.497,-4.314,46.921,-64.516,17.595
3.02,2.73,10.346,-3.784,23.46,-2.635,9.293,4.311,17.595,-2.588,9.922,-4.314,41.056,-58.651,17.595
3.025,2.635,9.915,-3.88,17.595,-2.251,8.766,4.407,17.595,-2.301,9.491,-4.314,29.326,-58.651,17.595
3.0300000000000002,2.539,9.388,-3.88,11.73,-2.251,8.335,4.359,17.595,-2.301,9.059,-4.314,23.46,-58.651,11.73
3.035,2.587,9.053,-3.688,11.73,-2.203,8.047,4.215,11.73,-2.301,8.772,-4.17,5.865,-58.651,11.73
3.04,2.539,8.766,-3.688,5.865,-2.156,7.856,4.215,5.865,-2.301,8.484,-4.17,5.865,-58.651,5.865
3.045,2.587,8.67,-3.593,-0.0,-2.203,8.095,4.119,5.865,-2.301,8.628,-4.026,0.0,-58.651,0.0
3.0500000000000003,2.443,8.67,-3.401,-0.0,-2.203,8.383,3.88,0.0,-2.301,8.772,-3.883,-5.865,-58.651,0.0
3.055,2.587,8.909,-3.114,-5.865,-2.395,8.814,3.593,-11.73,-2.445,9.059,-3.451,-5.865,-58.651,-11.73
3.06,2.73,9.293,-2.922,-23.46,-2.395,9.197,3.401,-23.46,-2.445,9.491,-3.307,-11.73,-58.651,-23.46
3.065,2.587,9.388,-2.682,-29.326,-2.395,9.484,3.209,-35.191,-2.301,9.635,-3.164,-11.73,-58.651,-35.191
3.0700000000000003,2.587,9.388,-2.443,-41.056,-2.203,9.293,2.922,-46.921,-2.301,9.491,-2.732,-11.73,-58.651,-46.921
3.075,2.682,9.245,-1.964,-52.786,-2.251,9.245,2.443,-52.786,-2.445,9.347,-2.301,-11.73,-58.651,-52.786
3.08,2.635,9.101,-1.629,-52.786,-2.203,9.341,2.156,-58.651,-2.445,9.347,-2.157,-11.73,-58.651,-58.651
3.085,2.587,9.101,-1.533,-52.786,-2.156,9.341,1.964,-58.651,-2.301,9.491,-1.869,-11.73,-58.651,-58.651
3.09,2.778,9.245,-1.341,-52.786,-2.203,9.484,1.868,-52.786,-2.445,9.635,-1.726,-5.865,-58.651,-52.786
3.095,2.826,9.341,-1.198,-46.921,-2.156,9.676,1.677,-46.921,-2.445,9.778,-1.726,-5.865,-58.651,-46.921
3.1,2.874,9.532,-1.198,-41.056,-2.203,9.772,1.629,-41.056,-2.445,9.922,-1.438,-5.865,-64.516,-41.056
3.105,2.97,9.676,-1.245,-35.191,-2.347,9.867,1.724,-41.056,-2.588,9.922,-1.726,-5.865,-64.516,-41.056
3.11,3.018,9.724,-1.293,-35.191,-2.539,9.867,1.82,-35.191,-2.732,9.922,-1.726,0.0,-70.381,-35.191
3.115,3.018,9.772,-1.437,-29.326,-2.443,9.772,1.964,-29.326,-2.588,9.922,-1.869,0.0,-70.381,-23.46
3.12,3.018,9.82,-1.485,-23.46,-2.443,9.724,2.012,-23.46,-2.732,9.922,-1.869,0.0,-70.381,-23.46
3.125,3.066,9.82,-1.581,-23.46,-2.491,9.676,2.06,-23.46,-2.732,9.922,-2.013,0.0,-70.381,-23.46
3.13,3.018,9.82,-1.629,-17.595,-2.491,9.724,2.156,-23.46,-2.732,9.922,-2.157,-5.865,-70.381,-23.46
3.1350000000000002,2.97,9.915,-1.724,-23.46,-2.443,9.676,2.251,-17.595,-2.588,9.922,-2.157,-5.865,-76.246,-23.46
3.14,2.826,9.867,-1.772,-23.46,-2.299,9.724,2.251,-23.46,-2.445,9.922,-2.301,-5.865,-76.246,-23.46
3.145,2.778,9.772,-1.916,-23.46,-2.347,9.772,2.443,-23.46,-2.445,9.922,-2.445,-5.865,-76.246,-23.46
3.15,2.778,9.772,-2.108,-23.46,-2.395,9.724,2.682,-23.46,-2.445,9.922,-2.588,-11.73,-76.246,-23.46
3.1550000000000002,2.682,9.724,-2.251,-23.46,-2.347,9.724,2.778,-23.46,-2.445,9.922,-2.732,-11.73,-76.246,-23.46
3.16,2.635,9.676,-2.347,-23.46,-2.395,9.724,2.874,-29.326,-2.445,9.922,-2.876,-11.73,-76.246,-23.46
3.165,2.587,9.772,-2.395,-23.46,-2.251,9.628,2.922,-29.326,-2.301,9.922,-2.876,-11.73,-76.246,-23.46
3.17,2.587,9.724,-2.443,-29.326,-2.251,9.532,2.97,-29.326,-2.301,9.778,-2.876,-11.73,-76.246,-29.326
3.1750000000000003,2.491,9.58,-2.347,-29.326,-2.156,9.436,2.874,-35.191,-2.301,9.778,-2.876,-11.73,-76.246,-35.191
3.18,2.491,9.628,-2.395,-29.326,-2.108,9.341,2.922,-35.191,-2.157,9.635,-2.876,-11.73,-76.246,-35.191
3.185,2.395,9.628,-2.347,-35.191,-2.156,9.245,2.922,-35.191,-2.157,9.635,-2.732,-17.595,-76.246,-35.191
3.19,2.347,9.532,-2.251,-35.191,-2.156,9.388,2.73,-35.191,-2.157,9.635,-2.732,-17.595,-76.246,-35.191
3.1950000000000003,2.251,9.628,-2.06,-35.191,-1.916,9.532,2.587,-41.056,-1.869,9.778,-2.445,-17.595,-76.246,-41.056
3.2,2.06,9.724,-1.916,-35.191,-1.677,9.628,2.443,-41.056,-1.726,9.922,-2.445,-23.46,-76.246,-41.056
3.205,1.964,9.772,-1.868,-35.191,-1.677,9.772,2.395,-41.056,-1.726,9.922,-2.301,-23.46,-70.381,-41.056
3.21,1.964,10.059,-1.772,-41.056,-1.82,10.011,2.251,-41.056,-1.869,10.354,-2.157,-23.46,-70.381,-41.056
3.215,2.06,10.394,-1.629,-41.056,-1.82,10.203,2.108,-41.056,-1.726,10.497,-2.013,-23.46,-70.381,-46.921
3.22,1.772,10.442,-1.245,-46.921,-1.389,10.251,1.772,-46.921,-1.438,10.641,-1.582,-23.46,-70.381,-46.921
3.225,1.677,10.538,-0.814,-46.921,-1.102,10.49,1.293,-46.921,-1.294,10.785,-1.15,-29.326,-70.381,-52.786
3.23,1.629,10.634,-0.383,-46.921,-0.958,10.778,0.862,-52.786,-1.15,10.929,-0.719,-29.326,-70.381,-52.786
3.235,1.533,10.921,0.048,-52.786,-0.958,11.496,0.527,-52.786,-1.15,11.648,-0.288,-29.326,-70.381,-52.786
3.24,1.581,11.065,0.91,-52.786,-0.862,11.783,-0.431,-52.786,-1.15,11.504,0.719,-23.46,-70.381,-58.651
3.245,1.485,10.873,1.581,-52.786,-0.527,11.783,-1.102,-58.651,-0.863,11.504,1.438,-17.595,-76.246,-58.651
3.25,1.389,10.73,2.156,-58.651,-0.24,11.736,-1.724,-64.516,-0.719,11.36,2.013,-11.73,-76.246,-64.516
3.255,1.15,10.682,2.682,-64.516,0.096,11.688,-2.203,-64.516,-0.431,11.36,2.445,-5.865,-82.111,-64.516
3.2600000000000002,1.054,10.634,3.209,-64.516,0.24,11.736,-2.73,-70.381,-0.288,11.36,3.02,5.865,-87.977,-70.381
3.265,1.006,10.682,3.688,-64.516,0.431,11.736,-3.209,-70.381,-0.144,11.36,3.451,5.865,-93.842,-64.516
3.27,0.958,10.825,4.167,-64.516,0.575,11.831,-3.688,-64.516,-0.144,11.504,3.883,23.46,-99.707,-64.516
3.275,0.958,11.065,4.646,-64.516,0.623,12.023,-4.119,-64.516,-0.144,11.792,4.314,29.326,-105.572,-64.516
3.2800000000000002,0.958,11.352,5.03,-64.516,0.766,12.167,-4.455,-70.381,0.0,11.935,4.745,35.191,-111.437,-70.381
3.285,0.814,11.544,5.269,-64.516,1.102,12.119,-4.598,-70.381,0.288,12.079,4.889,41.056,-123.167,-70.381
3.29,0.671,11.736,5.365,-70.381,1.341,11.975,-4.742,-70.381,0.431,12.079,5.033,46.921,-129.032,-70.381
3.295,0.671,11.927,5.413,-70.381,1.485,11.831,-4.694,-76.246,0.575,12.079,5.033,52.786,-140.762,-76.246
3.3000000000000003,0.671,12.071,5.413,-70.381,1.581,11.592,-4.646,-76.246,0.575,12.079,4.889,52.786,-152.493,-76.246
3.305,0.575,12.167,5.221,-76.246,1.677,11.4,-4.407,-82.111,0.719,12.079,4.745,52.786,-164.223,-82.111
3.31,0.719,12.167,4.886,-82.111,1.581,11.065,-4.024,-82.111,0.575,11.935,4.17,46.921,-175.953,-82.111
3.315,0.335,12.215,4.503,-82.111,2.012,10.73,-3.545,-87.977,1.007,11.792,3.739,41.056,-187.683,-87.977
3.3200000000000003,0.431,12.406,3.928,-87.977,1.485,10.394,-2.97,-93.842,0.575,11.648,3.307,29.326,-199.413,-93.842
3.325,0.144,12.31,3.353,-93.842,1.82,10.299,-2.251,-99.707,0.863,11.504,2.588,17.595,-211.144,-99.707
3.33,-0.096,12.31,2.73,-99.707,2.06,10.155,-1.677,-105.572,1.15,11.504,2.013,5.865,-222.874,-99.707
3.335,0.096,11.975,2.251,-105.572,1.772,9.724,-1.006,-111.437,1.15,11.073,1.294,-11.73,-228.739,-111.437
3.34,-0.287,11.257,1.485,-111.437,1.82,9.484,-0.144,-123.167,1.438,10.641,0.575,-23.46,-240.469,-117.302
3.345,-0.383,10.586,0.671,-117.302,1.629,9.149,0.575,-129.032,1.294,10.21,-0.288,-35.191,-252.199,-129.032
3.35,-1.102,9.772,-0.192,-123.167,1.82,9.245,1.581,-129.032,1.582,9.491,-1.294,-41.056,-258.064,-129.032
3.355,-1.054,8.718,-1.293,-123.167,1.916,9.005,2.635,-129.032,1.582,8.772,-2.301,-41.056,-263.93,-129.032
3.36,-1.054,7.76,-2.443,-129.032,1.677,8.862,3.88,-134.897,1.438,8.34,-3.595,-41.056,-269.795,-134.897
3.365,-1.15,7.185,-3.928,-129.032,1.437,8.335,5.317,-134.897,1.582,7.909,-5.177,-35.191,-269.795,-134.897
3.37,-1.102,6.562,-5.796,-123.167,1.102,7.76,7.185,-129.032,1.294,7.19,-7.19,-23.46,-269.795,-129.032
3.375,-1.15,5.94,-7.856,-117.302,0.862,7.185,9.245,-123.167,1.15,6.759,-9.203,-11.73,-269.795,-123.167
3.38,-0.91,5.509,-10.011,-111.437,0.048,6.467,11.4,-117.302,0.575,6.04,-11.36,0.0,-263.93,-111.437
3.3850000000000002,-0.671,4.982,-12.406,-99.707,-0.862,5.844,13.699,-105.572,0.0,5.608,-13.805,5.865,-258.064,-105.572
3.39,-0.383,4.455,-14.753,-93.842,-1.868,5.269,15.951,-99.707,-0.575,5.033,-15.962,5.865,-246.334,-93.842
3.395,0.048,3.976,-16.861,-87.977,-2.682,4.742,17.915,-93.842,-1.294,4.458,-17.975,17.595,-228.739,-87.977
3.4,0.335,3.353,-18.585,-76.246,-3.832,4.167,19.495,-82.111,-2.013,3.883,-19.701,23.46,-211.144,-76.246
3.4050000000000002,0.766,2.539,-19.879,-70.381,-4.598,3.497,20.597,-70.381,-2.588,3.02,-20.707,29.326,-187.683,-70.381
3.41,1.054,1.82,-20.549,-58.651,-4.982,3.114,21.172,-58.651,-2.732,2.445,-21.282,35.191,-158.358,-58.651
3.415,1.102,1.102,-20.837,-41.056,-5.461,2.73,21.363,-46.921,-3.164,1.869,-21.426,41.056,-129.032,-46.921
3.42,1.341,0.431,-20.837,-29.326,-5.7,2.395,21.22,-35.191,-3.307,1.438,-21.282,52.786,-99.707,-29.326
3.4250000000000003,1.485,0.144,-20.405,-11.73,-5.748,2.06,20.741,-17.595,-3.451,1.15,-20.707,64.516,-64.516,-11.73
3.43,1.533,0.383,-19.543,-0.0,-5.365,2.203,19.926,5.865,-3.164,1.582,-19.844,76.246,-35.191,5.865
3.435,1.341,1.293,-18.394,23.46,-4.934,2.778,18.825,23.46,-2.876,2.445,-18.55,87.977,-5.865,23.46
3.44,1.437,2.443,-16.957,35.191,-4.455,3.64,17.388,41.056,-2.732,3.451,-16.968,93.842,23.46,41.056
3.4450000000000003,1.389,3.688,-15.376,52.786,-4.072,4.503,15.855,52.786,-2.445,4.458,-15.53,99.707,41.056,58.651
3.45,1.293,4.646,-13.652,64.516,-2.587,5.556,14.178,70.381,-1.726,5.464,-13.661,99.707,64.516,70.381
3.455,1.245,5.748,-12.215,70.381,-2.826,6.371,12.789,70.381,-1.869,6.471,-12.511,111.437,76.246,70.381
3.46,1.245,7.089,-11.544,70.381,-2.778,7.185,12.119,70.381,-1.869,7.478,-12.079,111.437,87.977,70.381
3.465,1.198,7.712,-11.161,64.516,-2.156,7.281,11.831,64.516,-1.294,7.909,-11.648,111.437,105.572,64.516
3.47,0.479,8.766,-10.825,64.516,-2.108,7.233,11.592,70.381,-0.863,8.484,-11.504,105.572,111.437,64.516
3.475,0.335,9.293,-10.873,64.516,-2.299,7.808,11.448,64.516,-1.007,8.916,-11.36,99.707,123.167,58.651
3.48,1.198,9.867,-9.915,52.786,-2.299,6.993,10.538,52.786,-1.438,8.772,-10.066,87.977,140.762,52.786
3.485,0.335,8.862,-8.862,52.786,-1.533,6.61,9.532,52.786,-0.575,7.909,-9.059,64.516,152.493,46.921
3.49,0.671,7.568,-6.85,46.921,-0.766,5.988,7.52,52.786,-0.431,6.902,-6.759,52.786,158.358,46.921
3.495,0.335,6.61,-4.263,52.786,0.575,5.844,4.886,52.786,0.431,6.327,-4.026,35.191,164.223,52.786
3.5,-0.048,5.652,-1.293,58.651,1.772,6.419,1.964,64.516,0.863,6.183,-1.15,29.326,164.223,58.651
3.505,0.335,5.413,1.533,64.516,1.581,7.616,-0.958,64.516,0.575,6.759,1.726,35.191,152.493,64.516
3.5100000000000002,0.671,6.035,3.497,70.381,1.964,8.718,-2.874,70.381,0.719,7.765,3.451,52.786,140.762,70.381
3.515,0.383,7.377,4.886,82.111,2.73,9.772,-4.263,82.111,1.294,9.059,4.745,70.381,123.167,82.111
3.52,0.287,9.053,5.94,93.842,3.114,10.825,-5.365,93.842,1.294,10.354,5.896,87.977,105.572,93.842
3.525,0.719,10.778,7.041,105.572,2.874,11.783,-6.419,105.572,1.007,11.792,6.902,99.707,82.111,105.572
3.5300000000000002,0.958,12.167,7.951,111.437,2.635,12.646,-7.329,111.437,0.863,12.798,7.765,105.572,58.651,111.437
3.535,1.102,13.508,8.814,111.437,2.395,13.364,-8.239,117.302,0.719,13.805,8.628,111.437,35.191,111.437
3.54,1.341,14.753,9.532,111.437,2.251,13.939,-9.005,111.437,0.431,14.811,9.491,111.437,11.73,105.572
3.545,1.533,15.807,10.203,99.707,2.251,14.322,-9.676,99.707,0.431,15.53,10.066,105.572,-11.73,93.842
3.5500000000000003,1.533,16.573,10.634,87.977,2.491,14.61,-10.059,87.977,0.575,15.962,10.354,93.842,-35.191,82.111
3.555,1.293,17.052,10.825,70.381,2.682,14.705,-10.299,70.381,0.863,16.249,10.497,82.111,-58.651,64.516
3.56,1.293,17.388,10.825,52.786,2.922,14.61,-10.203,52.786,0.863,16.249,10.497,70.381,-82.111,46.921
3.565,1.102,17.388,10.634,35.191,3.018,14.37,-9.963,35.191,1.15,16.106,10.21,52.786,-105.572,29.326
3.5700000000000003,1.006,17.052,10.394,11.73,3.114,14.083,-9.676,11.73,1.15,15.818,10.066,29.326,-129.032,5.865
3.575,0.575,16.382,10.107,-5.865,3.305,13.747,-9.293,-5.865,1.582,15.243,9.635,5.865,-152.493,-11.73
3.58,0.144,15.615,9.628,-23.46,3.545,13.46,-8.67,-29.326,1.869,14.668,9.059,-11.73,-175.953,-35.191
3.585,-0.287,15.089,9.005,-46.921,3.736,12.933,-7.999,-52.786,2.157,14.092,8.34,-23.46,-199.413,-52.786
3.59,-0.719,14.37,8.335,-64.516,4.119,12.215,-7.137,-70.381,2.588,13.373,7.478,-41.056,-222.874,-70.381
3.595,-1.245,13.46,7.377,-82.111,4.311,11.448,-6.035,-87.977,3.02,12.511,6.471,-52.786,-240.469,-87.977
3.6,-1.677,12.406,6.371,-93.842,4.551,10.538,-4.886,-99.707,3.307,11.504,5.321,-64.516,-263.93,-99.707
3.605,-2.251,11.065,5.221,-99.707,4.79,9.628,-3.64,-105.572,3.739,10.354,4.026,-76.246,-281.525,-105.572
3.61,-3.114,9.915,3.784,-105.572,4.886,9.388,-2.156,-111.437,4.17,9.778,2.588,-82.111,-293.255,-111.437
3.615,-2.682,8.909,2.299,-117.302,4.503,9.005,-0.479,-123.167,3.739,9.203,1.007,-82.111,-304.985,-123.167
3.62,-3.305,8.383,0.766,-129.032,3.976,8.814,1.054,-134.897,4.026,8.772,-0.719,-82.111,-316.715,-129.032
3.625,-3.88,7.951,-1.341,-129.032,4.503,8.909,3.161,-134.897,4.458,8.628,-2.876,-76.246,-322.581,-134.897
3.63,-3.64,7.904,-3.257,-129.032,4.311,8.909,5.03,-134.897,4.026,8.628,-4.745,-64.516,-322.581,-134.897
3.6350000000000002,-3.353,7.999,-4.934,-134.897,3.688,9.005,6.946,-140.762,3.739,8.628,-6.615,-52.786,-328.446,-140.762
3.64,-3.401,7.712,-7.329,-134.897,3.257,8.574,9.053,-140.762,3.739,8.34,-8.916,-46.921,-328.446,-140.762
3.645,-3.497,7.425,-9.772,-129.032,3.114,7.712,11.64,-134.897,3.595,7.765,-11.504,-41.056,-328.446,-134.897
3.65,-3.305,6.946,-12.454,-117.302,2.443,7.233,14.274,-123.167,3.02,7.19,-14.092,-35.191,-322.581,-117.302
3.6550000000000002,-3.018,6.323,-15.136,-105.572,1.15,6.562,16.813,-111.437,2.157,6.615,-16.681,-29.326,-316.715,-111.437
3.66,-2.73,5.892,-17.627,-93.842,-0.144,6.275,19.112,-99.707,1.438,6.183,-19.125,-29.326,-299.12,-99.707
3.665,-1.868,5.556,-19.783,-87.977,-1.916,5.796,21.028,-87.977,0.0,5.896,-21.139,-23.46,-281.525,-87.977
3.67,-1.198,5.365,-21.459,-82.111,-3.64,5.556,22.417,-87.977,-1.007,5.608,-22.433,-23.46,-252.199,-82.111
3.6750000000000003,-0.671,5.077,-22.753,-82.111,-4.503,5.509,23.327,-82.111,-1.582,5.608,-23.296,-23.46,-222.874,-82.111
3.68,-0.335,4.886,-24.046,-82.111,-4.742,5.461,23.615,-82.111,-1.869,5.321,-23.583,-23.46,-181.818,-82.111
3.685,-0.096,4.694,-24.19,-76.246,-4.79,5.365,23.375,-82.111,-2.013,5.177,-23.296,-17.595,-146.628,-82.111
3.69,-0.048,4.167,-22.657,-70.381,-4.455,5.173,22.753,-70.381,-1.869,4.745,-22.72,-17.595,-105.572,-70.381
3.6950000000000003,-0.048,3.64,-21.459,-52.786,-3.976,5.173,21.699,-52.786,-1.726,4.602,-21.57,-11.73,-70.381,-52.786
3.7,0.192,3.832,-20.31,-35.191,-4.119,5.652,20.549,-35.191,-1.869,5.033,-20.42,-5.865,-41.056,-35.191
3.705,0.575,4.263,-19.112,-23.46,-4.503,5.988,19.352,-17.595,-2.301,5.321,-19.269,5.865,-11.73,-17.595
3.71,1.006,4.79,-17.771,-11.73,-4.646,6.035,17.963,-5.865,-2.588,5.608,-17.687,17.595,17.595,-5.865
3.715,1.054,5.269,-16.43,-0.0,-4.119,6.083,16.717,0.0,-2.301,5.896,-16.537,23.46,46.921,0.0
3.72,1.006,5.556,-14.993,-0.0,-4.119,6.035,15.376,5.865,-2.301,6.183,-15.099,29.326,70.381,0.0
3.725,1.245,6.131,-13.556,5.865,-4.072,6.323,13.987,5.865,-2.445,6.615,-13.661,29.326,99.707,5.865
3.73,1.341,6.946,-11.927,5.865,-4.024,6.898,12.406,5.865,-2.588,7.334,-11.935,29.326,117.302,5.865
3.735,1.916,7.616,-10.059,-0.0,-4.072,7.089,10.586,0.0,-2.876,7.621,-10.066,29.326,140.762,-5.865
3.74,1.916,7.568,-7.76,-17.595,-3.209,6.993,8.335,-11.73,-2.157,7.478,-7.621,23.46,158.358,-17.595
3.745,1.437,6.658,-5.03,-29.326,-1.916,6.898,5.652,-23.46,-1.438,6.759,-4.889,23.46,170.088,-29.326
3.75,1.341,5.413,-2.012,-35.191,-0.862,6.562,2.635,-29.326,-1.007,5.896,-1.726,23.46,175.953,-35.191
3.755,1.341,4.263,1.198,-23.46,0.192,6.227,-0.575,-23.46,-0.575,5.321,1.438,29.326,175.953,-23.46
3.7600000000000002,1.533,3.545,4.263,-11.73,0.862,6.371,-3.64,-5.865,-0.575,4.889,4.602,41.056,164.223,-5.865
3.765,1.916,3.593,7.089,5.865,1.102,6.754,-6.419,5.865,-0.719,5.464,7.19,58.651,152.493,5.865
3.77,2.156,4.694,8.909,23.46,1.341,7.664,-8.287,29.326,-0.575,6.471,8.916,76.246,134.897,29.326
3.775,1.868,6.227,10.251,52.786,1.629,8.814,-9.628,52.786,-0.288,7.909,10.21,99.707,111.437,52.786
3.7800000000000002,2.203,8.335,11.544,70.381,1.629,9.772,-10.921,70.381,-0.575,9.635,11.36,117.302,87.977,70.381
3.785,2.491,10.299,12.31,70.381,1.102,10.825,-11.736,70.381,-0.863,10.929,12.223,129.032,58.651,70.381
3.79,2.299,11.448,12.598,64.516,0.671,11.352,-11.975,64.516,-0.863,11.935,12.223,134.897,35.191,58.651
3.795,3.305,13.843,12.167,52.786,0.671,11.927,-11.544,52.786,-1.438,13.373,11.792,134.897,17.595,46.921
3.8000000000000003,3.114,15.328,12.023,41.056,0.719,12.119,-11.448,35.191,-1.15,14.092,11.648,123.167,-11.73,35.191
3.805,2.682,15.615,11.975,23.46,1.677,11.736,-11.496,17.595,-0.719,13.949,11.935,105.572,-35.191,11.73
3.81,2.874,15.855,12.071,-0.0,1.245,11.304,-11.544,0.0,-0.863,13.949,11.648,82.111,-58.651,-5.865
3.815,3.161,15.568,11.927,-17.595,1.772,11.065,-11.209,-23.46,-0.719,13.661,11.504,52.786,-87.977,-29.326
3.8200000000000003,1.868,15.089,11.592,-41.056,2.012,11.113,-10.825,-41.056,0.0,13.373,11.073,23.46,-117.302,-46.921
3.825,2.299,14.418,10.921,-52.786,1.868,10.778,-10.107,-52.786,-0.144,12.942,10.21,-5.865,-140.762,-58.651
3.83,1.868,13.939,9.915,-58.651,1.677,10.682,-8.957,-64.516,-0.144,12.511,9.203,-35.191,-170.088,-64.516
3.835,1.629,13.22,8.862,-76.246,1.677,10.299,-7.76,-82.111,0.144,12.079,8.053,-52.786,-193.548,-82.111
3.84,1.054,12.694,7.568,-87.977,1.724,10.251,-6.323,-87.977,0.431,11.648,6.471,-70.381,-211.144,-93.842
3.845,0.862,11.975,5.892,-93.842,1.533,10.442,-4.503,-105.572,0.431,11.36,4.745,-87.977,-228.739,-105.572
3.85,0.527,10.825,3.784,-105.572,1.293,10.394,-2.347,-111.437,0.431,10.641,2.588,-99.707,-246.334,-117.302
3.855,0.096,9.915,1.533,-117.302,0.766,10.203,0.0,-123.167,0.431,10.066,0.144,-99.707,-258.064,-123.167
3.86,0.144,9.149,-1.006,-123.167,0.048,9.772,2.539,-129.032,0.0,9.491,-2.588,-93.842,-263.93,-129.032
3.865,-0.048,8.143,-3.64,-129.032,-0.766,9.053,5.03,-129.032,-0.288,8.484,-5.033,-87.977,-263.93,-129.032
3.87,0.0,6.993,-6.035,-129.032,-1.437,8.191,7.377,-134.897,-0.575,7.478,-7.478,-82.111,-258.064,-129.032
3.875,0.048,6.083,-8.335,-123.167,-2.203,7.568,9.532,-129.032,-1.007,6.902,-9.635,-70.381,-246.334,-123.167
3.88,0.575,5.509,-10.155,-117.302,-3.209,7.041,11.209,-123.167,-1.869,6.327,-11.216,-58.651,-234.604,-117.302
3.8850000000000002,0.862,4.982,-11.64,-111.437,-3.928,6.658,12.598,-117.302,-2.157,5.896,-12.654,-46.921,-217.009,-117.302
3.89,1.15,4.598,-12.981,-111.437,-4.407,6.275,13.747,-111.437,-2.588,5.464,-13.805,-35.191,-193.548,-111.437
3.895,1.293,4.455,-13.939,-105.572,-4.598,5.94,14.61,-111.437,-2.732,5.321,-14.668,-23.46,-170.088,-105.572
3.9,1.533,4.551,-14.61,-99.707,-4.551,5.461,15.184,-99.707,-2.876,5.177,-15.243,-11.73,-146.628,-99.707
3.9050000000000002,1.581,4.646,-14.945,-87.977,-4.263,5.221,15.52,-87.977,-2.588,5.177,-15.387,-5.865,-123.167,-82.111
3.91,1.916,4.934,-14.945,-70.381,-4.263,5.221,15.424,-70.381,-3.02,5.321,-15.387,-5.865,-99.707,-70.381
3.915,2.108,5.125,-14.562,-58.651,-4.551,5.556,15.041,-58.651,-3.164,5.608,-14.955,0.0,-82.111,-58.651
3.92,2.395,5.604,-14.226,-46.921,-4.503,5.796,14.657,-46.921,-3.307,6.04,-14.524,0.0,-58.651,-46.921
3.9250000000000003,2.395,6.035,-13.747,-35.191,-4.263,5.94,14.131,-35.191,-3.164,6.327,-14.092,0.0,-46.921,-35.191
3.93,2.539,6.419,-13.22,-29.326,-4.167,6.131,13.652,-29.326,-3.164,6.615,-13.517,-5.865,-29.326,-23.46
3.935,2.635,6.562,-12.646,-23.46,-4.119,6.179,13.029,-23.46,-3.164,6.615,-12.942,-5.865,-17.595,-23.46
3.94,2.539,6.467,-11.927,-17.595,-3.928,6.035,12.358,-17.595,-3.02,6.471,-12.223,-11.73,-5.865,-17.595
3.9450000000000003,2.491,6.227,-11.065,-11.73,-3.832,6.131,11.448,-5.865,-3.02,6.327,-11.216,-17.595,11.73,-5.865
3.95,2.682,6.179,-10.011,-5.865,-3.928,6.371,10.394,0.0,-3.164,6.471,-10.21,-17.595,23.46,0.0
3.955,2.826,6.083,-8.814,-0.0,-3.64,6.419,9.197,0.0,-3.164,6.471,-8.916,-17.595,29.326,0.0
3.96,2.826,6.035,-7.568,-0.0,-3.161,6.706,7.999,0.0,-2.876,6.471,-7.765,-17.595,41.056,0.0
3.9650000000000003,2.491,5.94,-6.275,-0.0,-2.539,6.85,6.658,0.0,-2.445,6.615,-6.471,-11.73,46.921,0.0
3.97,2.443,5.94,-5.03,5.865,-1.82,7.041,5.461,11.73,-2.013,6.759,-5.321,-5.865,46.921,11.73
3.975,2.251,6.371,-4.311,23.46,-1.581,7.568,4.838,23.46,-2.013,7.334,-4.602,0.0,46.921,23.46
3.98,2.635,7.089,-3.401,23.46,-1.868,8.143,3.832,29.326,-2.157,7.909,-3.739,5.865,41.056,23.46
3.985,2.395,7.712,-3.066,35.191,-1.868,8.862,3.497,35.191,-2.013,8.628,-3.451,5.865,41.056,29.326
3.99,2.491,8.67,-2.874,35.191,-1.629,9.388,3.353,35.191,-2.013,9.347,-3.307,23.46,35.191,35.191
3.995,2.395,9.676,-2.635,41.056,-1.485,9.772,3.114,41.056,-1.869,10.066,-3.02,23.46,35.191,35.191
4.0,2.443,10.442,-2.395,41.056,-1.437,10.251,2.874,41.056,-1.869,10.641,-2.732,29.326,29.326,41.056
4.005,2.347,11.065,-2.251,41.056,-1.341,10.394,2.73,41.056,-1.726,11.073,-2.732,23.46,23.46,41.056
4.01,2.635,11.4,-2.251,41.056,-1.341,10.778,2.73,41.056,-1.869,11.36,-2.588,17.595,17.595,35.191
4.015,2.491,11.783,-2.108,35.191,-1.437,11.065,2.587,35.191,-2.013,11.648,-2.588,5.865,17.595,29.326
4.0200000000000005,2.635,11.975,-2.203,23.46,-1.82,11.304,2.635,23.46,-2.157,11.792,-2.588,5.865,5.865,23.46
4.025,2.682,11.879,-2.203,17.595,-1.916,11.113,2.682,17.595,-2.157,11.648,-2.588,5.865,5.865,11.73
4.03,2.682,11.544,-2.251,5.865,-1.964,10.825,2.73,5.865,-2.157,11.36,-2.732,-5.865,5.865,5.865
4.035,2.826,10.921,-2.06,-0.0,-2.299,10.299,2.491,0.0,-2.445,10.641,-2.445,-5.865,0.0,0.0
4.04,2.874,9.867,-1.437,-5.865,-3.449,11.688,1.724,-5.865,-3.451,11.648,-1.15,-11.73,0.0,-5.865
4.045,5.03,15.568,3.305,-11.73,-6.419,21.459,-3.305,-17.595,-5.608,17.831,3.451,5.865,5.865,-17.595
4.05,4.311,13.699,-0.096,-41.056,1.293,10.299,1.245,-46.921,-0.575,11.073,-2.013,29.326,5.865,-64.516
4.055,0.575,10.059,-2.251,-93.842,0.527,7.951,2.587,-99.707,-0.431,9.491,-2.157,17.595,-11.73,-99.707
4.0600000000000005,3.257,10.49,-0.719,-76.246,-2.73,9.628,1.054,-76.246,-3.307,10.21,-1.007,0.0,-23.46,-64.516
4.065,3.928,8.909,-0.479,-35.191,-3.736,9.867,0.814,-35.191,-3.739,9.203,-0.719,-5.865,-23.46,-23.46
4.07,3.401,7.808,-0.144,-17.595,-3.353,9.676,0.575,-17.595,-3.307,8.772,-0.431,-5.865,-23.46,-17.595
4.075,3.449,8.095,-0.144,-17.595,-2.874,9.628,0.623,-17.595,-3.02,9.059,-0.719,5.865,-23.46,-23.46
4.08,3.114,9.101,-0.91,-17.595,-2.347,9.724,1.437,-17.595,-2.732,9.635,-1.582,23.46,-23.46,-23.46
4.085,3.161,9.915,-1.724,-11.73,-2.251,9.772,2.299,-11.73,-2.588,10.21,-2.445,23.46,-23.46,-11.73
4.09,3.257,10.394,-2.108,-0.0,-2.347,10.107,2.587,0.0,-2.876,10.497,-2.588,23.46,-29.326,0.0
4.095,3.449,10.442,-2.347,5.865,-2.826,10.251,2.826,5.865,-3.164,10.497,-2.876,23.46,-35.191,5.865
4.1,3.497,10.299,-2.682,5.865,-2.97,10.059,3.209,5.865,-3.164,10.354,-3.164,17.595,-35.191,0.0
4.105,3.449,10.059,-3.066,-0.0,-2.922,9.676,3.545,0.0,-3.164,9.922,-3.595,17.595,-35.191,-5.865
4.11,3.401,9.772,-3.593,-5.865,-2.826,9.245,4.119,-5.865,-3.02,9.635,-4.17,5.865,-35.191,-11.73
4.115,3.257,9.436,-4.311,-11.73,-2.874,8.766,4.886,-11.73,-3.02,9.203,-5.033,5.865,-41.056,-11.73
4.12,3.114,9.101,-5.125,-17.595,-2.778,8.239,5.652,-17.595,-2.876,8.772,-5.752,5.865,-41.056,-17.595
4.125,3.209,8.526,-5.556,-17.595,-3.114,8.095,6.083,-17.595,-3.02,8.484,-6.183,-5.865,-41.056,-17.595
4.13,2.922,8.047,-6.227,-17.595,-3.018,7.808,6.754,-23.46,-2.876,8.053,-6.902,-5.865,-41.056,-23.46
4.135,2.635,7.712,-6.85,-17.595,-2.922,7.616,7.377,-17.595,-2.588,7.909,-7.478,-11.73,-35.191,-17.595
4.14,2.443,7.52,-7.233,-11.73,-2.826,7.664,7.76,-11.73,-2.588,7.765,-7.765,-11.73,-35.191,-11.73
4.1450000000000005,2.491,7.472,-7.377,-5.865,-2.922,7.808,7.904,-5.865,-2.588,7.909,-7.909,-11.73,-29.326,-5.865
4.15,2.491,7.568,-7.425,-5.865,-2.874,8.047,7.904,0.0,-2.588,8.053,-7.909,-11.73,-23.46,0.0
4.155,2.347,7.808,-7.329,-0.0,-2.347,8.814,7.712,0.0,-2.301,8.628,-7.621,-11.73,-17.595,0.0
4.16,2.587,8.047,-6.946,5.865,-3.066,8.814,7.377,5.865,-2.732,8.484,-7.334,-5.865,-11.73,5.865
4.165,2.491,8.43,-6.754,5.865,-2.778,9.101,7.233,5.865,-2.588,9.059,-7.19,0.0,-11.73,5.865
4.17,2.347,8.909,-6.419,-0.0,-2.587,9.341,6.85,5.865,-2.301,9.491,-6.759,0.0,-5.865,0.0
4.175,2.299,9.245,-5.988,-0.0,-2.347,9.724,6.371,0.0,-2.157,9.778,-6.327,5.865,0.0,-5.865
4.18,2.108,9.484,-5.509,-5.865,-2.251,9.963,5.94,-5.865,-2.013,9.922,-5.896,5.865,5.865,-5.865
4.1850000000000005,2.203,9.676,-4.934,-5.865,-2.108,10.155,5.365,-5.865,-2.013,10.21,-5.177,5.865,5.865,-5.865
4.19,2.156,9.867,-4.407,-5.865,-2.108,10.251,4.79,-5.865,-2.013,10.21,-4.745,5.865,5.865,-11.73
4.195,2.251,10.011,-3.88,-5.865,-1.964,10.251,4.263,-5.865,-2.013,10.354,-4.17,5.865,11.73,-11.73
4.2,2.203,10.059,-3.305,-5.865,-1.772,10.251,3.736,-11.73,-1.869,10.354,-3.595,17.595,11.73,-11.73
4.205,2.156,10.155,-2.874,-11.73,-1.629,10.155,3.305,-5.865,-1.869,10.354,-3.164,17.595,11.73,-5.865
4.21,2.251,10.203,-2.491,-5.865,-1.581,10.059,2.922,-5.865,-1.869,10.354,-2.876,17.595,11.73,-5.865
4.215,2.251,10.107,-2.203,-5.865,-1.533,9.867,2.682,-5.865,-1.869,10.21,-2.588,5.865,11.73,-5.865
4.22,2.251,9.867,-2.06,-5.865,-1.581,9.676,2.539,0.0,-1.869,9.922,-2.445,5.865,5.865,-5.865
4.225,2.203,9.724,-2.012,-0.0,-1.629,9.484,2.443,0.0,-1.869,9.778,-2.445,5.865,5.865,0.0
4.23,2.251,9.484,-1.916,-0.0,-1.724,9.293,2.395,0.0,-1.869,9.491,-2.445,5.865,0.0,0.0
4.235,2.251,9.149,-1.964,5.865,-1.677,9.053,2.395,5.865,-1.869,9.203,-2.445,5.865,0.0,5.865
4.24,2.156,8.862,-2.012,5.865,-1.724,8.814,2.491,5.865,-1.869,8.916,-2.445,5.865,0.0,5.865
4.245,2.203,8.526,-2.012,5.865,-1.772,8.622,2.491,5.865,-2.013,8.772,-2.445,5.865,0.0,5.865
4.25,2.203,8.287,-2.06,5.865,-1.772,8.43,2.491,11.73,-1.869,8.484,-2.445,5.865,0.0,5.865
4.255,2.108,8.047,-2.06,5.865,-1.724,8.287,2.587,11.73,-1.869,8.34,-2.588,5.865,0.0,11.73
4.26,2.06,7.808,-2.06,11.73,-1.677,8.095,2.539,11.73,-1.869,8.053,-2.445,5.865,0.0,11.73
4.265,2.06,7.52,-2.012,11.73,-1.724,7.904,2.491,11.73,-1.869,7.909,-2.445,5.865,0.0,11.73
4.2700000000000005,2.012,7.377,-2.06,11.73,-1.724,7.76,2.539,11.73,-1.869,7.765,-2.588,5.865,-5.865,11.73
4.275,1.868,7.281,-2.06,11.73,-1.629,7.76,2.587,11.73,-1.726,7.621,-2.588,5.865,-5.865,11.73
4.28,1.868,7.377,-2.203,11.73,-1.437,7.664,2.682,11.73,-1.582,7.765,-2.588,17.595,-5.865,11.73
4.285,1.724,7.52,-2.108,11.73,-1.437,7.808,2.539,11.73,-1.582,7.909,-2.588,17.595,-5.865,11.73
4.29,1.724,7.568,-2.012,11.73,-1.389,7.999,2.491,11.73,-1.438,8.053,-2.445,17.595,-5.865,11.73
4.295,1.533,7.712,-1.964,11.73,-1.102,8.191,2.443,17.595,-1.15,8.197,-2.445,23.46,-5.865,11.73
4.3,1.437,7.951,-1.916,11.73,-1.054,8.526,2.395,17.595,-1.15,8.484,-2.301,23.46,-5.865,17.595
4.305,1.341,8.191,-1.82,17.595,-0.91,8.862,2.299,17.595,-1.007,8.772,-2.301,29.326,-5.865,11.73
4.3100000000000005,1.245,8.43,-1.772,17.595,-0.814,9.245,2.251,17.595,-0.863,9.059,-2.157,35.191,-5.865,17.595
4.315,1.198,8.814,-1.772,17.595,-0.671,9.628,2.251,17.595,-0.863,9.491,-2.157,35.191,-5.865,17.595
4.32,1.006,9.197,-1.724,11.73,-0.575,10.107,2.203,17.595,-0.575,9.922,-2.157,41.056,-5.865,11.73
4.325,0.91,9.58,-1.724,11.73,-0.24,10.49,2.203,11.73,-0.431,10.354,-2.157,46.921,-5.865,11.73
4.33,0.814,9.963,-1.677,11.73,-0.048,10.73,2.203,11.73,-0.288,10.641,-2.157,52.786,-11.73,11.73
4.335,0.719,10.346,-1.724,11.73,0.096,11.161,2.203,11.73,-0.144,11.073,-2.157,58.651,-11.73,11.73
4.34,0.623,10.825,-1.82,11.73,0.144,11.592,2.347,11.73,-0.144,11.504,-2.301,64.516,-11.73,11.73
4.345,0.671,11.257,-1.964,11.73,0.144,11.975,2.491,11.73,-0.144,11.935,-2.445,70.381,-17.595,11.73
4.3500000000000005,0.719,11.831,-2.203,11.73,0.24,12.502,2.73,5.865,-0.144,12.511,-2.732,76.246,-17.595,5.865
4.355,0.766,12.646,-2.491,5.865,0.144,13.268,2.97,5.865,-0.144,13.373,-3.02,76.246,-17.595,5.865
4.36,0.766,13.939,-2.874,5.865,0.096,14.466,3.353,5.865,-0.144,14.668,-3.307,82.111,-23.46,0.0
4.365,0.862,15.184,-3.018,-0.0,0.048,15.376,3.497,0.0,-0.288,15.674,-3.595,82.111,-23.46,0.0
4.37,0.958,16.19,-3.257,-5.865,-0.048,16.286,3.736,-5.865,-0.288,16.681,-3.739,82.111,-23.46,-11.73
4.375,0.958,16.861,-3.497,-17.595,-0.144,17.1,3.928,-17.595,-0.288,17.256,-4.026,82.111,-23.46,-17.595
4.38,0.91,17.292,-3.593,-23.46,-0.144,17.771,4.072,-29.326,-0.288,17.831,-4.026,82.111,-29.326,-29.326
4.385,0.958,17.531,-3.688,-35.191,-0.192,18.106,4.072,-41.056,-0.288,17.975,-4.026,87.977,-23.46,-41.056
4.39,1.006,17.436,-3.593,-46.921,-0.192,18.154,4.024,-46.921,-0.288,17.831,-4.026,87.977,-23.46,-52.786
4.3950000000000005,0.958,17.052,-3.497,-58.651,-0.096,17.819,3.976,-58.651,-0.288,17.4,-3.883,93.842,-23.46,-64.516
4.4,0.91,16.382,-3.401,-64.516,0.096,17.148,3.88,-70.381,-0.144,16.825,-3.883,99.707,-23.46,-70.381
4.405,0.719,15.615,-3.353,-76.246,0.24,16.286,3.928,-82.111,-0.144,15.818,-3.739,105.572,-23.46,-82.111
4.41,1.341,14.514,-3.066,-87.977,0.431,15.041,3.497,-93.842,-0.144,14.668,-3.451,111.437,-23.46,-93.842
4.415,0.335,12.789,-3.018,-99.707,0.383,13.652,3.64,-99.707,0.144,13.086,-3.451,111.437,-29.326,-105.572
4.42,1.293,12.119,-2.922,-99.707,0.383,12.215,3.497,-105.572,-0.288,12.223,-3.451,117.302,-29.326,-105.572
4.425,0.814,11.4,-2.97,-105.572,0.24,11.352,3.545,-105.572,-0.144,11.504,-3.595,123.167,-35.191,-105.572
4.43,0.958,11.209,-3.161,-99.707,0.24,10.921,3.784,-105.572,-0.288,11.36,-3.739,117.302,-35.191,-105.572
4.4350000000000005,1.15,11.592,-3.114,-99.707,0.048,10.778,3.784,-105.572,-0.431,11.504,-3.739,117.302,-41.056,-105.572
4.44,1.15,11.783,-3.161,-99.707,-0.048,10.825,3.784,-105.572,-0.431,11.648,-3.739,111.437,-46.921,-105.572
4.445,1.198,11.688,-3.114,-99.707,-0.096,10.73,3.736,-105.572,-0.575,11.504,-3.595,105.572,-52.786,-105.572
4.45,1.533,11.592,-2.97,-105.572,-0.335,10.442,3.593,-105.572,-0.863,11.216,-3.451,99.707,-52.786,-105.572
4.455,1.437,11.161,-3.018,-105.572,-0.431,10.107,3.593,-111.437,-0.863,10.785,-3.595,87.977,-58.651,-111.437
4.46,1.485,10.682,-3.066,-111.437,-0.479,9.628,3.64,-117.302,-0.863,10.354,-3.595,82.111,-64.516,-117.302
4.465,1.437,10.155,-3.161,-117.302,-0.575,9.101,3.736,-123.167,-0.863,9.778,-3.739,76.246,-64.516,-123.167
4.47,1.341,9.484,-3.305,-117.302,-0.671,8.718,3.88,-123.167,-0.863,9.203,-3.883,70.381,-70.381,-123.167
4.4750000000000005,1.341,8.766,-3.353,-117.302,-0.862,8.383,3.928,-123.167,-1.007,8.628,-3.883,64.516,-70.381,-123.167
4.48,1.293,7.999,-3.401,-117.302,-1.054,8.191,3.928,-123.167,-1.007,8.197,-3.883,58.651,-70.381,-117.302
4.485,1.198,7.377,-3.353,-111.437,-1.054,7.999,3.928,-117.302,-1.007,7.765,-3.883,58.651,-70.381,-117.302
4.49,1.102,6.85,-3.209,-105.572,-1.006,7.856,3.736,-111.437,-1.007,7.478,-3.739,64.516,-70.381,-111.437
4.495,1.054,6.467,-3.066,-99.707,-0.91,7.616,3.64,-105.572,-0.863,7.19,-3.595,70.381,-64.516,-105.572
4.5,1.054,6.227,-2.922,-93.842,-0.862,7.329,3.497,-99.707,-0.863,6.902,-3.307,76.246,-64.516,-93.842
4.505,1.102,6.083,-2.682,-87.977,-0.814,6.993,3.305,-87.977,-0.863,6.615,-3.164,87.977,-64.516,-87.977
4.51,1.198,5.892,-2.491,-76.246,-0.862,6.754,3.114,-82.111,-1.007,6.471,-3.02,93.842,-64.516,-76.246
4.515,1.389,5.796,-2.443,-70.381,-1.054,6.275,3.114,-76.246,-1.294,6.183,-3.02,99.707,-64.516,-70.381
4.5200000000000005,1.437,5.7,-2.491,-64.516,-1.054,5.796,3.161,-70.381,-1.15,5.896,-3.02,99.707,-64.516,-70.381
4.525,1.629,5.652,-2.539,-58.651,-1.245,5.173,3.209,-64.516,-1.438,5.608,-3.164,99.707,-64.516,-64.516
4.53,1.724,5.461,-2.587,-52.786,-1.485,4.694,3.257,-58.651,-1.582,5.177,-3.164,99.707,-64.516,-52.786
4.535,1.772,5.077,-2.587,-46.921,-1.724,4.311,3.257,-46.921,-1.869,4.889,-3.164,93.842,-64.516,-46.921
4.54,1.964,4.79,-2.539,-41.056,-2.06,4.024,3.161,-41.056,-2.013,4.602,-3.02,87.977,-64.516,-41.056
4.545,2.06,4.503,-2.443,-35.191,-2.203,3.688,3.114,-41.056,-2.013,4.314,-3.02,82.111,-64.516,-35.191
4.55,2.012,4.119,-2.491,-29.326,-2.06,3.305,3.114,-29.326,-2.013,3.883,-3.02,76.246,-58.651,-29.326
4.555,2.06,3.64,-2.299,-23.46,-2.203,2.922,2.922,-23.46,-2.157,3.451,-2.732,70.381,-58.651,-17.595
4.5600000000000005,2.203,3.066,-2.108,-11.73,-2.491,2.539,2.73,-17.595,-2.445,2.876,-2.588,64.516,-58.651,-11.73
4.565,2.347,2.491,-2.012,-11.73,-2.635,2.012,2.635,-5.865,-2.588,2.301,-2.588,58.651,-58.651,-11.73
4.57,2.395,2.156,-1.916,-5.865,-2.682,1.485,2.539,-5.865,-2.588,1.869,-2.445,58.651,-52.786,-5.865
4.575,2.443,1.724,-1.82,-5.865,-2.587,1.006,2.443,-5.865,-2.588,1.438,-2.301,52.786,-52.786,0.0
4.58,2.395,1.293,-1.82,-0.0,-2.587,0.527,2.443,0.0,-2.588,1.007,-2.445,46.921,-52.786,0.0
4.585,2.443,0.814,-1.868,5.865,-2.682,0.096,2.491,5.865,-2.588,0.431,-2.445,41.056,-52.786,11.73
4.59,2.491,0.383,-1.964,17.595,-2.778,-0.287,2.587,17.595,-2.732,0.144,-2.588,35.191,-52.786,17.595
4.595,2.491,-0.048,-2.06,23.46,-2.874,-0.575,2.73,23.46,-2.876,-0.288,-2.732,29.326,-52.786,23.46
4.6000000000000005,2.539,-0.479,-2.347,29.326,-2.97,-1.006,2.97,29.326,-2.876,-0.719,-3.02,23.46,-46.921,29.326
4.605,2.491,-1.006,-2.491,35.191,-3.018,-1.629,3.161,35.191,-2.876,-1.294,-3.164,23.46,-46.921,35.191
4.61,2.347,-1.629,-2.778,46.921,-3.209,-1.964,3.401,46.921,-2.876,-1.726,-3.307,5.865,-46.921,46.921
4.615,2.395,-1.964,-2.97,52.786,-3.114,-2.251,3.593,52.786,-2.876,-2.013,-3.595,5.865,-41.056,58.651
4.62,2.251,-2.251,-3.257,64.516,-3.066,-2.395,3.88,64.516,-2.732,-2.301,-3.883,5.865,-35.191,64.516
4.625,2.108,-2.347,-3.497,70.381,-2.778,-2.587,4.119,70.381,-2.445,-2.301,-4.17,5.865,-35.191,70.381
4.63,1.868,-2.395,-3.64,82.111,-2.73,-2.587,4.263,82.111,-2.445,-2.301,-4.17,5.865,-29.326,82.111
4.635,1.724,-2.395,-3.736,93.842,-2.587,-2.443,4.359,93.842,-2.157,-2.301,-4.314,0.0,-29.326,93.842
4.64,1.485,-2.491,-3.784,105.572,-2.299,-2.251,4.359,105.572,-1.869,-2.301,-4.314,0.0,-23.46,105.572
4.6450000000000005,1.15,-2.251,-3.736,117.302,-2.012,-1.868,4.311,117.302,-1.582,-1.869,-4.314,0.0,-17.595,117.302
4.65,1.054,-1.629,-3.784,123.167,-1.916,-1.533,4.359,129.032,-1.582,-1.294,-4.314,0.0,-11.73,129.032
4.655,1.006,-0.958,-3.784,134.897,-1.724,-1.102,4.407,134.897,-1.294,-0.719,-4.314,0.0,-5.865,134.897
4.66,0.575,-0.479,-3.928,146.628,-1.389,-0.335,4.503,146.628,-1.007,-0.144,-4.458,0.0,-5.865,146.628
4.665,0.383,0.144,-3.688,152.493,-1.293,0.479,4.215,152.493,-0.863,0.575,-4.17,0.0,0.0,152.493
4.67,0.479,1.102,-3.353,152.493,-1.245,1.533,3.88,158.358,-0.863,1.726,-3.739,0.0,5.865,158.358
4.675,0.383,2.682,-3.209,158.358,-0.575,2.635,3.736,164.223,-0.288,3.307,-3.739,5.865,11.73,158.358
4.68,17.292,21.747,17.771,158.358,-9.724,22.465,-14.322,158.358,-17.831,41.846,16.249,93.842,-11.73,152.493
4.6850000000000005,-3.305,19.879,-3.066,87.977,10.778,13.556,1.677,87.977,14.236,20.707,-4.745,58.651,-23.46,82.111
4.69,-5.221,24.19,-0.144,70.381,15.903,14.178,1.724,64.516,7.334,22.433,0.431,-87.977,-29.326,58.651
4.695,4.598,17.867,1.964,52.786,-1.293,14.322,-0.479,52.786,-3.883,15.674,0.719,-205.279,-82.111,58.651
4.7,5.844,9.436,1.15,99.707,-8.909,15.568,-0.144,105.572,-7.765,11.216,0.719,-252.199,-105.572,117.302
4.705,6.371,7.137,0.91,117.302,-10.586,15.136,-0.287,117.302,-8.772,11.504,0.144,-234.604,-93.842,105.572
4.71,6.323,10.538,-1.15,52.786,-8.814,19.591,1.533,46.921,-6.615,15.674,-1.869,-181.818,-64.516,35.191
4.715,3.066,14.083,-2.06,5.865,-3.784,22.178,2.251,5.865,-2.588,18.263,-2.445,-117.302,-41.056,0.0
4.72,2.156,14.753,-1.82,-5.865,-1.581,22.082,2.012,-5.865,-1.726,18.119,-2.013,-58.651,-29.326,-5.865
4.7250000000000005,2.826,13.747,-1.341,-11.73,-2.156,20.262,1.581,-11.73,-2.588,16.393,-1.582,-5.865,-23.46,-11.73
4.73,3.305,12.789,-1.198,-11.73,-2.826,17.34,1.533,-5.865,-2.876,14.668,-1.726,41.056,-23.46,-5.865
4.735,3.114,12.789,-2.203,-0.0,-3.353,14.993,2.73,0.0,-3.164,13.805,-3.164,76.246,-23.46,0.0
4.74,3.449,13.556,-3.832,5.865,-3.976,13.077,4.407,5.865,-3.595,13.517,-4.745,93.842,-17.595,5.865
4.745,3.449,13.747,-5.125,5.865,-4.119,11.496,5.652,5.865,-3.451,12.654,-5.896,93.842,-11.73,5.865
4.75,3.353,13.077,-5.796,11.73,-3.64,10.011,6.323,11.73,-3.307,11.504,-6.471,76.246,0.0,11.73
4.755,2.826,11.688,-6.035,11.73,-3.305,8.909,6.514,11.73,-3.02,10.354,-6.471,58.651,5.865,11.73
4.76,3.114,10.394,-5.94,5.865,-3.305,8.191,6.467,5.865,-3.02,9.347,-6.471,41.056,11.73,5.865
4.765,2.97,9.245,-5.7,-0.0,-3.161,7.808,6.131,0.0,-3.02,8.628,-6.04,23.46,17.595,-5.865
4.7700000000000005,2.97,8.287,-5.317,-11.73,-2.97,7.616,5.796,-11.73,-2.732,8.053,-5.752,5.865,23.46,-17.595
4.775,2.635,7.233,-4.838,-17.595,-2.682,7.52,5.269,-17.595,-2.588,7.478,-5.177,0.0,23.46,-23.46
4.78,2.635,6.467,-4.167,-29.326,-2.778,7.616,4.598,-29.326,-2.732,7.046,-4.458,5.865,23.46,-29.326
4.785,2.635,6.227,-3.736,-35.191,-2.874,7.712,4.167,-35.191,-2.732,7.046,-4.17,5.865,29.326,-41.056
4.79,2.491,6.227,-3.593,-41.056,-2.826,7.664,4.024,-41.056,-2.588,7.046,-4.026,23.46,29.326,-46.921
4.795,2.347,6.371,-3.305,-41.056,-2.682,7.52,3.736,-46.921,-2.445,7.19,-3.739,29.326,35.191,-46.921
4.8,2.299,6.562,-3.066,-41.056,-2.635,7.377,3.497,-41.056,-2.445,7.19,-3.451,41.056,41.056,-41.056
4.805,1.82,7.472,-2.587,-35.191,-2.108,7.904,3.018,-35.191,-1.869,7.909,-2.876,46.921,41.056,-29.326
4.8100000000000005,2.251,7.664,-1.964,-23.46,-1.772,7.999,2.443,-17.595,-1.869,8.197,-2.301,46.921,46.921,-17.595
4.815,1.916,8.478,-1.437,-5.865,-1.389,8.67,1.964,-5.865,-1.582,8.916,-1.869,46.921,46.921,0.0
4.82,2.108,9.628,-1.389,5.865,-1.245,9.293,1.916,11.73,-1.726,9.922,-1.869,46.921,46.921,11.73
4.825,2.203,10.825,-1.389,17.595,-1.341,10.155,1.868,17.595,-1.726,10.929,-1.869,46.921,41.056,17.595
4.83,2.108,11.831,-1.437,23.46,-1.198,10.969,1.964,23.46,-1.582,11.792,-2.013,41.056,41.056,23.46
4.835,2.108,12.646,-1.772,23.46,-1.102,11.688,2.299,29.326,-1.438,12.511,-2.301,29.326,35.191,23.46
4.84,2.06,13.173,-2.108,29.326,-1.006,12.071,2.635,29.326,-1.438,12.942,-2.732,23.46,35.191,23.46
4.845,2.108,13.268,-2.587,23.46,-1.102,12.262,3.114,23.46,-1.438,13.086,-3.164,5.865,29.326,23.46
4.8500000000000005,2.539,12.885,-3.114,17.595,-1.437,12.071,3.593,17.595,-1.582,12.798,-3.739,5.865,23.46,17.595
4.855,1.82,12.981,-3.497,17.595,-1.293,12.215,3.976,17.595,-1.438,12.798,-4.026,0.0,23.46,17.595
4.86,2.108,12.502,-4.024,11.73,-1.533,12.167,4.455,11.73,-1.726,12.511,-4.602,-5.865,23.46,11.73
4.865,2.108,12.167,-4.359,11.73,-1.677,11.927,4.838,11.73,-1.726,12.223,-5.033,-11.73,23.46,11.73
4.87,2.06,11.975,-4.886,11.73,-1.629,11.783,5.365,11.73,-1.726,12.079,-5.464,-11.73,23.46,11.73
4.875,2.012,11.64,-5.077,11.73,-1.724,11.64,5.509,11.73,-1.726,11.792,-5.608,-17.595,23.46,11.73
4.88,1.916,11.209,-5.221,5.865,-1.677,11.592,5.652,11.73,-1.726,11.504,-5.752,-17.595,23.46,5.865
4.885,1.916,10.825,-5.461,5.865,-1.724,11.352,5.94,5.865,-1.726,11.216,-6.04,-17.595,23.46,5.865
4.89,1.772,10.299,-5.748,5.865,-1.772,11.161,6.227,5.865,-1.582,10.785,-6.327,-11.73,29.326,5.865
4.8950000000000005,1.772,9.915,-6.035,5.865,-1.724,10.825,6.514,5.865,-1.582,10.497,-6.471,-5.865,29.326,5.865
4.9,1.677,9.58,-6.083,5.865,-1.724,10.73,6.514,11.73,-1.582,10.354,-6.471,0.0,35.191,11.73
4.905,1.581,9.484,-5.94,11.73,-1.677,10.682,6.323,17.595,-1.438,10.21,-6.327,5.865,35.191,17.595
4.91,1.485,9.436,-5.461,23.46,-1.437,10.73,5.844,23.46,-1.294,10.21,-5.752,5.865,41.056,23.46
4.915,1.341,9.58,-4.838,29.326,-1.245,10.778,5.221,35.191,-1.15,10.354,-5.033,23.46,41.056,29.326
4.92,1.341,9.915,-4.215,41.056,-1.054,10.873,4.646,41.056,-1.15,10.641,-4.602,29.326,46.921,41.056
4.925,1.389,10.442,-3.736,46.921,-1.054,11.065,4.167,46.921,-1.15,10.929,-4.026,35.191,46.921,46.921
4.93,1.293,10.778,-3.305,46.921,-0.862,11.065,3.736,46.921,-0.863,11.216,-3.595,41.056,46.921,46.921
4.9350000000000005,1.15,11.161,-2.73,46.921,-0.575,11.065,3.161,46.921,-0.719,11.36,-2.876,41.056,46.921,46.921
4.94,1.198,11.257,-1.868,41.056,-1.006,10.73,2.299,41.056,-0.863,11.36,-2.301,41.056,46.921,41.056
4.945,1.341,11.688,-1.437,41.056,-0.335,11.161,1.964,41.056,-0.863,11.648,-1.726,41.056,46.921,35.191
4.95,1.437,11.592,-0.862,29.326,-0.719,10.682,1.293,29.326,-0.863,11.36,-1.15,35.191,46.921,23.46
4.955,1.102,11.496,-0.623,23.46,-0.335,10.682,1.102,29.326,-0.575,11.36,-1.007,29.326,46.921,23.46
4.96,1.198,11.4,0.0,23.46,-0.335,10.73,0.479,23.46,-0.719,11.216,-0.288,23.46,41.056,23.46
4.965,1.245,11.209,0.623,17.595,-0.096,10.538,-0.096,17.595,-0.575,11.073,0.288,5.865,41.056,17.595
4.97,1.533,11.113,0.91,5.865,-0.335,10.346,-0.431,11.73,-0.863,10.929,0.575,5.865,35.191,5.865
4.9750000000000005,1.389,10.634,1.054,5.865,-0.24,10.011,-0.575,5.865,-0.575,10.354,0.719,5.865,29.326,5.865
4.98,1.245,9.724,1.198,5.865,-0.096,9.293,-0.719,11.73,-0.575,9.491,0.863,0.0,23.46,5.865
4.985,1.293,9.005,1.389,11.73,0.0,8.574,-0.862,11.73,-0.575,8.916,1.007,-5.865,17.595,11.73
4.99,1.341,8.957,1.437,17.595,-0.096,8.383,-0.91,17.595,-0.719,8.916,1.007,-5.865,11.73,17.595
4.995,1.15,9.245,1.198,23.46,-0.24,8.766,-0.623,23.46,-0.575,9.347,0.719,-11.73,5.865,29.326
5.0,1.054,9.197,0.958,29.326,-0.335,8.766,-0.479,29.326,-0.575,9.203,0.431,-17.595,0.0,29.326
5.005,1.054,8.957,0.383,35.191,-0.719,8.766,0.096,35.191,-0.863,9.059,-0.144,-17.595,0.0,35.191
5.01,0.958,8.622,-0.048,35.191,-0.719,8.622,0.527,35.191,-0.719,8.772,-0.575,-23.46,0.0,35.191
5.015,0.814,8.383,-0.287,41.056,-0.527,8.67,0.814,41.056,-0.575,8.772,-0.863,-23.46,0.0,41.056
5.0200000000000005,0.719,8.335,-0.527,41.056,-0.479,8.814,1.006,41.056,-0.575,8.772,-1.007,-23.46,0.0,41.056
5.025,0.719,8.383,-0.671,46.921,-0.335,8.957,1.15,46.921,-0.431,8.916,-1.15,-17.595,0.0,46.921
5.03,0.575,8.383,-0.766,46.921,-0.144,9.053,1.245,46.921,-0.288,8.916,-1.15,-17.595,0.0,46.921
5.035,0.431,8.383,-0.766,46.921,0.048,9.149,1.245,46.921,-0.144,8.916,-1.15,-11.73,0.0,46.921
5.04,0.383,8.383,-0.719,46.921,0.144,9.149,1.15,46.921,0.0,8.916,-1.15,-5.865,0.0,46.921
5.045,0.287,8.335,-0.623,46.921,0.24,9.149,1.102,46.921,0.144,8.916,-1.007,0.0,0.0,46.921
5.05,0.24,8.478,-0.575,46.921,0.383,9.101,1.054,46.921,0.288,9.059,-1.007,5.865,0.0,46.921
5.055,0.335,8.622,-0.431,41.056,0.431,9.149,0.91,46.921,0.288,9.203,-0.863,5.865,0.0,41.056
5.0600000000000005,0.048,8.909,-0.287,41.056,0.479,9.149,0.671,41.056,0.288,9.203,-0.575,5.865,-5.865,41.056
5.065,0.048,8.909,0.0,35.191,0.527,9.245,0.479,41.056,0.288,9.203,-0.288,5.865,-5.865,35.191
5.07,0.0,9.005,0.335,35.191,0.766,9.341,0.144,35.191,0.575,9.491,-0.0,17.595,-5.865,35.191
5.075,-0.096,9.341,0.527,29.326,0.862,9.484,-0.096,29.326,0.575,9.635,0.288,17.595,-11.73,29.326
5.08,-0.048,9.436,0.814,29.326,1.006,9.724,-0.335,23.46,0.719,9.922,0.431,23.46,-11.73,23.46
5.085,-0.383,7.951,0.958,23.46,1.198,10.778,-0.431,23.46,1.15,12.798,0.575,23.46,-11.73,17.595
5.09,-0.096,10.394,0.719,29.326,1.245,10.778,-0.287,11.73,0.719,10.354,0.431,5.865,-17.595,11.73
5.095,-0.096,10.251,1.293,29.326,1.006,10.299,-0.814,5.865,0.863,10.785,0.863,5.865,-17.595,5.865
5.1000000000000005,-0.287,10.442,1.341,23.46,1.198,10.251,-0.958,5.865,0.863,10.066,1.15,5.865,-23.46,0.0
5.105,-0.287,10.538,1.533,17.595,1.15,10.49,-1.102,0.0,0.719,10.21,1.15,17.595,-23.46,0.0
5.11,-0.335,10.155,1.581,11.73,1.198,10.778,-1.006,0.0,1.007,11.36,1.15,23.46,-29.326,-5.865
5.115,-0.383,10.921,1.293,-0.0,1.293,10.969,-0.862,-11.73,0.863,10.641,0.863,29.326,-29.326,-11.73
5.12,-0.431,10.873,1.341,-0.0,1.198,10.969,-0.814,-11.73,1.007,11.073,0.863,29.326,-35.191,-17.595
5.125,-0.431,10.442,1.198,-5.865,1.245,11.496,-0.719,-17.595,1.007,11.648,0.863,29.326,-35.191,-17.595
5.13,-0.479,11.161,1.198,-11.73,1.054,11.017,-0.719,-23.46,0.863,11.073,0.863,35.191,-41.056,-23.46
5.135,-0.431,10.634,1.15,-17.595,1.102,11.448,-0.623,-29.326,0.863,11.216,0.719,41.056,-41.056,-29.326
5.14,-0.335,10.73,1.15,-23.46,0.958,11.352,-0.623,-35.191,0.719,11.216,0.863,46.921,-46.921,-35.191
5.1450000000000005,-0.24,10.538,1.293,-29.326,0.862,11.257,-0.766,-41.056,0.575,10.785,1.007,52.786,-46.921,-41.056
5.15,-0.048,9.963,1.485,-41.056,0.719,10.825,-1.006,-46.921,0.288,10.21,1.15,52.786,-46.921,-46.921
5.155,0.24,9.197,1.724,-46.921,0.671,10.155,-1.245,-58.651,0.431,10.354,1.294,58.651,-52.786,-58.651
5.16,0.144,9.293,1.916,-52.786,0.527,8.814,-1.389,-64.516,0.0,8.628,1.582,64.516,-52.786,-64.516
5.165,0.287,8.095,1.724,-58.651,0.527,8.095,-1.15,-70.381,0.288,8.34,1.294,70.381,-58.651,-70.381
5.17,0.287,7.76,1.341,-64.516,0.479,6.898,-0.719,-76.246,0.0,7.046,0.719,70.381,-58.651,-76.246
5.175,0.144,7.041,0.671,-70.381,0.335,6.035,0.0,-76.246,0.0,6.471,-0.0,70.381,-64.516,-76.246
5.18,0.287,6.706,0.144,-70.381,0.048,5.556,0.527,-76.246,-0.144,6.327,-0.575,64.516,-70.381,-76.246
5.1850000000000005,0.335,6.993,-0.575,-70.381,-0.192,5.652,1.198,-70.381,-0.288,6.615,-1.294,58.651,-70.381,-70.381
5.19,0.048,7.472,-1.198,-58.651,0.096,6.323,1.772,-64.516,0.0,7.334,-1.726,52.786,-70.381,-64.516
5.195,-0.096,8.191,-1.437,-52.786,0.335,7.425,1.964,-58.651,0.431,8.34,-1.869,41.056,-70.381,-58.651
5.2,-0.24,9.101,-1.533,-46.921,0.671,8.718,2.06,-52.786,0.575,9.347,-2.013,35.191,-70.381,-52.786
5.205,-0.527,9.963,-1.485,-41.056,1.102,9.82,2.06,-46.921,1.007,10.354,-2.013,29.326,-70.381,-46.921
5.21,-0.671,10.634,-1.629,-41.056,1.437,10.49,2.203,-41.056,1.15,10.929,-2.157,29.326,-70.381,-41.056
5.215,-0.91,11.161,-1.82,-41.056,1.677,11.017,2.395,-41.056,1.438,11.504,-2.301,29.326,-76.246,-41.056
5.22,-1.054,11.688,-2.108,-35.191,1.82,11.4,2.682,-41.056,1.582,11.935,-2.588,23.46,-76.246,-41.056
5.2250000000000005,-1.15,12.119,-2.491,-35.191,1.724,11.783,3.066,-35.191,1.582,12.367,-3.02,23.46,-82.111,-35.191
5.23,-1.15,12.454,-2.778,-29.326,1.485,12.262,3.305,-35.191,1.438,12.654,-3.307,17.595,-82.111,-35.191
5.235,-1.15,12.789,-3.114,-23.46,1.341,12.694,3.64,-29.326,1.438,13.086,-3.595,17.595,-82.111,-23.46
5.24,-1.245,13.173,-3.449,-23.46,1.341,13.22,3.976,-23.46,1.438,13.517,-4.026,5.865,-82.111,-23.46
5.245,-1.245,13.508,-3.64,-17.595,1.293,13.699,4.119,-23.46,1.438,13.949,-4.17,5.865,-76.246,-23.46
5.25,-1.245,13.795,-3.736,-17.595,1.341,14.083,4.167,-17.595,1.438,14.236,-4.17,5.865,-76.246,-17.595
5.255,-1.245,13.987,-3.688,-11.73,1.389,14.274,4.167,-11.73,1.438,14.38,-4.17,5.865,-70.381,-11.73
5.26,-1.102,14.131,-3.593,-11.73,1.341,14.274,4.024,-11.73,1.294,14.38,-4.026,5.865,-70.381,-11.73
5.265,-0.958,14.035,-3.497,-11.73,1.15,14.035,3.928,-11.73,1.15,14.236,-3.883,5.865,-70.381,-11.73
5.2700000000000005,-0.719,13.987,-3.449,-11.73,0.862,13.843,3.88,-11.73,0.863,14.092,-3.883,5.865,-64.516,-11.73
5.275,-0.479,13.891,-3.401,-11.73,0.623,13.652,3.832,-5.865,0.719,13.949,-3.739,5.865,-64.516,-11.73
5.28,-0.335,13.556,-3.305,-11.73,0.479,13.268,3.736,-5.865,0.575,13.661,-3.739,5.865,-64.516,-11.73
5.285,-0.24,13.268,-3.257,-11.73,0.335,12.885,3.688,-11.73,0.431,13.23,-3.595,5.865,-58.651,-11.73
5.29,-0.048,12.837,-3.066,-5.865,0.096,12.55,3.545,-5.865,0.288,12.942,-3.595,0.0,-58.651,-11.73
5.295,0.0,12.502,-3.114,-5.865,0.144,12.119,3.545,-5.865,0.144,12.511,-3.595,-5.865,-52.786,-5.865
5.3,0.096,12.358,-2.73,-5.865,0.096,11.64,3.161,-5.865,0.0,12.367,-2.876,-5.865,-52.786,-5.865
5.305,0.048,12.31,-2.203,-5.865,0.24,11.64,2.73,0.0,0.288,12.223,-2.732,-11.73,-52.786,0.0
5.3100000000000005,-0.096,12.023,-2.539,-0.0,-0.096,11.64,2.97,0.0,0.144,12.079,-3.02,-17.595,-52.786,0.0
5.315,0.096,12.023,-2.491,-0.0,-0.383,11.64,2.922,0.0,-0.288,12.079,-2.876,-23.46,-46.921,0.0
5.32,0.144,11.783,-2.587,-0.0,-0.623,11.304,3.161,0.0,-0.288,11.792,-3.02,-23.46,-41.056,0.0
5.325,0.335,11.448,-2.299,-0.0,-0.335,11.017,2.778,0.0,-0.288,11.36,-2.588,-29.326,-41.056,0.0
5.33,0.479,10.873,-1.772,-5.865,-0.048,10.682,2.203,-5.865,-0.288,10.929,-2.013,-29.326,-35.191,-5.865
5.335,0.671,10.299,-1.15,-11.73,0.048,10.346,1.629,-11.73,-0.288,10.354,-1.438,-35.191,-35.191,-11.73
5.34,0.671,9.772,-0.814,-11.73,0.144,9.915,1.293,-11.73,-0.288,9.922,-1.15,-35.191,-41.056,-11.73
5.345,0.766,9.436,-0.575,-11.73,0.0,9.628,1.054,-11.73,-0.431,9.635,-1.007,-35.191,-41.056,-11.73
5.3500000000000005,1.054,9.293,-0.383,-11.73,-0.335,9.341,0.91,-11.73,-0.719,9.491,-0.863,-35.191,-46.921,-11.73
5.355,1.102,8.909,-0.144,-11.73,-0.575,9.101,0.671,-11.73,-0.863,9.059,-0.575,-35.191,-52.786,-11.73
5.36,1.293,8.526,0.287,-11.73,-0.623,8.67,0.192,-11.73,-1.007,8.628,-0.0,-29.326,-52.786,-11.73
5.365,1.437,8.143,0.862,-11.73,-0.766,8.287,-0.383,-11.73,-1.15,8.34,0.719,-29.326,-58.651,-11.73
5.37,1.293,7.616,1.772,-11.73,-1.437,9.053,-1.389,-5.865,-1.438,8.484,2.013,-29.326,-58.651,-11.73
5.375,2.156,6.946,4.598,-11.73,-1.533,9.82,-3.928,-11.73,-1.869,8.484,4.17,-17.595,-64.516,-11.73
5.38,2.012,7.904,4.598,-17.595,-0.144,8.766,-4.024,-23.46,-0.863,8.484,4.17,-5.865,-64.516,-23.46
5.385,1.389,8.478,4.311,-29.326,0.527,8.095,-3.784,-29.326,-0.575,8.484,3.883,5.865,-76.246,-35.191
5.39,1.677,8.814,4.407,-29.326,0.144,7.856,-3.784,-29.326,-1.007,8.484,4.026,5.865,-87.977,-29.326
5.3950000000000005,2.06,8.766,4.503,-23.46,-0.766,7.76,-3.928,-23.46,-1.582,8.484,4.17,0.0,-99.707,-23.46
5.4,2.443,8.718,4.551,-17.595,-1.245,7.568,-3.928,-17.595,-2.013,8.34,4.17,-5.865,-105.572,-17.595
5.405,2.347,8.766,4.407,-23.46,-1.245,7.377,-3.736,-29.326,-1.869,8.197,3.883,-17.595,-117.302,-29.326
5.41,2.251,8.766,4.167,-35.191,-0.958,7.089,-3.497,-41.056,-1.582,8.197,3.739,-23.46,-123.167,-41.056
5.415,2.108,8.718,4.024,-41.056,-0.766,6.85,-3.305,-46.921,-1.582,7.909,3.595,-35.191,-129.032,-46.921
5.42,2.108,8.287,3.88,-46.921,-0.862,6.562,-3.114,-46.921,-1.582,7.621,3.307,-46.921,-140.762,-52.786
5.425,2.491,8.047,3.593,-52.786,-1.102,6.323,-2.73,-52.786,-1.869,7.334,3.02,-58.651,-146.628,-58.651
5.43,1.868,7.616,2.97,-52.786,-0.958,6.035,-2.06,-58.651,-1.438,7.046,2.157,-70.381,-158.358,-58.651
5.4350000000000005,2.06,7.52,2.156,-58.651,-1.006,5.94,-1.15,-64.516,-1.869,6.902,1.438,-76.246,-164.223,-64.516
5.44,1.82,7.185,1.102,-64.516,-1.485,5.844,0.0,-64.516,-1.726,6.615,0.144,-87.977,-170.088,-64.516
5.445,1.629,6.371,-0.144,-58.651,-1.581,5.7,1.198,-64.516,-1.582,6.183,-1.15,-99.707,-175.953,-64.516
5.45,2.108,5.365,-1.437,-64.516,-2.108,5.317,2.491,-64.516,-2.157,5.321,-2.445,-99.707,-181.818,-70.381
5.455,1.677,4.455,-2.97,-64.516,-2.299,5.125,4.072,-70.381,-2.013,4.745,-4.17,-99.707,-175.953,-70.381
5.46,1.82,3.497,-4.742,-64.516,-2.491,4.982,5.844,-70.381,-2.157,4.17,-6.04,-99.707,-175.953,-70.381
5.465,1.533,2.682,-6.802,-64.516,-2.635,4.79,7.904,-70.381,-2.013,3.739,-8.197,-87.977,-170.088,-70.381
5.47,1.293,1.916,-9.245,-58.651,-2.97,4.455,10.251,-64.516,-2.157,3.164,-10.641,-70.381,-164.223,-64.516
5.4750000000000005,1.15,1.581,-11.783,-52.786,-3.64,4.119,12.694,-52.786,-2.445,2.876,-13.086,-52.786,-152.493,-52.786
5.48,1.629,1.629,-14.226,-41.056,-4.551,3.88,14.993,-41.056,-3.02,3.02,-15.387,-41.056,-140.762,-41.056
5.485,1.581,2.06,-16.43,-29.326,-5.365,3.928,17.005,-29.326,-3.451,3.02,-17.4,-23.46,-117.302,-23.46
5.49,1.724,2.156,-18.346,-17.595,-6.131,3.976,18.873,-17.595,-3.739,3.307,-19.413,-11.73,-93.842,-17.595
5.495,1.82,2.73,-19.926,-11.73,-6.61,4.167,20.358,-5.865,-4.026,3.739,-20.707,0.0,-58.651,-5.865
5.5,1.293,3.593,-20.501,-5.865,-7.472,3.928,21.316,-5.865,-4.026,4.026,-20.995,5.865,-29.326,0.0
5.505,1.245,3.688,-21.507,5.865,-6.946,3.976,21.363,5.865,-3.595,4.17,-21.426,17.595,5.865,5.865
5.51,1.437,4.263,-20.453,11.73,-5.461,4.934,20.789,17.595,-3.164,5.033,-20.563,23.46,46.921,17.595
5.515,1.245,4.886,-19.064,17.595,-5.269,5.604,19.4,17.595,-2.876,5.608,-19.269,23.46,76.246,17.595
5.5200000000000005,0.671,5.269,-18.058,23.46,-4.407,6.227,18.537,23.46,-2.157,6.04,-18.263,29.326,105.572,23.46
5.525,0.527,6.323,-16.909,29.326,-3.449,6.419,17.484,35.191,-1.726,6.759,-17.112,29.326,134.897,29.326
5.53,0.479,6.946,-15.472,29.326,-2.922,6.898,16.094,35.191,-1.438,7.334,-15.53,35.191,158.358,35.191
5.535,0.287,7.377,-13.604,35.191,-2.203,7.377,14.226,41.056,-0.863,7.765,-13.661,35.191,175.953,35.191
5.54,0.0,7.664,-11.496,35.191,-1.245,7.425,12.167,35.191,-0.288,7.765,-11.504,29.326,193.548,35.191
5.545,-0.287,7.472,-9.293,35.191,-0.431,7.568,10.011,35.191,0.144,7.765,-9.347,29.326,205.279,35.191
5.55,-0.287,7.329,-6.706,35.191,0.0,7.856,7.472,41.056,0.288,7.909,-6.615,29.326,211.144,35.191
5.555,-0.048,7.281,-3.832,35.191,0.671,8.191,4.646,35.191,0.575,7.909,-3.739,29.326,217.009,29.326
5.5600000000000005,-0.144,7.041,-1.15,29.326,1.341,8.335,2.012,35.191,0.863,7.765,-1.15,35.191,211.144,29.326
5.565,-0.144,7.185,1.245,29.326,1.868,8.383,-0.335,35.191,0.863,7.909,1.15,46.921,205.279,29.326
5.57,0.335,7.472,3.257,35.191,2.012,8.718,-2.395,35.191,0.719,8.34,3.164,52.786,199.413,35.191
5.575,0.335,7.999,5.125,35.191,2.395,8.766,-4.311,41.056,1.007,8.628,5.033,64.516,181.818,41.056
5.58,0.623,8.766,6.467,41.056,2.203,9.245,-5.7,46.921,0.575,9.347,6.183,70.381,164.223,41.056
5.585,1.054,9.82,7.377,41.056,1.868,9.58,-6.706,41.056,0.288,10.066,7.046,76.246,146.628,41.056
5.59,0.958,10.73,7.904,41.056,2.012,10.155,-7.233,46.921,0.431,10.785,7.478,76.246,123.167,41.056
5.595,1.293,12.071,8.143,46.921,2.012,10.442,-7.52,46.921,0.0,11.648,7.909,70.381,105.572,46.921
5.6000000000000005,1.82,12.981,8.143,41.056,1.629,10.634,-7.568,41.056,-0.288,12.223,7.765,58.651,82.111,41.056
5.605,1.629,13.508,7.76,35.191,1.485,10.586,-7.233,35.191,-0.144,12.367,7.334,46.921,58.651,35.191
5.61,1.868,13.795,7.281,29.326,1.485,10.155,-6.754,23.46,-0.431,12.223,6.902,23.46,41.056,23.46
5.615,2.251,13.795,6.754,17.595,1.102,9.867,-6.227,17.595,-0.719,12.079,6.327,0.0,17.595,11.73
5.62,1.772,13.316,5.988,5.865,0.91,9.628,-5.461,5.865,-0.431,11.648,5.464,-29.326,-5.865,5.865
5.625,1.724,12.837,5.317,-0.0,0.862,9.436,-4.742,0.0,-0.575,11.36,4.745,-52.786,-23.46,0.0
5.63,1.868,12.502,4.551,-5.865,0.814,9.293,-3.832,-5.865,-0.575,11.216,3.883,-76.246,-41.056,-5.865
5.635,1.389,11.783,3.545,-11.73,0.719,9.82,-2.778,-11.73,-0.288,11.073,2.732,-99.707,-58.651,-17.595
5.64,0.958,10.873,2.395,-17.595,0.719,10.346,-1.533,-17.595,-0.144,10.785,1.582,-111.437,-70.381,-23.46
5.6450000000000005,0.671,9.963,1.198,-23.46,0.527,10.778,-0.383,-17.595,-0.144,10.497,0.288,-117.302,-82.111,-23.46
5.65,0.575,9.149,-0.144,-17.595,0.144,11.065,0.958,-17.595,-0.288,10.21,-1.15,-117.302,-93.842,-23.46
5.655,0.383,8.526,-1.772,-17.595,-0.192,11.257,2.539,-17.595,-0.288,9.922,-2.732,-105.572,-93.842,-17.595
5.66,0.192,8.239,-3.545,-11.73,-0.383,11.209,4.311,-11.73,-0.288,9.778,-4.602,-87.977,-93.842,-11.73
5.665,0.048,8.383,-5.317,-5.865,-0.623,11.161,6.035,-5.865,-0.288,9.922,-6.327,-64.516,-93.842,0.0
5.67,0.096,9.053,-6.946,5.865,-0.91,11.352,7.568,5.865,-0.431,10.497,-7.765,-46.921,-87.977,11.73
5.675,0.192,9.82,-7.999,17.595,-1.437,11.831,8.526,17.595,-0.719,11.073,-8.772,-29.326,-82.111,17.595
5.68,0.383,10.538,-8.814,23.46,-1.629,12.023,9.341,23.46,-0.863,11.504,-9.491,-17.595,-70.381,23.46
5.6850000000000005,0.575,11.209,-9.484,17.595,-1.772,12.023,9.915,17.595,-1.007,11.935,-10.066,-11.73,-58.651,17.595
5.69,0.383,11.64,-9.82,17.595,-1.341,11.831,10.299,17.595,-0.719,11.935,-10.354,-5.865,-46.921,11.73
5.695,0.287,11.879,-9.915,11.73,-0.91,11.64,10.346,17.595,-0.431,12.079,-10.354,-5.865,-35.191,11.73
5.7,0.287,11.975,-9.724,11.73,-0.814,11.64,10.107,17.595,-0.431,12.079,-10.066,-5.865,-29.326,11.73
5.705,0.335,11.831,-9.341,11.73,-0.862,11.64,9.724,17.595,-0.431,11.935,-9.635,-11.73,-23.46,11.73
5.71,0.335,11.64,-8.957,11.73,-0.91,11.544,9.341,17.595,-0.575,11.792,-9.203,-11.73,-17.595,11.73
5.715,0.527,11.4,-8.574,11.73,-0.719,11.352,9.005,11.73,-0.431,11.648,-8.916,-17.595,-11.73,11.73
5.72,0.048,11.448,-8.239,11.73,-0.766,11.257,8.622,11.73,-0.431,11.648,-8.628,-17.595,-5.865,11.73
5.7250000000000005,0.383,11.688,-7.904,11.73,-0.671,11.017,8.287,11.73,-0.144,11.648,-8.197,-17.595,0.0,11.73
5.73,0.383,11.544,-7.233,11.73,-0.527,11.257,7.664,11.73,-0.431,11.648,-7.478,-23.46,5.865,11.73
5.735,0.24,11.304,-6.467,11.73,-0.575,11.161,6.85,11.73,-0.144,11.36,-6.615,-29.326,11.73,11.73
5.74,0.383,10.873,-5.604,11.73,-0.192,11.113,5.988,11.73,-0.288,11.216,-5.752,-29.326,17.595,11.73
5.745,0.383,10.586,-4.694,5.865,-0.144,11.017,5.077,11.73,-0.144,10.929,-4.889,-29.326,17.595,11.73
5.75,0.335,10.203,-3.976,11.73,0.096,10.825,4.407,11.73,0.0,10.641,-4.314,-29.326,17.595,11.73
5.755,0.335,9.772,-3.353,11.73,0.096,10.442,3.784,11.73,-0.144,10.21,-3.595,-29.326,17.595,11.73
5.76,0.527,9.676,-2.682,17.595,-0.048,10.299,3.161,17.595,-0.431,10.354,-2.876,-23.46,17.595,17.595
5.765,1.533,11.783,-1.581,23.46,-0.335,11.017,2.012,23.46,-1.007,12.079,-1.726,-17.595,17.595,23.46
5.7700000000000005,1.006,12.598,-1.006,23.46,0.0,12.071,1.485,29.326,-0.144,12.223,-1.438,-23.46,5.865,23.46
5.775,0.431,11.161,-0.719,23.46,0.048,11.4,1.15,23.46,-0.288,11.216,-1.007,-29.326,5.865,17.595
5.78,1.437,11.017,-0.048,5.865,-0.623,11.065,0.479,5.865,-1.15,11.36,-0.288,-29.326,0.0,0.0
5.785,1.629,11.544,0.24,-5.865,-1.006,11.688,0.24,-5.865,-0.575,12.223,0.144,-29.326,0.0,-11.73
5.79,0.431,10.634,0.24,-17.595,-1.82,10.586,0.24,-17.595,-1.15,10.641,-0.431,-23.46,-5.865,-23.46
5.795,1.389,9.388,-0.814,-17.595,-0.048,10.538,1.341,-17.595,-0.575,10.21,-1.294,-17.595,-5.865,-17.595
5.8,0.91,9.915,-0.671,-11.73,-0.383,10.299,1.15,-5.865,-0.575,10.497,-1.15,-17.595,-5.865,-11.73
5.805,1.15,10.251,-1.102,-5.865,-0.862,11.592,1.533,-5.865,-1.007,11.36,-1.582,-11.73,-11.73,-5.865
5.8100000000000005,1.198,11.304,-1.245,-0.0,-1.437,12.31,1.629,0.0,-1.294,12.223,-1.726,-5.865,-11.73,0.0
5.815,1.485,12.119,-1.724,-0.0,-0.766,13.22,2.203,0.0,-1.15,12.942,-2.157,5.865,-11.73,0.0
5.82,1.389,12.981,-1.868,-5.865,-0.91,13.412,2.299,0.0,-1.007,13.517,-2.445,5.865,-11.73,-5.865
5.825,1.437,13.46,-2.108,-5.865,-0.814,13.987,2.539,-5.865,-1.15,13.949,-2.588,17.595,-11.73,-5.865
5.83,1.437,13.843,-2.251,-5.865,-1.15,14.418,2.682,-5.865,-1.15,14.38,-2.732,17.595,-11.73,-11.73
5.835,1.533,14.083,-2.347,-11.73,-1.102,14.657,2.778,-11.73,-1.294,14.524,-2.732,23.46,-11.73,-17.595
5.84,1.389,14.274,-2.395,-23.46,-1.006,14.849,2.826,-23.46,-1.15,14.811,-2.732,29.326,-11.73,-23.46
5.845,1.341,14.274,-2.395,-29.326,-0.91,15.041,2.778,-29.326,-1.007,14.811,-2.876,29.326,-11.73,-35.191
5.8500000000000005,1.245,14.083,-2.443,-41.056,-1.006,15.136,2.826,-41.056,-1.007,14.668,-2.876,35.191,-11.73,-46.921
5.855,1.245,13.939,-2.443,-46.921,-0.862,14.753,2.874,-46.921,-0.863,14.38,-2.876,41.056,-11.73,-52.786
5.86,1.245,13.604,-2.395,-52.786,-0.623,14.083,2.826,-58.651,-0.719,13.805,-2.876,46.921,-11.73,-58.651
5.865,0.814,12.837,-2.443,-58.651,-0.335,13.46,2.874,-58.651,-0.431,13.23,-2.876,52.786,-11.73,-64.516
5.87,0.862,12.262,-2.299,-58.651,-0.287,12.694,2.73,-58.651,-0.575,12.511,-2.588,58.651,-11.73,-58.651
5.875,1.006,11.64,-1.964,-58.651,-0.431,12.167,2.395,-58.651,-0.719,11.935,-2.301,58.651,-11.73,-64.516
5.88,0.862,10.921,-1.82,-64.516,-0.479,11.592,2.299,-64.516,-0.575,11.216,-2.301,64.516,-11.73,-70.381
5.885,0.719,10.251,-1.772,-70.381,-0.24,10.825,2.251,-70.381,-0.431,10.641,-2.157,64.516,-17.595,-70.381
5.89,0.623,9.676,-1.629,-70.381,-0.144,10.011,2.156,-76.246,-0.288,9.922,-2.157,70.381,-17.595,-76.246
5.8950000000000005,0.575,9.005,-1.581,-76.246,0.0,9.293,2.06,-76.246,-0.288,9.203,-2.013,76.246,-17.595,-76.246
5.9,0.527,8.43,-1.341,-76.246,0.096,8.67,1.868,-76.246,-0.144,8.628,-1.726,76.246,-17.595,-82.111
5.905,0.479,7.808,-1.198,-76.246,0.096,8.191,1.772,-82.111,-0.288,8.053,-1.582,76.246,-23.46,-82.111
5.91,0.479,7.233,-1.006,-82.111,0.048,7.664,1.581,-82.111,-0.144,7.478,-1.438,82.111,-23.46,-82.111
5.915,0.287,6.706,-1.006,-82.111,0.24,7.041,1.581,-82.111,0.0,6.902,-1.582,82.111,-23.46,-82.111
5.92,0.192,6.131,-1.102,-82.111,0.383,6.323,1.724,-82.111,0.144,6.327,-1.582,87.977,-29.326,-82.111
5.925,0.144,5.556,-1.102,-76.246,0.287,5.604,1.724,-82.111,0.0,5.752,-1.582,87.977,-29.326,-82.111
5.93,0.335,5.03,-1.054,-76.246,0.144,4.934,1.677,-76.246,-0.144,5.033,-1.582,87.977,-29.326,-76.246
5.9350000000000005,0.24,4.455,-1.245,-76.246,0.096,4.263,1.82,-76.246,0.0,4.458,-1.726,87.977,-35.191,-76.246
5.94,0.192,4.024,-1.389,-70.381,0.192,3.593,2.012,-70.381,0.0,3.883,-1.869,87.977,-35.191,-70.381
5.945,0.24,3.64,-1.389,-64.516,0.24,3.066,2.06,-70.381,0.0,3.451,-2.013,82.111,-35.191,-70.381
5.95,0.287,3.066,-1.389,-64.516,0.096,2.635,2.06,-64.516,-0.144,2.876,-1.869,82.111,-41.056,-64.516
5.955,0.431,2.491,-1.341,-58.651,-0.048,2.108,1.964,-58.651,-0.288,2.445,-1.869,76.246,-41.056,-58.651
5.96,0.527,1.964,-1.389,-52.786,-0.096,1.581,2.06,-52.786,-0.431,1.869,-2.013,76.246,-41.056,-52.786
5.965,0.575,1.341,-1.485,-46.921,-0.144,0.91,2.156,-46.921,-0.431,1.15,-2.157,70.381,-46.921,-52.786
5.97,0.623,0.719,-1.629,-41.056,-0.24,0.144,2.347,-46.921,-0.575,0.431,-2.301,70.381,-52.786,-46.921
5.9750000000000005,0.719,0.144,-1.82,-35.191,-0.383,-0.623,2.491,-35.191,-0.575,-0.288,-2.445,64.516,-52.786,-41.056
5.98,0.719,-0.383,-2.06,-29.326,-0.479,-1.245,2.778,-29.326,-0.719,-0.719,-2.732,58.651,-58.651,-23.46
5.985,0.671,-0.671,-2.491,-17.595,-0.575,-1.629,3.209,-17.595,-0.719,-1.007,-3.164,52.786,-58.651,-17.595
5.99,0.383,-0.527,-2.826,-11.73,-1.245,-2.347,3.545,-11.73,-0.863,-1.294,-3.451,46.921,-64.516,-5.865
5.995,0.766,-0.862,-3.449,-0.0,-0.671,-1.724,4.072,0.0,-0.863,-1.294,-4.026,41.056,-64.516,5.865
6.0,0.335,-1.054,-3.545,11.73,-1.006,-1.82,4.167,17.595,-0.719,-1.294,-4.17,29.326,-64.516,17.595
6.005,0.575,-0.814,-3.593,29.326,-0.91,-1.437,4.263,29.326,-0.863,-0.863,-4.17,23.46,-58.651,29.326
