time_aligned_sec,L_Acc_X_aligned,L_Acc_Y_aligned,L_Acc_Z_aligned,L_Gyro_Z_aligned,R_Acc_X_aligned,R_Acc_Y_aligned,R_Acc_Z_aligned,R_Gyro_Z_aligned,T_Acc_X_aligned,T_Acc_Y_aligned,T_Acc_Z_aligned,T_Gyro_X_aligned,T_Gyro_Y_aligned,T_Gyro_Z_aligned
0.0,-1.964,4.215,-8.143,-0.0,1.964,4.646,8.526,5.865,2.013,4.889,-8.628,35.191,11.73,0.0
0.005,-1.868,4.311,-8.047,5.865,1.916,4.694,8.43,5.865,2.013,4.889,-8.484,41.056,11.73,0.0
0.01,-1.868,4.407,-8.047,5.865,1.868,4.742,8.43,5.865,2.013,4.889,-8.484,41.056,11.73,5.865
0.015,-1.868,4.598,-8.047,5.865,1.916,4.838,8.43,5.865,2.013,4.889,-8.484,41.056,11.73,5.865
0.02,-1.772,4.79,-8.047,-0.0,1.916,4.982,8.43,5.865,2.157,4.889,-8.484,41.056,11.73,5.865
0.025,-1.772,4.934,-8.047,5.865,1.868,5.125,8.43,5.865,2.013,5.033,-8.484,41.056,11.73,0.0
0.03,-1.772,4.886,-8.047,5.865,1.868,5.221,8.383,5.865,2.013,5.177,-8.484,41.056,11.73,0.0
0.035,-1.772,4.886,-8.047,-0.0,1.82,5.269,8.383,0.0,2.013,5.321,-8.484,41.056,5.865,5.865
0.04,-1.629,4.934,-8.047,-0.0,1.677,5.269,8.383,5.865,1.869,5.321,-8.484,41.056,5.865,0.0
0.045,-1.629,5.03,-8.095,-0.0,1.629,5.269,8.383,0.0,1.726,5.177,-8.484,41.056,5.865,0.0
0.05,-1.629,5.03,-8.191,-0.0,1.629,5.269,8.478,0.0,1.726,5.177,-8.628,41.056,5.865,0.0
0.055,-1.629,5.077,-8.287,-0.0,1.581,5.269,8.622,0.0,1.726,5.177,-8.628,41.056,5.865,0.0
0.06,-1.581,5.03,-8.383,-0.0,1.581,5.269,8.67,0.0,1.582,5.177,-8.772,41.056,5.865,0.0
0.065,-1.677,4.934,-8.43,-5.865,1.581,5.221,8.766,0.0,1.582,5.177,-8.916,41.056,5.865,-5.865
0.07,-1.629,4.838,-8.478,-5.865,1.581,5.221,8.766,-5.865,1.582,5.177,-8.916,41.056,5.865,-5.865
0.075,-1.677,4.742,-8.43,-5.865,1.629,5.173,8.814,-5.865,1.726,5.177,-8.916,41.056,5.865,-5.865
0.08,-1.724,4.646,-8.383,-5.865,1.629,5.125,8.766,-5.865,1.582,5.177,-8.916,41.056,5.865,-5.865
0.085,-1.677,4.455,-8.383,-0.0,1.629,5.03,8.718,-5.865,1.582,5.177,-8.916,41.056,5.865,-5.865
0.09,-1.724,4.263,-8.335,-0.0,1.629,4.934,8.766,-5.865,1.726,5.177,-8.772,41.056,11.73,-5.865
0.095,-1.677,4.311,-8.335,-0.0,1.581,4.886,8.67,0.0,1.438,5.177,-8.772,46.921,11.73,0.0
0.1,-1.772,4.359,-8.383,-0.0,1.677,4.886,8.718,0.0,1.582,5.177,-8.772,52.786,11.73,0.0
0.105,-1.724,4.503,-8.43,5.865,1.677,4.934,8.766,5.865,1.582,5.177,-8.916,52.786,17.595,0.0
0.11,-1.772,4.646,-8.478,5.865,1.677,5.03,8.814,5.865,1.582,5.177,-8.916,58.651,17.595,5.865
0.115,-1.724,4.838,-8.478,5.865,1.629,5.221,8.814,11.73,1.582,5.321,-8.916,64.516,17.595,5.865
0.12,-1.724,5.03,-8.574,11.73,1.533,5.317,8.862,11.73,1.438,5.464,-9.059,64.516,23.46,11.73
0.125,-1.82,5.221,-8.526,11.73,1.629,5.413,8.909,11.73,1.582,5.464,-9.059,70.381,23.46,11.73
0.13,-1.724,5.413,-8.622,11.73,1.677,5.556,8.909,11.73,1.582,5.464,-9.059,70.381,23.46,11.73
0.135,-1.772,5.413,-8.478,11.73,1.724,5.556,8.909,11.73,1.726,5.321,-9.059,64.516,29.326,11.73
0.14,-1.724,5.7,-8.383,11.73,1.629,5.748,8.814,11.73,1.582,5.464,-8.916,64.516,29.326,11.73
0.145,-1.868,5.7,-8.287,11.73,1.724,5.844,8.67,11.73,1.726,5.608,-8.772,64.516,35.191,5.865
0.15,-1.724,5.7,-8.287,11.73,1.772,5.892,8.622,11.73,1.726,5.752,-8.772,58.651,35.191,11.73
0.155,-1.724,5.796,-8.191,11.73,1.629,5.892,8.574,11.73,1.726,5.752,-8.772,58.651,35.191,11.73
0.16,-1.82,5.748,-8.095,5.865,1.724,5.94,8.478,5.865,1.726,5.752,-8.628,52.786,35.191,5.865
0.165,-1.724,5.652,-8.095,5.865,1.677,5.94,8.43,5.865,1.726,5.752,-8.484,52.786,35.191,5.865
0.17,-1.82,5.604,-7.999,5.865,1.724,5.892,8.383,5.865,1.726,5.896,-8.484,52.786,35.191,5.865
0.17500000000000002,-1.82,5.461,-7.856,5.865,1.772,5.844,8.287,5.865,1.726,5.896,-8.34,46.921,35.191,5.865
0.18,-1.772,5.317,-7.808,5.865,1.724,5.796,8.191,5.865,1.726,5.896,-8.34,46.921,41.056,5.865
0.185,-1.772,5.221,-7.76,5.865,1.677,5.7,8.143,5.865,1.726,5.752,-8.34,46.921,41.056,5.865
0.19,-1.724,5.269,-7.712,5.865,1.677,5.652,8.095,5.865,1.582,5.752,-8.197,46.921,41.056,5.865
0.195,-1.772,5.365,-7.712,5.865,1.677,5.652,8.047,5.865,1.726,5.752,-8.197,52.786,41.056,5.865
0.2,-1.82,5.556,-7.664,5.865,1.772,5.796,8.047,5.865,1.726,5.752,-8.197,52.786,41.056,5.865
0.20500000000000002,-1.82,5.796,-7.616,5.865,1.772,5.988,7.999,11.73,1.726,5.896,-8.197,52.786,46.921,5.865
0.21,-1.868,5.988,-7.425,11.73,1.82,6.227,7.904,11.73,1.869,6.183,-8.053,52.786,46.921,11.73
0.215,-1.868,6.179,-7.281,11.73,1.772,6.467,7.712,11.73,1.869,6.471,-7.909,52.786,46.921,11.73
0.22,-1.916,6.371,-7.041,11.73,1.82,6.706,7.472,11.73,1.869,6.759,-7.621,52.786,46.921,11.73
0.225,-1.916,6.754,-6.706,5.865,1.916,7.041,7.233,11.73,2.013,7.046,-7.478,58.651,46.921,5.865
0.23,-1.964,7.089,-6.323,5.865,1.916,7.425,6.85,5.865,2.013,7.478,-7.19,58.651,46.921,5.865
0.23500000000000001,-1.964,7.377,-5.892,5.865,1.964,7.808,6.419,5.865,2.157,8.053,-6.759,64.516,46.921,5.865
0.24,-2.06,7.616,-5.317,-0.0,2.012,8.191,5.94,5.865,2.157,8.484,-6.183,64.516,46.921,5.865
0.245,-2.156,7.904,-4.646,-5.865,2.108,8.574,5.317,0.0,2.301,9.059,-5.608,70.381,46.921,0.0
0.25,-2.203,8.287,-3.88,-5.865,2.203,9.053,4.598,-5.865,2.301,9.635,-5.033,76.246,46.921,-5.865
0.255,-2.251,8.67,-2.97,-11.73,2.347,9.484,3.736,-5.865,2.588,10.21,-4.17,87.977,46.921,-5.865
0.26,-2.156,8.909,-1.916,-17.595,2.347,9.82,2.73,-11.73,2.732,10.641,-3.307,99.707,41.056,-11.73
0.265,-1.964,9.101,-0.862,-17.595,2.347,10.011,1.724,-17.595,2.876,10.785,-2.157,105.572,41.056,-17.595
0.27,-1.868,9.341,0.335,-23.46,2.395,10.107,0.575,-17.595,3.164,10.929,-1.007,117.302,35.191,-23.46
0.275,-1.724,9.388,1.341,-23.46,2.443,10.155,-0.527,-23.46,3.307,10.785,0.144,129.032,29.326,-23.46
0.28,-1.581,9.388,2.108,-29.326,2.443,10.107,-1.437,-29.326,3.595,10.785,1.007,140.762,23.46,-29.326
0.28500000000000003,-1.581,9.676,2.778,-29.326,2.539,10.155,-2.156,-29.326,3.883,10.785,1.869,146.628,5.865,-29.326
0.29,-1.533,10.107,3.066,-29.326,2.587,10.299,-2.682,-35.191,4.026,10.641,2.445,152.493,-5.865,-35.191
0.295,-1.437,10.586,3.066,-35.191,2.587,10.49,-2.826,-35.191,4.026,10.497,2.732,158.358,-23.46,-35.191
0.3,-1.485,11.161,2.778,-35.191,2.587,10.682,-2.635,-35.191,4.17,10.354,2.588,164.223,-41.056,-41.056
0.305,-1.581,11.64,2.299,-41.056,2.587,10.873,-2.251,-41.056,4.17,10.066,2.301,158.358,-58.651,-41.056
0.31,-1.677,11.975,1.629,-46.921,2.539,11.017,-1.629,-52.786,4.026,9.778,1.726,152.493,-76.246,-46.921
0.315,-1.677,12.167,0.958,-58.651,2.491,11.113,-0.958,-58.651,3.739,9.778,1.007,140.762,-93.842,-52.786
0.32,-1.82,12.071,0.383,-70.381,2.443,11.017,-0.335,-64.516,3.595,9.491,0.431,123.167,-111.437,-64.516
0.325,-1.964,11.736,-0.192,-82.111,2.539,10.73,0.287,-82.111,3.595,9.059,-0.288,99.707,-123.167,-76.246
0.33,-2.251,11.065,-0.719,-93.842,2.682,10.346,0.814,-87.977,3.595,8.628,-0.863,76.246,-140.762,-87.977
0.335,-2.587,10.203,-1.293,-105.572,3.018,9.772,1.389,-105.572,3.883,8.34,-1.438,58.651,-152.493,-99.707
0.34,-2.874,9.245,-1.916,-111.437,3.257,9.101,1.964,-111.437,4.026,7.909,-2.013,35.191,-158.358,-111.437
0.34500000000000003,-3.114,8.43,-2.635,-117.302,3.497,8.526,2.682,-117.302,4.17,7.621,-2.732,17.595,-170.088,-117.302
0.35000000000000003,-3.305,7.52,-3.545,-117.302,3.593,7.904,3.497,-123.167,4.314,7.334,-3.595,5.865,-181.818,-123.167
0.355,-3.497,6.61,-4.598,-117.302,3.688,7.329,4.551,-123.167,4.17,7.19,-4.458,-5.865,-187.683,-123.167
0.36,-3.593,5.94,-5.748,-117.302,3.688,6.802,5.652,-123.167,4.026,6.902,-5.608,-5.865,-193.548,-123.167
0.365,-3.688,5.317,-7.185,-117.302,3.688,6.323,6.946,-123.167,3.883,6.615,-6.902,-5.865,-199.413,-123.167
0.37,-3.784,4.886,-8.766,-111.437,3.64,5.844,8.478,-117.302,3.739,6.327,-8.34,0.0,-199.413,-117.302
0.375,-3.784,4.598,-10.394,-105.572,3.593,5.509,10.107,-117.302,3.451,5.896,-9.922,5.865,-199.413,-117.302
0.38,-3.736,4.407,-12.119,-99.707,3.353,5.221,11.783,-111.437,3.02,5.464,-11.648,5.865,-193.548,-111.437
0.385,-3.688,4.215,-13.843,-87.977,3.066,4.934,13.508,-99.707,2.588,5.177,-13.373,17.595,-187.683,-99.707
0.39,-3.593,4.167,-15.472,-82.111,2.826,4.742,15.232,-87.977,2.013,4.745,-14.955,23.46,-175.953,-93.842
0.395,-3.449,4.072,-16.957,-70.381,2.539,4.598,16.765,-82.111,1.582,4.458,-16.537,23.46,-164.223,-82.111
0.4,-3.209,3.976,-18.154,-64.516,2.203,4.455,18.058,-70.381,1.15,4.314,-17.975,29.326,-152.493,-70.381
0.405,-3.018,3.784,-19.112,-52.786,1.82,4.359,19.112,-58.651,0.575,4.17,-19.125,23.46,-134.897,-64.516
0.41000000000000003,-3.018,3.64,-19.735,-46.921,1.629,4.263,19.879,-52.786,0.144,4.17,-19.988,23.46,-117.302,-52.786
0.41500000000000004,-2.97,3.449,-20.022,-35.191,1.533,4.215,20.31,-46.921,-0.144,4.314,-20.563,23.46,-93.842,-46.921
0.42,-2.874,3.401,-19.926,-29.326,1.485,3.976,20.501,-35.191,-0.144,4.17,-20.707,29.326,-70.381,-41.056
0.425,-2.874,3.305,-19.591,-23.46,1.389,3.928,20.166,-29.326,-0.144,3.883,-20.42,29.326,-41.056,-35.191
0.43,-2.587,3.593,-19.256,-23.46,1.341,3.976,19.879,-23.46,-0.431,4.026,-20.132,29.326,-17.595,-23.46
0.435,-2.443,3.832,-18.681,-17.595,1.15,4.119,19.4,-17.595,-0.288,3.883,-19.844,29.326,5.865,-23.46
0.44,-2.635,4.072,-17.963,-11.73,1.437,4.072,18.777,-11.73,0.0,3.739,-19.125,29.326,29.326,-17.595
0.445,-2.922,4.167,-17.436,-0.0,1.916,4.167,18.154,-5.865,0.575,3.451,-18.55,29.326,52.786,-11.73
0.45,-2.635,4.167,-16.813,11.73,1.724,4.215,17.579,11.73,0.575,3.451,-17.975,23.46,70.381,5.865
0.455,-2.395,4.503,-15.807,23.46,1.437,4.455,16.765,23.46,0.431,3.883,-17.256,5.865,87.977,17.595
0.46,-2.347,4.455,-14.801,23.46,1.293,4.598,15.759,29.326,0.0,4.17,-16.249,5.865,105.572,23.46
0.465,-2.682,4.263,-13.699,23.46,1.677,4.646,14.705,29.326,0.431,4.314,-15.243,5.865,123.167,23.46
0.47000000000000003,-2.635,4.119,-12.55,29.326,1.964,4.598,13.652,29.326,1.007,4.458,-14.236,0.0,134.897,23.46
0.47500000000000003,-2.635,4.119,-11.257,29.326,2.06,4.646,12.406,29.326,1.438,4.602,-12.942,-5.865,152.493,29.326
0.48,-2.682,4.024,-9.915,35.191,2.251,4.694,11.065,35.191,1.726,4.889,-11.792,0.0,164.223,29.326
0.485,-2.635,4.072,-8.574,41.056,2.395,4.742,9.772,41.056,2.013,5.033,-10.497,0.0,170.088,35.191
0.49,-2.826,4.263,-7.089,46.921,2.587,4.886,8.335,46.921,2.301,5.177,-9.059,5.865,175.953,41.056
0.495,-2.874,4.646,-5.748,52.786,2.826,5.269,6.898,52.786,2.732,5.608,-7.621,5.865,181.818,46.921
0.5,-2.826,5.269,-4.407,58.651,2.874,5.844,5.556,58.651,2.876,6.327,-6.183,23.46,181.818,52.786
0.505,-2.97,6.035,-2.97,58.651,3.018,6.514,4.119,64.516,3.164,6.902,-4.889,29.326,187.683,58.651
0.51,-3.018,6.754,-1.485,58.651,3.209,7.185,2.682,64.516,3.451,7.621,-3.451,41.056,187.683,58.651
0.515,-3.018,7.281,0.096,58.651,3.401,7.76,1.15,64.516,3.883,8.053,-1.869,46.921,181.818,64.516
0.52,-2.874,7.664,1.724,58.651,3.497,8.191,-0.527,64.516,4.17,8.628,-0.288,58.651,175.953,58.651
0.525,-2.682,8.047,3.257,58.651,3.545,8.526,-2.156,64.516,4.458,8.916,1.582,64.516,170.088,58.651
0.53,-2.443,8.574,4.598,58.651,3.497,8.909,-3.64,58.651,4.745,9.203,3.164,70.381,158.358,58.651
0.535,-2.156,9.101,5.652,58.651,3.305,9.293,-4.886,58.651,4.602,9.491,4.458,76.246,146.628,58.651
0.54,-1.964,9.532,6.371,58.651,3.114,9.532,-5.796,58.651,4.602,9.635,5.608,82.111,129.032,52.786
0.545,-1.629,10.059,6.85,58.651,2.97,9.915,-6.419,58.651,4.458,9.778,6.183,87.977,117.302,52.786
0.55,-1.437,10.73,7.233,52.786,2.635,10.299,-6.898,52.786,4.314,9.922,6.759,87.977,99.707,52.786
0.555,-1.293,11.352,7.281,46.921,2.491,10.682,-7.137,52.786,4.17,10.066,7.046,87.977,76.246,52.786
0.56,-1.054,12.119,7.233,46.921,2.347,11.161,-7.089,46.921,4.026,10.354,7.19,82.111,58.651,46.921
0.5650000000000001,-0.814,12.789,7.137,35.191,2.156,11.736,-7.041,41.056,3.883,10.641,7.046,70.381,35.191,41.056
0.5700000000000001,-0.623,13.316,6.898,23.46,1.868,12.167,-6.898,29.326,3.595,10.929,7.046,58.651,17.595,35.191
0.5750000000000001,-0.575,13.699,6.514,5.865,1.772,12.406,-6.61,17.595,3.451,10.929,6.759,46.921,-5.865,17.595
0.58,-0.575,13.843,6.083,-5.865,1.772,12.406,-6.179,0.0,3.451,10.785,6.327,29.326,-29.326,5.865
0.585,-0.671,13.699,5.461,-17.595,1.772,12.31,-5.556,-11.73,3.595,10.354,5.896,5.865,-52.786,-11.73
0.59,-0.719,13.556,4.934,-35.191,1.82,12.119,-4.982,-29.326,3.451,10.21,5.177,-23.46,-70.381,-23.46
0.595,-0.814,13.125,4.311,-46.921,1.772,11.879,-4.359,-41.056,3.451,9.922,4.458,-46.921,-93.842,-35.191
0.6,-1.15,12.262,3.545,-58.651,1.964,11.496,-3.64,-58.651,3.307,9.778,3.739,-76.246,-111.437,-52.786
0.605,-1.533,11.209,2.635,-70.381,2.203,10.969,-2.73,-70.381,3.451,9.778,2.876,-99.707,-129.032,-64.516
0.61,-1.772,9.963,1.533,-82.111,2.395,10.299,-1.677,-82.111,3.451,9.635,1.726,-117.302,-152.493,-76.246
0.615,-2.156,8.622,0.144,-87.977,2.539,9.484,-0.335,-87.977,3.451,9.491,0.431,-134.897,-164.223,-87.977
0.62,-2.395,7.329,-1.724,-87.977,2.539,8.718,1.293,-93.842,3.164,9.347,-1.15,-134.897,-175.953,-87.977
0.625,-2.587,6.227,-3.736,-87.977,2.587,7.999,3.209,-87.977,2.876,9.059,-3.02,-134.897,-187.683,-93.842
0.63,-2.73,5.317,-5.892,-82.111,2.491,7.329,5.317,-87.977,2.445,8.916,-5.177,-123.167,-193.548,-87.977
0.635,-2.778,4.79,-8.239,-70.381,2.251,6.754,7.616,-76.246,1.869,8.484,-7.334,-105.572,-193.548,-82.111
0.64,-2.73,4.455,-10.49,-58.651,2.012,6.467,9.915,-70.381,1.294,8.197,-9.635,-82.111,-187.683,-70.381
0.645,-2.491,4.455,-12.646,-46.921,1.581,6.323,12.119,-58.651,0.719,8.197,-11.792,-58.651,-175.953,-64.516
0.65,-2.347,4.598,-14.418,-41.056,1.15,6.371,14.035,-46.921,-0.144,8.053,-13.805,-35.191,-164.223,-52.786
0.655,-2.251,4.982,-15.903,-29.326,0.91,6.323,15.663,-35.191,-0.575,7.765,-15.387,-11.73,-146.628,-41.056
0.66,-2.06,5.269,-17.005,-23.46,0.719,6.419,16.909,-29.326,-0.863,7.478,-16.825,5.865,-123.167,-23.46
0.665,-1.916,5.796,-17.723,-11.73,0.479,6.419,17.771,-17.595,-1.15,7.046,-17.831,29.326,-105.572,-23.46
0.67,-1.629,6.083,-18.202,-11.73,0.335,6.467,18.394,-11.73,-1.15,6.615,-18.406,41.056,-82.111,-11.73
0.675,-1.533,6.275,-18.346,-5.865,0.24,6.467,18.681,-11.73,-1.294,6.327,-18.838,52.786,-58.651,-11.73
0.68,-1.533,6.179,-18.25,-5.865,0.287,6.227,18.729,-5.865,-1.15,5.752,-18.982,52.786,-35.191,-5.865
0.685,-1.533,5.892,-17.915,-0.0,0.431,5.892,18.489,-5.865,-0.863,5.177,-18.838,46.921,-11.73,-5.865
0.6900000000000001,-1.485,5.556,-17.388,-0.0,0.431,5.604,18.058,0.0,-0.719,5.033,-18.406,41.056,5.865,0.0
0.6950000000000001,-1.437,5.173,-16.765,-0.0,0.431,5.317,17.436,0.0,-0.719,4.889,-17.831,29.326,23.46,0.0
0.7000000000000001,-1.677,4.694,-16.142,-0.0,0.623,4.886,16.861,0.0,-0.431,4.458,-17.112,23.46,41.056,0.0
0.705,-1.772,4.263,-15.568,5.865,0.814,4.503,16.286,5.865,-0.288,4.17,-16.537,5.865,58.651,0.0
0.71,-1.916,4.119,-14.849,5.865,0.958,4.311,15.663,5.865,-0.144,4.026,-15.962,5.865,70.381,5.865
0.715,-2.012,4.024,-13.987,11.73,1.054,4.263,14.849,11.73,0.0,4.026,-15.243,5.865,82.111,11.73
0.72,-2.203,3.928,-12.933,11.73,1.245,4.311,13.939,17.595,0.144,4.17,-14.38,0.0,99.707,11.73
0.725,-2.203,3.784,-11.592,17.595,1.485,4.359,12.741,17.595,0.431,4.458,-13.373,0.0,111.437,17.595
0.73,-2.347,3.688,-9.82,23.46,1.724,4.407,11.209,23.46,0.863,4.602,-11.935,0.0,129.032,17.595
0.735,-2.491,3.593,-7.999,29.326,2.06,4.503,9.388,29.326,1.438,5.033,-10.066,0.0,140.762,23.46
0.74,-2.443,3.593,-6.035,35.191,2.778,4.742,7.425,35.191,2.301,5.464,-8.34,5.865,146.628,29.326
0.745,-2.682,4.167,-4.407,46.921,2.73,5.03,5.7,41.056,2.445,5.608,-6.471,23.46,152.493,41.056
0.75,-2.395,4.934,-2.778,52.786,2.826,5.556,3.976,52.786,3.164,6.327,-4.745,35.191,152.493,46.921
0.755,-2.251,5.988,-1.341,52.786,2.826,6.323,2.491,52.786,3.307,6.759,-3.164,46.921,152.493,52.786
0.76,-2.251,6.946,-0.144,58.651,2.826,7.041,1.102,58.651,3.595,7.334,-1.582,52.786,152.493,58.651
0.765,-2.156,7.856,0.766,58.651,2.97,7.712,0.0,64.516,3.883,7.765,-0.431,64.516,140.762,58.651
0.77,-1.629,9.005,1.581,58.651,2.73,8.43,-0.91,64.516,4.026,8.053,0.575,70.381,129.032,64.516
0.775,-1.485,9.915,2.06,58.651,2.491,9.149,-1.533,64.516,3.739,8.34,1.438,70.381,117.302,58.651
0.78,-1.293,10.538,2.251,58.651,2.299,9.628,-1.916,58.651,3.739,8.628,1.869,64.516,99.707,58.651
0.785,-1.198,11.017,2.395,46.921,2.156,10.059,-2.108,52.786,3.595,8.916,2.013,52.786,87.977,52.786
0.79,-1.054,11.304,2.443,41.056,2.012,10.299,-2.203,46.921,3.451,9.059,2.157,41.056,70.381,46.921
0.795,-1.006,11.304,2.251,35.191,1.868,10.394,-2.156,35.191,3.164,9.059,2.301,23.46,52.786,35.191
0.8,-0.958,11.257,2.012,23.46,1.772,10.394,-1.916,29.326,3.02,9.059,2.013,5.865,35.191,29.326
0.805,-0.91,10.873,1.677,17.595,1.629,10.299,-1.677,23.46,2.876,9.059,1.726,-11.73,17.595,23.46
0.81,-0.91,10.203,1.198,11.73,1.437,9.963,-1.245,11.73,2.445,9.059,1.438,-29.326,5.865,11.73
0.8150000000000001,-0.958,9.676,0.671,-0.0,1.437,9.628,-0.671,5.865,2.301,9.059,0.863,-46.921,-5.865,5.865
0.8200000000000001,-1.006,9.293,0.096,-5.865,1.389,9.388,-0.144,0.0,2.157,9.059,0.288,-52.786,-17.595,0.0
0.8250000000000001,-1.102,8.67,-0.623,-5.865,1.437,9.149,0.527,-5.865,2.157,9.059,-0.431,-64.516,-29.326,-5.865
0.8300000000000001,-1.198,8.095,-1.341,-11.73,1.485,8.862,1.198,-5.865,2.157,9.203,-1.15,-64.516,-35.191,-5.865
0.835,-1.341,7.664,-2.251,-5.865,1.533,8.574,2.06,-11.73,2.013,9.059,-1.869,-64.516,-41.056,-11.73
0.84,-1.437,7.281,-3.449,-5.865,1.485,8.239,3.114,-11.73,1.869,8.916,-2.876,-58.651,-46.921,-11.73
0.845,-1.437,6.946,-4.694,-5.865,1.389,8.047,4.359,-5.865,1.582,8.916,-4.17,-52.786,-52.786,-5.865
0.85,-1.437,6.898,-5.844,-5.865,1.198,7.951,5.556,-5.865,1.15,8.916,-5.321,-41.056,-52.786,-5.865
0.855,-1.437,6.85,-6.898,-0.0,1.054,7.856,6.706,-5.865,0.719,8.772,-6.615,-29.326,-52.786,0.0
0.86,-1.437,6.898,-7.856,-0.0,0.958,7.712,7.76,0.0,0.431,8.484,-7.621,-17.595,-46.921,0.0
0.865,-1.437,6.946,-8.526,5.865,0.91,7.568,8.526,0.0,0.431,8.197,-8.484,-5.865,-41.056,0.0
0.87,-1.341,6.85,-8.957,5.865,0.814,7.472,9.101,5.865,0.431,7.909,-9.059,0.0,-35.191,5.865
0.875,-1.293,6.85,-9.197,5.865,0.719,7.329,9.436,5.865,0.288,7.621,-9.491,5.865,-29.326,5.865
0.88,-1.293,6.802,-9.245,11.73,0.719,7.233,9.532,11.73,0.288,7.478,-9.635,5.865,-17.595,11.73
0.885,-1.341,6.658,-9.197,11.73,0.814,7.089,9.532,11.73,0.288,7.19,-9.778,17.595,-11.73,11.73
0.89,-1.341,6.61,-9.053,11.73,0.91,6.946,9.436,11.73,0.431,7.046,-9.635,17.595,0.0,11.73
0.895,-1.389,6.706,-9.005,11.73,0.958,6.898,9.341,11.73,0.575,6.902,-9.491,17.595,5.865,11.73
0.9,-1.341,6.658,-8.909,11.73,1.054,6.802,9.293,11.73,0.719,6.615,-9.491,17.595,11.73,11.73
0.905,-1.245,6.371,-8.766,17.595,0.958,6.61,9.197,17.595,0.719,6.327,-9.347,17.595,17.595,11.73
0.91,-1.245,6.131,-8.43,23.46,0.862,6.371,8.957,17.595,0.575,6.183,-9.059,5.865,23.46,17.595
0.915,-1.245,6.131,-8.143,23.46,0.91,6.227,8.622,17.595,0.719,6.04,-8.772,5.865,29.326,23.46
0.92,-1.293,6.227,-7.808,23.46,1.054,6.227,8.287,23.46,0.863,6.04,-8.484,5.865,35.191,23.46
0.925,-1.293,6.227,-7.52,23.46,1.15,6.275,7.999,23.46,1.007,5.896,-8.197,5.865,35.191,23.46
0.93,-0.575,9.532,-6.467,29.326,1.198,6.227,7.664,23.46,1.15,5.896,-7.909,0.0,41.056,23.46
0.935,0.144,13.22,-5.604,11.73,-0.383,14.131,5.125,23.46,2.157,7.909,-5.896,-5.865,41.056,23.46
0.9400000000000001,-2.06,7.999,-5.509,-11.73,0.623,10.442,6.227,0.0,-0.288,11.216,-6.183,-29.326,35.191,5.865
0.9450000000000001,-1.341,8.478,-4.455,-11.73,2.203,8.143,5.173,-11.73,1.869,8.772,-5.608,-46.921,29.326,-11.73
0.9500000000000001,-0.479,7.856,-4.407,-5.865,1.389,7.616,4.742,-5.865,2.876,6.471,-4.745,-46.921,35.191,-11.73
0.9550000000000001,-1.006,8.335,-2.443,-0.0,0.862,8.095,4.024,-5.865,1.438,7.334,-4.745,-52.786,29.326,-5.865
0.96,-0.623,8.526,-1.293,11.73,0.287,10.634,1.389,5.865,0.144,11.648,-2.301,-64.516,17.595,0.0
0.965,-1.15,7.041,-4.119,-5.865,1.485,8.239,3.449,5.865,2.445,10.354,-2.157,-52.786,17.595,11.73
0.97,-1.15,6.946,-4.024,-17.595,1.341,6.898,4.551,-11.73,1.869,6.615,-4.745,-41.056,11.73,-5.865
0.975,-0.527,7.425,-3.305,-0.0,0.383,7.664,3.88,-5.865,0.288,7.478,-4.314,-35.191,0.0,-17.595
0.98,-1.15,7.52,-3.353,11.73,0.719,8.766,3.401,11.73,0.431,9.778,-3.595,-35.191,5.865,5.865
0.985,-0.766,8.095,-3.928,5.865,0.91,8.622,3.928,11.73,0.863,9.778,-3.883,-23.46,5.865,11.73
0.99,-0.671,8.862,-4.263,-0.0,0.671,8.909,4.359,5.865,0.863,9.059,-4.314,-5.865,11.73,5.865
0.995,-1.006,9.101,-4.838,5.865,0.766,9.341,4.79,0.0,0.863,9.347,-4.745,0.0,11.73,0.0
1.0,-1.15,9.053,-5.125,5.865,1.102,9.341,5.269,5.865,1.15,9.491,-5.321,0.0,11.73,5.865
1.0050000000000001,-0.958,8.909,-5.173,11.73,0.958,9.245,5.413,5.865,1.15,9.203,-5.464,5.865,5.865,5.865
1.01,-0.91,8.43,-5.269,11.73,0.814,8.957,5.461,11.73,0.863,9.059,-5.608,5.865,11.73,11.73
1.0150000000000001,-1.006,8.095,-5.556,11.73,0.862,8.622,5.7,11.73,0.863,8.772,-5.752,5.865,11.73,11.73
1.02,-1.006,7.904,-5.892,11.73,0.814,8.383,5.988,11.73,0.863,8.628,-6.04,5.865,11.73,17.595
1.025,-1.006,7.76,-6.083,11.73,0.862,8.191,6.275,11.73,0.863,8.484,-6.327,5.865,11.73,11.73
1.03,-1.006,7.76,-6.131,17.595,0.862,8.047,6.419,17.595,0.863,8.197,-6.471,5.865,11.73,11.73
1.035,-1.006,7.664,-6.131,17.595,0.91,7.951,6.419,17.595,1.007,8.053,-6.615,5.865,17.595,11.73
1.04,-1.054,7.52,-6.035,17.595,1.006,7.76,6.419,17.595,1.007,7.765,-6.615,5.865,17.595,17.595
1.045,-0.91,7.616,-5.94,17.595,0.91,7.616,6.275,17.595,1.007,7.478,-6.471,5.865,17.595,17.595
1.05,-1.054,7.808,-5.892,17.595,0.958,7.808,6.179,17.595,1.007,7.478,-6.327,5.865,17.595,17.595
1.055,-1.054,7.856,-5.892,11.73,0.958,7.904,6.179,17.595,1.15,7.765,-6.327,5.865,17.595,17.595
1.06,-1.102,7.999,-5.844,11.73,1.006,7.999,6.179,11.73,1.15,7.765,-6.327,5.865,17.595,11.73
1.065,-1.102,8.095,-5.796,11.73,1.102,8.095,6.083,11.73,1.294,7.909,-6.183,0.0,17.595,11.73
1.07,-1.15,8.191,-5.7,5.865,1.102,8.239,6.035,11.73,1.294,8.053,-6.183,0.0,17.595,11.73
1.075,-1.198,8.143,-5.652,5.865,1.15,8.335,5.94,5.865,1.294,8.053,-6.04,-5.865,17.595,5.865
1.08,-1.198,8.047,-5.604,-0.0,1.198,8.287,5.94,5.865,1.438,8.197,-6.04,-5.865,17.595,0.0
1.085,-1.245,7.951,-5.604,-0.0,1.245,8.191,5.892,0.0,1.438,8.197,-6.04,-5.865,11.73,0.0
1.09,-1.245,7.856,-5.604,-0.0,1.293,8.143,5.892,0.0,1.438,8.197,-6.04,-11.73,11.73,0.0
1.095,-1.198,7.76,-5.556,-0.0,1.245,8.047,5.844,0.0,1.438,8.053,-5.896,-11.73,11.73,0.0
1.1,-1.245,7.664,-5.604,-0.0,1.198,7.951,5.844,0.0,1.438,7.909,-6.04,-11.73,11.73,0.0
1.105,-1.293,7.616,-5.604,-0.0,1.245,7.904,5.844,0.0,1.438,7.909,-6.04,-11.73,5.865,0.0
1.11,-1.293,7.664,-5.652,-0.0,1.245,7.904,5.892,0.0,1.438,7.909,-6.04,-11.73,5.865,0.0
1.115,-1.245,7.712,-5.652,5.865,1.245,7.951,5.94,5.865,1.438,8.053,-6.04,-11.73,5.865,0.0
1.12,-1.245,7.808,-5.7,5.865,1.198,8.095,5.988,5.865,1.294,8.053,-6.04,-5.865,5.865,0.0
1.125,-1.293,7.856,-5.748,5.865,1.198,8.191,6.035,5.865,1.294,8.197,-6.183,-5.865,5.865,5.865
1.1300000000000001,-1.293,7.856,-5.796,5.865,1.245,8.239,6.083,5.865,1.294,8.34,-6.183,-5.865,5.865,5.865
1.135,-1.293,7.856,-5.796,5.865,1.245,8.239,6.083,5.865,1.294,8.34,-6.183,-5.865,5.865,5.865
1.1400000000000001,-1.293,7.904,-5.796,5.865,1.245,8.287,6.131,5.865,1.294,8.484,-6.183,-5.865,5.865,5.865
1.145,-1.245,7.904,-5.796,5.865,1.198,8.287,6.131,5.865,1.294,8.484,-6.183,0.0,5.865,5.865
1.1500000000000001,-1.198,7.951,-5.796,5.865,1.15,8.239,6.083,5.865,1.294,8.34,-6.183,0.0,11.73,5.865
1.155,-1.245,7.999,-5.844,11.73,1.198,8.287,6.131,11.73,1.294,8.34,-6.183,5.865,11.73,5.865
1.16,-1.245,8.143,-5.892,11.73,1.198,8.383,6.179,11.73,1.294,8.484,-6.183,5.865,11.73,11.73
1.165,-1.245,8.239,-5.844,11.73,1.15,8.478,6.179,11.73,1.294,8.484,-6.327,5.865,11.73,11.73
1.17,-1.245,8.383,-5.94,11.73,1.15,8.574,6.227,11.73,1.294,8.628,-6.327,5.865,5.865,11.73
1.175,-1.198,8.478,-5.94,11.73,1.15,8.718,6.275,11.73,1.294,8.628,-6.327,5.865,5.865,11.73
1.18,-1.198,8.574,-5.892,11.73,1.054,8.814,6.227,11.73,1.15,8.772,-6.327,5.865,11.73,11.73
1.185,-1.102,8.67,-5.94,11.73,1.054,8.862,6.131,11.73,1.15,8.916,-6.327,5.865,11.73,11.73
1.19,-1.15,8.766,-5.988,11.73,1.054,8.957,6.275,11.73,1.294,8.916,-6.327,5.865,11.73,11.73
1.195,-1.102,8.766,-5.94,11.73,1.054,9.005,6.275,11.73,1.15,8.916,-6.327,5.865,11.73,11.73
1.2,-1.054,8.909,-5.94,11.73,1.006,9.101,6.227,11.73,1.15,9.059,-6.327,5.865,11.73,11.73
1.205,-1.102,9.101,-5.988,11.73,1.006,9.293,6.275,11.73,1.15,9.203,-6.327,5.865,11.73,11.73
1.21,-1.102,9.293,-6.083,11.73,1.006,9.484,6.323,11.73,1.15,9.491,-6.471,5.865,11.73,11.73
1.215,-1.15,9.484,-6.131,11.73,1.006,9.724,6.371,11.73,1.15,9.635,-6.471,5.865,11.73,11.73
1.22,-1.054,9.772,-6.131,11.73,0.91,10.059,6.419,11.73,1.007,10.066,-6.615,5.865,11.73,11.73
1.225,-1.054,10.155,-6.131,11.73,0.91,10.346,6.371,11.73,1.007,10.354,-6.471,5.865,11.73,11.73
1.23,-1.006,10.586,-5.988,5.865,0.91,10.73,6.323,11.73,1.007,10.641,-6.471,17.595,11.73,11.73
1.235,-0.958,10.921,-5.796,-0.0,0.862,11.017,6.227,5.865,1.007,10.929,-6.327,17.595,11.73,5.865
1.24,-0.91,11.496,-5.652,-5.865,0.91,11.4,5.796,0.0,1.15,11.36,-6.183,17.595,11.73,0.0
1.245,-1.054,11.64,-5.652,-5.865,1.054,11.783,5.892,-5.865,1.294,11.648,-6.04,17.595,11.73,-5.865
1.25,-0.766,11.592,-5.652,-11.73,0.814,11.783,5.892,-5.865,1.294,11.648,-6.04,17.595,11.73,-11.73
1.2550000000000001,-0.766,11.496,-5.556,-17.595,0.719,11.736,5.796,-17.595,1.007,11.648,-6.04,17.595,5.865,-11.73
1.26,-0.766,11.209,-5.509,-23.46,0.766,11.592,5.748,-23.46,1.007,11.648,-5.896,5.865,5.865,-17.595
1.2650000000000001,-0.862,10.873,-5.461,-29.326,0.814,11.304,5.7,-29.326,1.007,11.504,-5.896,5.865,5.865,-23.46
1.27,-0.814,10.49,-5.365,-29.326,0.814,11.017,5.652,-29.326,1.15,11.216,-5.896,5.865,0.0,-29.326
1.2750000000000001,-0.766,10.107,-5.269,-35.191,0.719,10.682,5.556,-35.191,1.007,10.929,-5.752,5.865,0.0,-35.191
1.28,-0.766,9.772,-5.173,-35.191,0.671,10.346,5.461,-35.191,0.863,10.641,-5.608,5.865,0.0,-35.191
1.285,-0.766,9.484,-5.221,-41.056,0.671,10.011,5.461,-41.056,0.863,10.354,-5.608,17.595,0.0,-41.056
1.29,-0.766,9.197,-5.269,-41.056,0.719,9.724,5.461,-41.056,0.863,9.922,-5.608,23.46,0.0,-41.056
1.295,-0.766,8.766,-5.269,-41.056,0.719,9.341,5.556,-46.921,1.007,9.635,-5.608,23.46,0.0,-46.921
1.3,-0.766,8.335,-5.221,-46.921,0.719,8.909,5.556,-46.921,0.863,9.203,-5.608,29.326,0.0,-46.921
1.305,-0.766,7.999,-5.221,-46.921,0.766,8.526,5.509,-46.921,1.007,8.772,-5.608,29.326,-5.865,-46.921
1.31,-0.766,7.76,-5.221,-46.921,0.766,8.239,5.461,-46.921,1.007,8.484,-5.608,29.326,-5.865,-46.921
1.315,-0.862,7.568,-5.317,-46.921,0.766,7.999,5.509,-46.921,1.007,8.197,-5.608,35.191,-5.865,-46.921
1.32,-0.91,7.377,-5.365,-46.921,0.862,7.808,5.604,-52.786,1.007,8.053,-5.752,35.191,-5.865,-52.786
1.325,-0.958,7.137,-5.413,-46.921,0.958,7.568,5.7,-52.786,1.15,7.765,-5.752,35.191,-5.865,-52.786
1.33,-1.006,6.85,-5.461,-46.921,1.006,7.233,5.7,-52.786,1.15,7.334,-5.896,41.056,-5.865,-52.786
1.335,-1.006,6.562,-5.556,-46.921,1.006,6.85,5.796,-52.786,1.15,6.902,-5.896,41.056,-5.865,-52.786
1.34,-1.054,6.275,-5.652,-52.786,1.102,6.514,5.94,-52.786,1.294,6.471,-6.04,41.056,-11.73,-52.786
1.345,-1.198,6.035,-5.796,-46.921,1.15,6.179,6.083,-52.786,1.294,6.04,-6.183,41.056,-11.73,-52.786
1.35,-1.198,5.652,-5.892,-46.921,1.198,5.796,6.179,-46.921,1.294,5.608,-6.327,35.191,-11.73,-52.786
1.355,-1.198,5.365,-5.94,-46.921,1.198,5.413,6.275,-46.921,1.294,5.177,-6.327,35.191,-11.73,-52.786
1.36,-1.245,5.125,-5.892,-46.921,1.245,5.173,6.275,-46.921,1.294,4.889,-6.327,29.326,-11.73,-46.921
1.365,-1.198,4.838,-5.844,-41.056,1.198,4.934,6.179,-46.921,1.294,4.602,-6.327,23.46,-11.73,-46.921
1.37,-1.245,4.455,-5.844,-41.056,1.245,4.646,6.179,-41.056,1.294,4.314,-6.327,17.595,-11.73,-46.921
1.375,-1.293,4.024,-5.892,-41.056,1.293,4.263,6.227,-41.056,1.438,4.026,-6.327,5.865,-11.73,-41.056
1.3800000000000001,-1.341,3.593,-5.892,-35.191,1.341,3.88,6.275,-41.056,1.438,3.739,-6.327,5.865,-11.73,-41.056
1.385,-1.293,3.114,-5.988,-35.191,1.341,3.401,6.323,-35.191,1.438,3.307,-6.327,5.865,-11.73,-35.191
1.3900000000000001,-1.245,2.682,-6.083,-23.46,1.293,2.97,6.419,-35.191,1.294,2.876,-6.471,5.865,-11.73,-35.191
1.395,-1.245,2.203,-6.275,-23.46,1.245,2.491,6.562,-23.46,1.15,2.301,-6.615,0.0,-11.73,-23.46
1.4000000000000001,-1.15,1.629,-6.371,-17.595,1.15,1.916,6.706,-17.595,1.007,1.869,-6.759,0.0,-11.73,-23.46
1.405,-1.102,0.91,-6.467,-11.73,1.006,1.245,6.85,-11.73,0.863,1.15,-6.902,-5.865,-5.865,-17.595
1.41,-1.054,0.096,-6.371,-0.0,0.958,0.527,6.802,-5.865,0.719,0.431,-6.902,-5.865,-5.865,-5.865
1.415,-1.102,-0.527,-6.227,11.73,1.006,-0.144,6.706,5.865,0.719,-0.288,-6.759,-11.73,0.0,0.0
1.42,-1.198,-0.862,-6.227,23.46,1.15,-0.527,6.658,11.73,0.863,-0.575,-6.759,-11.73,0.0,11.73
1.425,-1.485,-0.91,-6.275,35.191,1.437,-0.671,6.658,29.326,1.15,-0.719,-6.759,-11.73,5.865,23.46
1.43,-1.581,-0.862,-6.227,46.921,1.629,-0.575,6.658,41.056,1.438,-0.719,-6.759,-11.73,5.865,35.191
1.435,-1.581,-1.006,-6.179,58.651,1.629,-0.575,6.61,52.786,1.438,-0.575,-6.615,-11.73,5.865,46.921
1.44,-1.533,-1.485,-6.227,70.381,1.581,-0.91,6.658,64.516,1.438,-0.863,-6.759,-11.73,5.865,58.651
1.445,-1.629,-2.012,-6.419,82.111,1.581,-1.581,6.706,76.246,1.294,-1.438,-6.759,-11.73,11.73,70.381
1.45,-2.251,-2.012,-6.658,93.842,2.012,-1.868,6.946,87.977,1.726,-2.013,-6.902,-11.73,11.73,82.111
1.455,-3.018,-1.102,-6.85,105.572,2.874,-1.15,7.233,99.707,2.588,-1.438,-7.19,-11.73,11.73,93.842
1.46,-3.209,0.479,-6.946,123.167,3.257,0.287,7.281,117.302,3.164,0.0,-7.334,-5.865,17.595,111.437
1.465,-3.257,2.203,-7.041,140.762,3.257,2.06,7.377,134.897,3.164,1.869,-7.478,0.0,17.595,123.167
1.47,-3.114,3.593,-7.137,140.762,3.018,3.545,7.472,140.762,3.02,3.307,-7.621,0.0,17.595,140.762
1.475,-3.066,4.455,-7.137,134.897,2.826,4.455,7.52,140.762,2.588,4.314,-7.621,5.865,17.595,140.762
1.48,-2.778,4.742,-6.946,123.167,2.587,4.934,7.377,129.032,2.301,4.745,-7.621,5.865,23.46,129.032
1.485,-2.682,4.982,-6.706,111.437,2.491,4.934,7.185,117.302,2.301,4.602,-7.334,5.865,29.326,123.167
1.49,4.551,21.938,1.629,99.707,2.635,4.982,6.993,111.437,2.588,4.458,-7.19,5.865,35.191,111.437
1.495,5.03,23.902,0.623,-11.73,-10.682,23.423,-7.233,64.516,-8.484,65.573,12.223,-5.865,35.191,93.842
1.5,-11.831,18.058,-6.419,-17.595,8.383,15.568,3.353,-41.056,-0.575,20.42,-2.876,5.865,41.056,-41.056
1.5050000000000001,-2.108,15.951,-0.623,-17.595,12.646,14.897,4.598,-5.865,22.72,6.759,-6.327,-17.595,41.056,-11.73
1.51,5.748,11.592,1.054,-5.865,-4.215,12.694,-1.198,-17.595,1.15,10.066,0.144,-99.707,-5.865,-23.46
1.5150000000000001,0.527,10.538,-3.305,29.326,-4.119,11.879,1.198,17.595,-6.615,14.38,-0.288,-146.628,-41.056,0.0
1.52,-0.335,10.538,-5.94,23.46,-0.192,11.257,5.509,29.326,-1.15,11.792,-4.889,-146.628,-46.921,29.326
1.5250000000000001,1.054,10.873,-5.7,11.73,-1.293,12.215,6.227,11.73,-1.582,13.373,-6.615,-134.897,-35.191,17.595
1.53,0.431,11.736,-5.509,11.73,-1.964,13.412,5.796,11.73,-2.732,15.387,-6.183,-123.167,-23.46,11.73
1.5350000000000001,-1.054,11.544,-5.652,17.595,0.048,13.939,5.748,17.595,-0.863,16.393,-6.04,-93.842,-17.595,11.73
1.54,-0.719,11.448,-5.796,29.326,0.862,13.508,5.94,23.46,0.863,15.962,-6.04,-64.516,-5.865,23.46
1.545,-0.671,11.64,-6.035,46.921,0.766,13.125,6.035,41.056,1.294,15.099,-6.183,-29.326,0.0,35.191
1.55,-0.958,11.209,-6.802,58.651,0.958,12.502,6.562,52.786,1.438,13.805,-6.471,-5.865,-5.865,46.921
1.555,-1.054,10.442,-7.712,64.516,1.006,11.544,7.568,64.516,1.438,12.367,-7.334,5.865,-5.865,58.651
1.56,-0.814,9.628,-8.239,70.381,0.671,10.538,8.287,70.381,0.863,11.073,-8.34,23.46,-11.73,64.516
1.565,-0.335,8.383,-7.951,58.651,-0.192,9.436,8.478,64.516,-0.288,10.066,-8.628,29.326,-11.73,64.516
1.57,-0.623,8.239,-8.574,46.921,-0.431,8.526,8.622,52.786,-1.007,9.059,-8.484,35.191,-5.865,58.651
1.575,-1.198,7.999,-8.814,35.191,0.671,8.095,9.053,41.056,0.0,8.053,-9.059,35.191,0.0,41.056
1.58,-1.15,8.095,-8.335,17.595,0.814,7.904,8.957,23.46,0.863,7.478,-9.203,35.191,5.865,29.326
1.585,-1.15,8.239,-8.143,5.865,1.102,7.904,8.526,11.73,1.007,7.334,-8.628,29.326,11.73,11.73
1.59,-1.15,7.999,-7.712,-0.0,1.006,7.951,8.335,0.0,1.15,7.334,-8.484,23.46,17.595,5.865
1.595,-1.006,7.664,-7.089,-5.865,1.054,7.856,7.664,-5.865,1.15,7.478,-7.909,5.865,17.595,-5.865
1.6,-1.15,7.472,-6.754,-17.595,0.958,7.76,7.185,-11.73,1.007,7.765,-7.334,5.865,17.595,-11.73
1.605,-1.245,7.329,-6.562,-23.46,1.102,7.712,6.993,-23.46,1.15,7.765,-7.19,5.865,17.595,-17.595
1.61,-1.341,7.137,-6.179,-29.326,1.245,7.616,6.658,-29.326,1.294,7.765,-6.902,5.865,17.595,-23.46
1.615,-1.293,6.993,-5.796,-35.191,1.293,7.472,6.275,-35.191,1.294,7.765,-6.471,5.865,17.595,-35.191
1.62,-1.389,6.946,-5.509,-29.326,1.341,7.377,5.94,-29.326,1.438,7.621,-6.183,5.865,17.595,-35.191
1.625,-1.485,7.041,-5.269,-29.326,1.437,7.425,5.796,-29.326,1.582,7.621,-5.896,5.865,17.595,-29.326
1.6300000000000001,-1.485,7.233,-4.934,-17.595,1.581,7.568,5.317,-23.46,1.726,7.765,-5.608,5.865,17.595,-23.46
1.635,-1.581,7.568,-4.838,-11.73,1.629,7.856,5.173,-17.595,1.869,8.053,-5.321,17.595,17.595,-17.595
1.6400000000000001,-1.772,7.712,-4.79,-5.865,1.772,8.047,5.125,-5.865,2.013,8.053,-5.177,17.595,11.73,-11.73
1.645,-1.724,7.904,-4.79,-0.0,1.82,8.191,5.077,0.0,2.013,8.34,-5.177,23.46,11.73,0.0
1.6500000000000001,-1.724,7.904,-4.838,5.865,1.772,8.191,5.125,5.865,2.013,8.34,-5.177,23.46,11.73,5.865
1.655,-1.772,7.76,-5.03,11.73,1.772,8.095,5.221,11.73,2.013,8.053,-5.321,23.46,5.865,5.865
1.6600000000000001,-1.772,7.76,-5.125,11.73,1.82,7.951,5.365,11.73,2.013,7.909,-5.464,23.46,5.865,11.73
1.665,-1.724,7.712,-5.173,11.73,1.724,7.856,5.413,11.73,1.869,7.765,-5.464,23.46,5.865,11.73
1.67,-1.677,7.712,-5.269,11.73,1.724,7.808,5.509,11.73,1.869,7.621,-5.608,23.46,5.865,11.73
1.675,-1.724,7.712,-5.365,11.73,1.677,7.808,5.604,11.73,1.869,7.621,-5.608,17.595,5.865,11.73
1.68,-1.677,7.664,-5.509,5.865,1.677,7.808,5.748,5.865,1.869,7.621,-5.752,17.595,0.0,5.865
1.685,-1.629,7.568,-5.604,5.865,1.629,7.712,5.844,5.865,1.726,7.478,-5.896,5.865,0.0,5.865
1.69,-1.629,7.52,-5.7,-0.0,1.581,7.664,5.94,0.0,1.726,7.478,-6.04,5.865,0.0,0.0
1.695,-1.581,7.472,-5.748,-5.865,1.581,7.664,6.035,0.0,1.726,7.478,-6.04,5.865,5.865,0.0
1.7,-1.581,7.425,-5.796,-5.865,1.533,7.664,6.083,-5.865,1.582,7.621,-6.183,0.0,0.0,-5.865
1.705,-1.629,7.377,-5.796,-5.865,1.485,7.616,6.131,-5.865,1.582,7.621,-6.183,0.0,5.865,-5.865
1.71,-1.533,7.329,-5.796,-11.73,1.485,7.616,6.083,-11.73,1.582,7.621,-6.183,0.0,0.0,-11.73
1.715,-1.437,7.377,-5.844,-11.73,1.437,7.616,6.179,-11.73,1.438,7.621,-6.183,0.0,5.865,-11.73
1.72,-1.533,7.425,-5.796,-11.73,1.437,7.712,6.131,-11.73,1.582,7.765,-6.183,0.0,5.865,-11.73
1.725,-1.581,7.472,-5.94,-11.73,1.485,7.808,6.179,-11.73,1.438,7.909,-6.183,0.0,5.865,-11.73
1.73,-1.533,7.52,-5.988,-11.73,1.533,7.856,6.275,-11.73,1.582,7.909,-6.327,0.0,5.865,-11.73
1.735,-1.485,7.616,-6.035,-5.865,1.485,7.951,6.323,-5.865,1.582,8.053,-6.471,0.0,5.865,-5.865
1.74,-1.437,7.712,-6.083,-5.865,1.389,8.047,6.371,0.0,1.438,8.197,-6.471,5.865,5.865,-5.865
1.745,-1.437,7.76,-6.179,-0.0,1.341,8.143,6.467,0.0,1.438,8.34,-6.615,5.865,5.865,-5.865
1.75,-1.437,7.808,-6.275,-0.0,1.341,8.191,6.562,0.0,1.438,8.34,-6.615,5.865,5.865,0.0
1.7550000000000001,-1.437,7.856,-6.275,-0.0,1.341,8.191,6.562,0.0,1.438,8.34,-6.759,5.865,5.865,0.0
1.76,-1.437,7.904,-6.323,-0.0,1.341,8.191,6.61,0.0,1.438,8.34,-6.759,5.865,5.865,0.0
1.7650000000000001,-1.485,7.951,-6.323,-0.0,1.341,8.239,6.61,0.0,1.438,8.34,-6.759,5.865,11.73,0.0
1.77,-1.437,8.047,-6.323,-0.0,1.341,8.287,6.61,0.0,1.438,8.34,-6.759,5.865,11.73,0.0
1.7750000000000001,-1.485,8.047,-6.323,-0.0,1.341,8.335,6.61,0.0,1.294,8.34,-6.759,17.595,17.595,0.0
1.78,-1.533,8.095,-6.323,-0.0,1.389,8.335,6.61,5.865,1.438,8.34,-6.759,17.595,17.595,0.0
1.7850000000000001,-1.677,8.239,-6.323,-0.0,1.437,8.43,6.61,5.865,1.438,8.34,-6.759,17.595,17.595,0.0
1.79,-1.629,8.383,-6.323,5.865,1.485,8.526,6.61,0.0,1.438,8.484,-6.759,17.595,17.595,0.0
1.795,-1.724,8.622,-6.371,-0.0,1.437,8.67,6.61,5.865,1.438,8.484,-6.759,5.865,23.46,0.0
1.8,-1.868,8.814,-6.419,-0.0,1.581,8.957,6.754,5.865,1.438,8.772,-6.759,5.865,23.46,0.0
1.805,-1.82,9.005,-6.323,-0.0,1.581,9.101,6.706,0.0,1.438,8.916,-6.902,5.865,29.326,0.0
1.81,-1.772,9.293,-6.035,-5.865,1.533,9.293,6.419,0.0,1.438,9.059,-6.759,5.865,29.326,0.0
1.815,-1.677,9.724,-5.988,-5.865,1.533,9.532,6.179,-5.865,1.438,9.203,-6.327,5.865,35.191,-5.865
1.82,-1.868,9.532,-5.413,-11.73,1.724,9.676,5.844,-5.865,1.869,9.491,-6.183,5.865,35.191,-11.73
1.825,-1.677,9.101,-4.167,-11.73,1.724,9.628,5.077,-11.73,1.869,9.635,-5.464,0.0,35.191,-11.73
1.83,-1.533,8.622,-3.018,-17.595,1.724,9.436,3.832,-17.595,2.157,9.778,-4.314,0.0,35.191,-11.73
1.835,-1.724,8.047,-2.203,-17.595,2.012,9.101,2.826,-17.595,2.301,9.778,-3.164,0.0,35.191,-17.595
1.84,-1.533,8.239,-1.533,-17.595,2.06,9.005,2.06,-17.595,2.876,9.922,-2.301,5.865,29.326,-17.595
1.845,-1.485,8.67,-0.958,-11.73,1.916,9.245,1.437,-11.73,2.588,9.778,-1.726,17.595,23.46,-17.595
1.85,-1.389,8.957,-0.575,-17.595,1.868,9.436,1.006,-11.73,2.445,9.922,-1.15,29.326,17.595,-11.73
1.855,-1.389,9.341,-0.096,-17.595,1.772,9.628,0.575,-17.595,2.445,10.066,-0.719,35.191,5.865,-17.595
1.86,-1.293,9.772,0.431,-17.595,1.772,9.915,0.096,-17.595,2.588,10.066,-0.288,41.056,0.0,-17.595
1.865,-1.293,9.867,0.958,-17.595,1.724,10.155,-0.479,-17.595,2.588,10.21,0.288,46.921,-5.865,-17.595
1.87,-1.341,9.82,1.581,-23.46,1.82,10.107,-1.054,-23.46,2.445,10.21,0.863,46.921,-11.73,-23.46
1.875,-1.293,9.82,2.06,-29.326,1.916,10.011,-1.581,-29.326,2.732,10.066,1.438,46.921,-23.46,-23.46
1.8800000000000001,-1.293,9.772,2.395,-35.191,2.06,9.867,-2.06,-35.191,3.02,9.922,1.869,46.921,-35.191,-35.191
1.885,-1.293,9.772,2.539,-35.191,2.108,9.724,-2.251,-35.191,3.307,9.635,2.301,46.921,-41.056,-35.191
1.8900000000000001,-1.389,9.867,2.395,-35.191,2.251,9.676,-2.299,-41.056,3.451,9.347,2.301,46.921,-58.651,-41.056
1.895,-1.341,10.059,2.06,-41.056,2.251,9.724,-2.012,-41.056,3.595,9.203,2.157,46.921,-70.381,-41.056
1.9000000000000001,-1.341,10.203,1.677,-41.056,2.108,9.772,-1.629,-41.056,3.307,9.203,1.726,41.056,-87.977,-41.056
1.905,-1.437,10.107,1.15,-46.921,2.108,9.676,-1.15,-46.921,3.164,8.916,1.294,29.326,-99.707,-46.921
1.9100000000000001,-1.677,9.867,0.479,-52.786,2.203,9.484,-0.479,-52.786,3.164,8.628,0.575,23.46,-117.302,-52.786
1.915,-1.868,9.388,-0.192,-64.516,2.395,9.149,0.192,-58.651,3.307,8.34,-0.144,5.865,-129.032,-58.651
1.92,-2.06,8.814,-0.862,-64.516,2.539,8.718,0.862,-70.381,3.451,8.053,-0.863,-5.865,-140.762,-64.516
1.925,-2.299,8.239,-1.533,-70.381,2.682,8.239,1.581,-70.381,3.451,7.765,-1.582,-17.595,-152.493,-70.381
1.93,-2.539,7.616,-2.395,-70.381,2.874,7.808,2.347,-76.246,3.595,7.334,-2.301,-23.46,-164.223,-70.381
1.935,-2.778,6.946,-3.353,-76.246,3.066,7.377,3.305,-76.246,3.739,7.046,-3.307,-29.326,-170.088,-76.246
1.94,-3.066,6.419,-4.455,-70.381,3.209,6.946,4.359,-76.246,3.595,6.902,-4.314,-35.191,-175.953,-76.246
1.945,-3.257,5.892,-5.652,-70.381,3.305,6.514,5.556,-76.246,3.595,6.471,-5.464,-41.056,-181.818,-76.246
1.95,-3.497,5.317,-7.041,-70.381,3.353,6.131,6.85,-76.246,3.451,6.183,-6.759,-41.056,-187.683,-70.381
1.955,-3.64,4.79,-8.526,-64.516,3.449,5.652,8.287,-70.381,3.307,5.896,-8.197,-41.056,-187.683,-70.381
1.96,-3.784,4.263,-10.155,-58.651,3.497,5.173,9.82,-64.516,3.307,5.464,-9.635,-35.191,-187.683,-70.381
1.965,-3.832,3.832,-11.927,-52.786,3.449,4.646,11.544,-58.651,3.164,4.889,-11.36,-35.191,-181.818,-64.516
1.97,-3.88,3.64,-13.747,-46.921,3.401,4.263,13.364,-52.786,3.02,4.314,-13.086,-29.326,-175.953,-52.786
1.975,-3.928,3.545,-15.472,-35.191,3.305,4.167,15.184,-46.921,2.732,4.026,-14.811,-29.326,-170.088,-46.921
1.98,-3.976,3.64,-17.052,-29.326,3.209,4.215,16.765,-35.191,2.445,4.17,-16.537,-23.46,-164.223,-41.056
1.985,-3.928,3.593,-18.585,-23.46,3.018,4.311,18.298,-29.326,2.013,4.314,-18.119,-23.46,-152.493,-29.326
1.99,-4.119,3.545,-19.974,-17.595,2.874,4.359,19.735,-23.46,1.726,4.458,-19.701,-23.46,-134.897,-23.46
1.995,-4.072,3.545,-21.076,-17.595,2.73,4.359,20.98,-17.595,1.294,4.458,-20.995,-17.595,-123.167,-17.595
2.0,-4.024,3.449,-21.89,-11.73,2.539,4.263,21.89,-11.73,0.863,4.314,-22.001,-17.595,-99.707,-17.595
2.005,-3.976,3.161,-22.321,-5.865,2.347,4.072,22.465,-11.73,0.575,4.17,-22.577,-17.595,-76.246,-11.73
2.0100000000000002,-3.736,2.73,-22.321,-5.865,2.108,3.688,22.657,-5.865,0.288,3.883,-22.864,-11.73,-46.921,-5.865
2.015,-3.593,2.299,-21.747,-0.0,1.964,3.401,22.417,0.0,-0.144,3.595,-22.72,-11.73,-23.46,0.0
2.02,-3.497,2.251,-20.837,5.865,1.82,3.161,21.651,5.865,-0.144,3.595,-22.145,-5.865,5.865,5.865
2.025,-3.784,2.491,-20.262,11.73,2.06,3.305,20.98,11.73,-0.144,3.595,-21.426,0.0,41.056,5.865
2.0300000000000002,-3.688,3.353,-19.591,17.595,2.203,3.688,20.405,11.73,0.288,3.883,-20.851,5.865,64.516,11.73
2.035,-3.545,4.024,-18.585,29.326,2.299,4.167,19.591,23.46,0.719,3.883,-20.132,5.865,93.842,23.46
2.04,-3.545,4.359,-17.436,35.191,2.395,4.551,18.537,35.191,1.007,4.026,-19.125,5.865,117.302,29.326
2.045,-3.449,4.982,-16.286,46.921,2.443,4.982,17.34,46.921,1.15,4.458,-17.975,5.865,140.762,41.056
2.05,-3.066,5.748,-15.28,46.921,2.156,5.652,16.286,46.921,1.007,5.177,-16.825,5.865,158.358,46.921
2.055,-2.97,6.275,-14.131,46.921,2.06,6.227,15.28,46.921,1.007,5.608,-15.962,5.865,175.953,46.921
2.06,-3.066,6.275,-12.789,41.056,2.299,6.467,14.035,41.056,1.438,5.896,-14.811,0.0,193.548,41.056
2.065,-3.018,6.179,-11.161,35.191,2.635,6.467,12.55,41.056,2.157,6.04,-13.373,-5.865,205.279,35.191
2.07,-2.874,6.083,-9.341,35.191,2.778,6.467,10.778,35.191,2.732,6.183,-11.792,-5.865,217.009,35.191
2.075,-2.922,5.796,-7.664,35.191,3.209,6.467,9.149,35.191,3.164,6.327,-9.922,-11.73,222.874,35.191
2.08,-2.826,5.413,-5.317,35.191,3.305,6.131,6.658,35.191,4.17,5.896,-7.909,-11.73,222.874,35.191
2.085,-2.347,5.221,-3.593,41.056,2.826,6.179,4.982,46.921,3.307,6.615,-5.752,-11.73,217.009,41.056
2.09,-2.156,5.844,-1.629,46.921,2.922,6.61,3.066,46.921,3.739,7.478,-4.026,-5.865,211.144,46.921
2.095,-2.251,6.61,0.0,46.921,2.826,7.137,1.198,46.921,3.739,7.765,-1.869,5.865,205.279,46.921
2.1,-2.251,7.425,1.581,46.921,3.066,7.808,-0.383,52.786,4.026,8.34,-0.288,17.595,199.413,46.921
2.105,-2.012,8.287,3.114,52.786,2.922,8.526,-1.964,52.786,4.026,8.916,1.294,29.326,187.683,52.786
2.11,-1.533,9.053,4.694,58.651,2.635,9.101,-3.593,58.651,3.883,9.347,3.02,41.056,175.953,52.786
2.115,-1.341,9.676,6.275,58.651,2.539,9.628,-5.221,58.651,4.026,9.635,4.745,46.921,158.358,58.651
2.12,-1.054,10.299,7.616,52.786,2.443,10.203,-6.802,58.651,4.026,10.21,6.327,52.786,140.762,58.651
2.125,-0.766,11.304,8.574,52.786,2.299,10.873,-7.999,52.786,4.17,10.785,7.765,52.786,123.167,52.786
2.13,-0.719,12.215,9.101,46.921,2.299,11.592,-8.814,46.921,4.314,11.36,8.628,52.786,99.707,46.921
2.1350000000000002,-0.479,13.22,9.245,35.191,2.347,12.215,-9.149,41.056,4.602,11.648,9.203,52.786,76.246,41.056
2.14,-0.287,13.987,9.053,23.46,2.06,12.885,-9.101,29.326,4.458,11.935,9.347,46.921,46.921,29.326
2.145,-0.096,14.322,8.622,11.73,1.772,13.173,-8.766,17.595,4.026,11.935,9.059,41.056,17.595,23.46
2.15,-0.192,14.514,7.904,-0.0,1.581,13.173,-8.191,5.865,3.739,11.648,8.484,23.46,-11.73,11.73
2.1550000000000002,-0.479,14.131,7.233,-17.595,1.677,13.029,-7.472,-11.73,3.595,11.36,7.765,0.0,-41.056,-5.865
2.16,-0.719,13.316,6.467,-35.191,1.772,12.55,-6.658,-29.326,3.595,11.073,6.902,-23.46,-64.516,-23.46
2.165,-0.958,12.598,5.652,-52.786,1.916,11.927,-5.844,-46.921,3.451,10.641,6.04,-41.056,-87.977,-46.921
2.17,-1.293,11.352,4.742,-64.516,2.156,11.065,-4.982,-64.516,3.595,9.922,5.177,-64.516,-111.437,-58.651
2.1750000000000003,-1.581,9.772,3.545,-76.246,2.395,9.915,-3.832,-76.246,3.739,9.059,4.026,-82.111,-129.032,-70.381
2.18,-2.06,8.191,2.06,-82.111,2.635,8.814,-2.443,-82.111,3.739,8.484,2.732,-99.707,-152.493,-82.111
2.185,-2.491,6.85,0.24,-82.111,3.018,7.856,-0.671,-87.977,4.026,8.053,1.007,-111.437,-164.223,-87.977
2.19,-2.922,5.892,-1.772,-82.111,3.114,7.089,1.245,-87.977,3.739,7.765,-1.007,-111.437,-181.818,-87.977
2.195,-3.018,5.077,-4.024,-76.246,3.066,6.514,3.401,-82.111,3.307,7.478,-3.164,-111.437,-187.683,-82.111
2.2,-2.97,4.503,-6.323,-70.381,2.778,6.083,5.748,-76.246,2.732,7.19,-5.464,-99.707,-193.548,-76.246
2.205,-3.018,4.215,-8.383,-58.651,2.395,5.748,7.904,-70.381,2.013,7.046,-7.765,-87.977,-193.548,-70.381
2.21,-2.874,4.119,-10.299,-52.786,2.06,5.509,9.915,-58.651,1.15,6.759,-9.635,-70.381,-187.683,-58.651
2.215,-2.539,4.215,-11.879,-46.921,1.677,5.365,11.688,-52.786,0.575,6.471,-11.504,-52.786,-175.953,-52.786
2.22,-2.299,4.311,-13.029,-41.056,1.198,5.221,12.981,-46.921,-0.144,6.04,-12.942,-35.191,-158.358,-46.921
2.225,-2.203,4.359,-13.747,-41.056,1.006,5.077,13.891,-46.921,-0.431,5.608,-13.949,-23.46,-140.762,-46.921
2.23,-2.108,4.407,-14.083,-35.191,1.006,5.03,14.37,-41.056,-0.288,5.321,-14.524,-17.595,-123.167,-41.056
2.235,-2.06,4.598,-14.083,-35.191,1.054,5.077,14.514,-35.191,-0.144,5.177,-14.668,-11.73,-99.707,-35.191
2.24,-2.06,4.742,-13.987,-29.326,1.198,5.173,14.418,-35.191,0.144,5.177,-14.668,-5.865,-82.111,-35.191
2.245,-2.012,4.934,-13.795,-23.46,1.293,5.269,14.274,-29.326,0.431,5.321,-14.524,-5.865,-70.381,-35.191
2.25,-1.964,4.886,-13.412,-23.46,1.293,5.269,13.987,-23.46,0.575,5.177,-14.236,0.0,-52.786,-23.46
2.255,-1.868,4.982,-13.077,-17.595,1.293,5.173,13.652,-23.46,0.575,5.033,-13.805,0.0,-41.056,-23.46
2.2600000000000002,-1.724,5.03,-12.694,-11.73,1.198,5.125,13.268,-17.595,0.575,4.889,-13.517,-5.865,-35.191,-17.595
2.265,-1.533,5.125,-12.167,-5.865,1.102,5.173,12.837,-11.73,0.575,4.745,-13.086,-5.865,-23.46,-11.73
2.27,-1.533,5.173,-11.496,-5.865,0.958,5.317,12.215,-5.865,0.288,5.033,-12.511,-5.865,-11.73,-5.865
2.275,-1.629,5.221,-10.921,-5.865,1.15,5.413,11.544,-5.865,0.575,5.177,-11.792,-11.73,0.0,-5.865
2.2800000000000002,-1.677,5.509,-10.346,-0.0,1.245,5.604,10.969,0.0,0.863,5.464,-11.216,-11.73,5.865,-5.865
2.285,-1.629,5.844,-9.82,-0.0,1.245,5.892,10.442,0.0,0.863,5.608,-10.785,-17.595,11.73,0.0
2.29,-1.581,5.844,-9.197,5.865,1.293,6.083,9.867,5.865,1.007,5.896,-10.21,-17.595,17.595,5.865
2.295,-1.629,5.7,-8.335,11.73,1.245,6.083,9.101,5.865,1.15,6.04,-9.491,-17.595,23.46,5.865
2.3000000000000003,-1.677,5.748,-7.712,5.865,1.341,6.131,8.335,11.73,1.007,6.183,-8.628,-17.595,29.326,11.73
2.305,-1.389,6.035,-7.233,5.865,1.341,6.323,7.808,11.73,1.15,6.471,-8.053,-17.595,35.191,11.73
2.31,-1.437,6.227,-6.658,5.865,1.245,6.562,7.281,5.865,1.294,6.615,-7.478,-17.595,41.056,5.865
2.315,-1.533,6.323,-6.179,5.865,1.437,6.658,6.754,5.865,1.438,6.759,-7.046,-17.595,41.056,5.865
2.32,-1.437,6.419,-5.7,5.865,1.581,6.706,6.275,5.865,1.726,6.759,-6.471,-11.73,41.056,5.865
2.325,-1.437,6.371,-5.077,11.73,1.629,6.754,5.7,11.73,1.869,6.759,-5.896,-11.73,41.056,11.73
2.33,-1.485,6.179,-4.646,17.595,1.629,6.754,5.125,11.73,1.869,6.902,-5.321,-11.73,41.056,11.73
2.335,-1.485,6.275,-4.359,23.46,1.581,6.754,4.742,17.595,1.869,7.19,-4.889,-5.865,41.056,17.595
2.34,-1.389,6.562,-4.263,23.46,1.581,6.85,4.598,23.46,1.726,7.046,-4.745,0.0,35.191,23.46
2.345,-1.437,6.802,-4.072,29.326,1.485,6.993,4.455,23.46,1.726,7.046,-4.602,0.0,35.191,23.46
2.35,-1.82,8.67,-1.198,29.326,1.581,7.616,3.736,29.326,1.726,7.478,-4.314,5.865,29.326,23.46
2.355,0.91,16.573,2.012,29.326,0.144,15.999,-2.682,29.326,-0.144,16.681,-0.0,5.865,29.326,29.326
2.36,-2.251,11.592,-3.401,-0.0,1.054,12.406,1.437,17.595,1.869,13.661,0.719,35.191,35.191,23.46
2.365,-1.964,12.55,-2.682,-29.326,3.976,10.346,3.784,-17.595,5.321,8.053,-4.026,41.056,23.46,-11.73
2.37,-0.431,10.299,-0.671,-17.595,1.677,10.586,2.539,-23.46,3.451,8.484,-2.732,17.595,5.865,-29.326
2.375,-0.719,8.957,-0.958,-0.0,0.479,9.772,0.383,-5.865,0.863,9.922,-0.575,-11.73,-5.865,-11.73
2.38,-0.527,9.676,-3.736,-5.865,0.623,9.245,2.73,0.0,0.431,9.635,-1.869,-23.46,-17.595,0.0
2.3850000000000002,-1.485,9.58,-4.359,-23.46,1.198,9.005,4.598,-17.595,1.726,7.765,-4.458,-23.46,-17.595,-11.73
2.39,-1.198,9.053,-4.503,-23.46,1.245,9.388,4.646,-23.46,1.15,8.772,-4.745,-35.191,-23.46,-23.46
2.395,-1.485,8.909,-4.79,-17.595,1.389,9.293,4.886,-23.46,1.582,9.491,-4.889,-41.056,-23.46,-23.46
2.4,-1.341,8.622,-5.221,-17.595,1.533,9.197,5.317,-17.595,1.726,9.347,-5.321,-46.921,-23.46,-17.595
2.4050000000000002,-1.581,8.095,-5.796,-11.73,1.533,8.909,5.796,-11.73,1.726,9.203,-5.752,-41.056,-23.46,-17.595
2.41,-1.581,7.52,-6.419,-11.73,1.629,8.43,6.371,-11.73,1.869,9.059,-6.327,-41.056,-23.46,-11.73
2.415,-1.389,6.946,-6.85,-5.865,1.389,7.999,7.041,-5.865,1.582,8.628,-6.902,-35.191,-23.46,-11.73
2.42,-1.341,6.61,-7.377,-5.865,1.102,7.568,7.472,-5.865,1.15,8.34,-7.334,-29.326,-23.46,-5.865
2.4250000000000003,-1.293,6.035,-7.616,-5.865,1.102,7.041,7.808,-5.865,0.863,7.765,-7.909,-23.46,-23.46,-5.865
2.43,-1.389,5.604,-7.76,-5.865,1.006,6.562,8.047,-5.865,0.863,7.334,-8.053,-11.73,-23.46,-5.865
2.435,-1.437,5.461,-7.904,-5.865,1.054,6.275,8.095,-5.865,0.719,7.046,-8.197,-5.865,-17.595,-5.865
2.44,-1.533,5.796,-7.616,-0.0,1.245,6.419,8.095,0.0,0.863,6.902,-8.34,0.0,-11.73,0.0
2.445,-1.198,6.035,-7.425,-0.0,1.102,6.562,7.856,0.0,0.863,7.046,-8.053,5.865,-5.865,0.0
2.45,-1.198,6.131,-7.041,-0.0,1.006,6.514,7.568,0.0,0.719,6.759,-7.765,17.595,0.0,0.0
2.455,-1.198,6.61,-6.562,5.865,1.341,6.61,7.137,5.865,1.294,6.615,-7.334,23.46,0.0,5.865
2.46,-1.15,7.281,-6.323,-0.0,1.054,7.089,6.706,0.0,1.294,6.759,-6.902,29.326,5.865,5.865
2.465,-1.102,7.712,-6.083,-0.0,1.054,7.52,6.562,0.0,1.15,7.19,-6.759,23.46,5.865,0.0
2.47,-1.293,7.856,-5.796,-5.865,1.198,7.76,6.227,0.0,1.294,7.334,-6.471,23.46,5.865,0.0
2.475,-1.198,8.047,-5.7,-5.865,1.245,7.951,6.035,0.0,1.438,7.478,-6.183,17.595,0.0,0.0
2.48,-1.198,8.143,-5.556,-5.865,1.198,8.047,5.94,-5.865,1.438,7.621,-6.04,5.865,0.0,-5.865
2.485,-1.341,8.095,-5.461,-11.73,1.293,8.143,5.748,-11.73,1.438,7.765,-5.896,5.865,0.0,-5.865
2.49,-1.293,8.047,-5.413,-11.73,1.341,8.095,5.748,-11.73,1.438,7.765,-5.896,0.0,0.0,-11.73
2.495,-1.437,7.999,-5.413,-11.73,1.389,8.047,5.652,-11.73,1.582,7.765,-5.752,0.0,0.0,-11.73
2.5,-1.437,7.999,-5.509,-11.73,1.437,8.143,5.748,-11.73,1.582,7.909,-5.896,-5.865,0.0,-11.73
2.505,-1.533,8.047,-5.556,-5.865,1.437,8.191,5.844,-11.73,1.582,8.053,-5.896,-11.73,0.0,-11.73
2.5100000000000002,-1.581,8.047,-5.652,-5.865,1.533,8.287,5.844,-5.865,1.582,8.197,-6.04,-11.73,-5.865,-5.865
2.515,-1.629,7.904,-5.796,-5.865,1.533,8.287,6.035,-5.865,1.726,8.34,-6.04,-11.73,-5.865,-11.73
2.52,-1.724,7.808,-5.892,-11.73,1.629,8.239,6.179,-5.865,1.726,8.34,-6.183,-11.73,-5.865,-11.73
2.525,-1.677,7.712,-6.035,-5.865,1.629,8.191,6.275,-5.865,1.726,8.34,-6.327,-11.73,-5.865,-11.73
2.5300000000000002,-1.724,7.664,-6.083,-11.73,1.629,8.191,6.371,-5.865,1.726,8.34,-6.471,-11.73,-5.865,-11.73
2.535,-1.772,7.664,-6.083,-5.865,1.724,8.191,6.371,-5.865,1.726,8.34,-6.471,-5.865,-5.865,-5.865
2.54,-1.724,7.76,-6.131,-5.865,1.677,8.239,6.419,-5.865,1.726,8.484,-6.471,-5.865,-5.865,-5.865
2.545,-1.772,7.951,-6.131,-5.865,1.724,8.335,6.419,-5.865,1.869,8.628,-6.471,0.0,-5.865,-5.865
2.5500000000000003,-1.772,8.095,-6.131,-5.865,1.724,8.526,6.419,-5.865,1.869,8.772,-6.471,5.865,0.0,-5.865
2.555,-1.772,8.335,-6.131,-5.865,1.724,8.718,6.419,-5.865,1.869,8.916,-6.471,5.865,0.0,-5.865
2.56,-1.82,8.43,-6.035,-5.865,1.724,8.862,6.371,-5.865,1.869,9.059,-6.471,5.865,0.0,-5.865
2.565,-1.82,8.622,-6.227,-11.73,1.772,9.005,6.419,-5.865,1.869,9.203,-6.471,5.865,-5.865,-5.865
2.57,-1.916,8.67,-6.179,-11.73,1.82,9.149,6.514,-11.73,2.013,9.203,-6.615,17.595,0.0,-11.73
2.575,-1.868,8.814,-6.227,-11.73,1.82,9.341,6.419,-11.73,1.869,9.635,-6.615,17.595,-5.865,-11.73
2.58,-2.012,9.005,-6.371,-11.73,1.82,9.484,6.61,-11.73,2.013,9.778,-6.759,23.46,0.0,-11.73
2.585,-2.06,9.197,-6.419,-11.73,1.868,9.628,6.706,-11.73,2.013,9.778,-6.759,29.326,0.0,-17.595
2.59,-2.06,9.341,-6.323,-17.595,1.916,9.772,6.61,-17.595,2.013,9.922,-6.759,29.326,0.0,-17.595
2.595,-2.299,9.532,-6.275,-17.595,2.012,9.963,6.61,-17.595,2.157,10.066,-6.759,29.326,0.0,-17.595
2.6,-2.06,9.724,-6.227,-17.595,2.108,10.059,6.514,-17.595,2.301,10.21,-6.615,35.191,0.0,-23.46
2.605,-2.108,10.011,-6.083,-17.595,2.06,10.394,6.467,-23.46,2.301,10.354,-6.615,41.056,0.0,-23.46
2.61,-2.108,10.394,-5.988,-23.46,2.06,10.682,6.275,-23.46,2.301,10.785,-6.471,41.056,0.0,-23.46
2.615,-2.203,11.209,-5.7,-23.46,2.108,11.209,6.227,-23.46,2.301,11.216,-6.327,41.056,0.0,-23.46
2.62,-2.251,12.358,-5.652,-29.326,2.395,12.119,5.748,-29.326,2.732,12.079,-5.896,46.921,0.0,-23.46
2.625,-2.491,13.364,-6.083,-29.326,2.587,12.981,6.275,-29.326,3.164,12.223,-6.327,46.921,0.0,-29.326
2.63,-2.108,13.412,-6.179,-29.326,2.347,13.268,6.419,-29.326,2.876,12.367,-6.471,46.921,-5.865,-29.326
2.6350000000000002,-1.916,13.173,-5.94,-35.191,1.82,13.412,6.323,-35.191,2.301,12.942,-6.471,35.191,-11.73,-29.326
2.64,-1.964,12.741,-5.748,-46.921,1.724,13.268,6.083,-41.056,1.869,13.086,-6.183,29.326,-11.73,-41.056
2.645,-2.108,12.262,-5.652,-52.786,1.964,12.885,5.94,-52.786,2.157,12.942,-6.04,29.326,-11.73,-46.921
2.65,-2.156,11.783,-5.604,-58.651,2.156,12.454,5.844,-58.651,2.445,12.654,-6.04,23.46,-11.73,-58.651
2.6550000000000002,-2.156,11.352,-5.556,-64.516,2.203,12.071,5.796,-64.516,2.588,12.367,-5.896,23.46,-11.73,-64.516
2.66,-2.156,10.969,-5.509,-64.516,2.156,11.736,5.796,-64.516,2.445,12.079,-5.896,29.326,-11.73,-64.516
2.665,-2.108,10.73,-5.509,-64.516,2.06,11.448,5.748,-64.516,2.301,11.935,-5.896,29.326,-17.595,-64.516
2.67,-2.156,10.586,-5.556,-64.516,2.06,11.304,5.748,-64.516,2.157,11.792,-5.896,35.191,-17.595,-70.381
2.6750000000000003,-2.108,10.49,-5.556,-64.516,2.06,11.161,5.796,-70.381,2.301,11.504,-5.896,41.056,-17.595,-70.381
2.68,-2.203,10.299,-5.461,-70.381,2.108,10.921,5.796,-70.381,2.301,11.216,-5.896,41.056,-17.595,-70.381
2.685,-2.203,10.011,-5.413,-70.381,2.203,10.634,5.7,-70.381,2.445,10.785,-5.896,46.921,-17.595,-70.381
2.69,-2.108,9.628,-5.221,-70.381,2.156,10.299,5.604,-76.246,2.445,10.497,-5.752,46.921,-17.595,-76.246
2.695,-2.108,9.245,-5.077,-76.246,2.156,9.867,5.413,-76.246,2.445,10.066,-5.608,52.786,-17.595,-76.246
2.7,-2.156,8.957,-5.03,-76.246,2.203,9.532,5.317,-76.246,2.588,9.778,-5.464,52.786,-17.595,-76.246
2.705,-2.251,8.622,-5.03,-82.111,2.299,9.197,5.269,-82.111,2.588,9.347,-5.464,52.786,-23.46,-82.111
2.71,-2.156,8.239,-5.125,-82.111,2.299,8.814,5.365,-82.111,2.588,8.916,-5.464,52.786,-23.46,-82.111
2.715,-2.203,7.856,-5.173,-82.111,2.299,8.383,5.461,-87.977,2.732,8.484,-5.464,52.786,-23.46,-87.977
2.72,-2.203,7.472,-5.221,-82.111,2.299,7.951,5.509,-87.977,2.588,8.053,-5.608,52.786,-29.326,-87.977
2.725,-2.156,7.089,-5.269,-82.111,2.299,7.568,5.556,-87.977,2.588,7.621,-5.608,52.786,-29.326,-87.977
2.73,-2.156,6.754,-5.269,-87.977,2.203,7.185,5.556,-87.977,2.445,7.19,-5.608,52.786,-29.326,-87.977
2.735,-2.06,6.467,-5.317,-82.111,2.156,6.85,5.604,-87.977,2.445,6.902,-5.752,52.786,-29.326,-87.977
2.74,-2.108,6.275,-5.317,-87.977,2.203,6.562,5.652,-87.977,2.301,6.471,-5.752,52.786,-29.326,-87.977
2.745,-2.06,5.988,-5.365,-82.111,2.156,6.275,5.652,-87.977,2.301,6.183,-5.752,52.786,-35.191,-87.977
2.75,-1.964,5.652,-5.413,-82.111,2.108,5.94,5.7,-87.977,2.301,5.752,-5.752,52.786,-35.191,-87.977
2.755,-1.916,5.365,-5.461,-82.111,2.012,5.604,5.796,-87.977,2.157,5.464,-5.896,46.921,-35.191,-87.977
2.7600000000000002,-1.916,5.03,-5.604,-82.111,2.012,5.317,5.844,-82.111,2.157,5.177,-5.896,46.921,-35.191,-82.111
2.765,-1.868,4.79,-5.796,-76.246,1.964,5.03,6.083,-82.111,2.013,4.889,-6.04,41.056,-35.191,-82.111
2.77,-1.868,4.646,-5.94,-76.246,1.964,4.79,6.227,-82.111,2.013,4.602,-6.327,41.056,-35.191,-82.111
2.775,-1.724,4.455,-6.131,-70.381,1.868,4.598,6.419,-76.246,2.013,4.314,-6.471,35.191,-35.191,-76.246
2.7800000000000002,-1.677,4.119,-6.323,-70.381,1.772,4.359,6.61,-70.381,1.869,4.17,-6.615,35.191,-35.191,-70.381
2.785,-1.629,3.736,-6.467,-64.516,1.677,3.976,6.754,-70.381,1.726,3.883,-6.759,29.326,-35.191,-70.381
2.79,-1.533,3.257,-6.658,-64.516,1.533,3.593,6.946,-64.516,1.582,3.451,-7.046,29.326,-35.191,-70.381
2.795,-1.437,2.635,-6.85,-58.651,1.437,3.066,7.137,-64.516,1.438,2.876,-7.19,23.46,-35.191,-64.516
2.8000000000000003,-1.341,2.06,-6.898,-52.786,1.341,2.443,7.233,-58.651,1.15,2.301,-7.334,23.46,-35.191,-58.651
2.805,-1.198,1.437,-6.993,-46.921,1.198,1.82,7.329,-52.786,1.007,1.726,-7.478,17.595,-35.191,-52.786
2.81,-1.198,0.958,-7.089,-41.056,1.15,1.245,7.425,-46.921,1.007,1.15,-7.478,5.865,-29.326,-46.921
2.815,-1.198,0.623,-7.137,-29.326,1.15,0.862,7.52,-35.191,1.007,0.719,-7.621,5.865,-29.326,-41.056
2.82,-1.293,0.479,-7.185,-17.595,1.15,0.719,7.568,-23.46,1.007,0.575,-7.621,5.865,-23.46,-29.326
2.825,-1.341,0.479,-7.281,-11.73,1.293,0.766,7.616,-11.73,1.007,0.719,-7.765,5.865,-23.46,-17.595
2.83,-1.341,0.623,-7.329,-0.0,1.293,0.91,7.712,-5.865,1.15,1.007,-7.765,5.865,-23.46,-5.865
2.835,-1.293,0.766,-7.52,11.73,1.198,1.006,7.808,5.865,0.863,1.007,-7.909,5.865,-17.595,0.0
2.84,-1.389,1.006,-7.472,17.595,1.198,1.198,7.904,11.73,1.007,1.294,-8.053,5.865,-11.73,11.73
2.845,-1.198,1.485,-7.329,23.46,1.15,1.581,7.76,17.595,0.863,1.582,-7.909,5.865,-11.73,17.595
2.85,-1.198,1.629,-7.281,29.326,1.054,1.772,7.712,23.46,0.863,1.726,-7.765,17.595,-5.865,23.46
2.855,-1.437,1.772,-7.137,29.326,1.198,1.868,7.616,29.326,1.007,1.726,-7.765,17.595,-5.865,23.46
2.86,-1.437,1.916,-6.993,35.191,1.341,2.012,7.472,29.326,1.007,1.869,-7.621,17.595,0.0,29.326
2.865,-1.533,2.108,-6.898,35.191,1.437,2.203,7.329,35.191,1.15,2.013,-7.478,17.595,0.0,29.326
2.87,-1.629,2.395,-6.706,41.056,1.485,2.491,7.185,35.191,1.294,2.301,-7.334,5.865,5.865,35.191
2.875,-1.677,2.73,-6.514,46.921,1.629,2.778,6.993,41.056,1.438,2.588,-7.19,5.865,11.73,41.056
2.88,-1.629,3.114,-6.227,46.921,1.629,3.161,6.802,46.921,1.582,2.876,-6.902,5.865,11.73,46.921
2.8850000000000002,-1.772,3.545,-5.94,52.786,1.629,3.545,6.419,52.786,1.582,3.451,-6.615,5.865,11.73,46.921
2.89,-1.82,4.072,-5.844,52.786,1.772,3.976,6.275,52.786,1.726,3.739,-6.327,5.865,17.595,52.786
2.895,-1.916,5.03,-5.7,58.651,1.916,4.646,6.131,58.651,2.013,4.17,-6.327,5.865,17.595,52.786
2.9,11.304,23.423,9.58,52.786,1.772,7.999,5.892,58.651,2.013,5.033,-6.04,5.865,17.595,58.651
2.9050000000000002,-8.862,8.191,-6.514,-35.191,-12.454,21.363,-5.173,-17.595,-15.243,52.918,10.929,-5.865,11.73,35.191
2.91,-9.436,20.741,-2.395,-46.921,19.926,15.041,8.526,-29.326,20.132,12.798,-9.347,-70.381,-11.73,-23.46
2.915,6.179,16.094,6.035,-76.246,0.048,14.657,-3.018,-76.246,10.21,12.511,-0.144,-111.437,-23.46,-58.651
2.92,1.82,9.053,1.724,-29.326,-5.604,14.897,-4.982,-58.651,-5.321,15.962,5.608,-158.358,-58.651,-70.381
2.9250000000000003,-0.048,10.203,-5.269,-41.056,-1.437,9.772,3.114,-29.326,-3.307,12.942,-1.007,-170.088,-82.111,-23.46
2.93,1.054,11.879,-4.934,-82.111,-1.916,12.598,5.796,-70.381,-2.588,13.23,-6.327,-146.628,-76.246,-58.651
2.935,0.0,12.885,-3.928,-87.977,-1.916,14.466,4.79,-87.977,-3.164,16.249,-5.177,-123.167,-64.516,-87.977
2.94,-1.341,13.268,-3.88,-76.246,0.479,15.424,3.928,-82.111,-0.575,17.975,-4.17,-99.707,-52.786,-87.977
2.945,-1.198,12.837,-4.119,-58.651,1.293,15.232,4.215,-64.516,1.582,17.831,-4.314,-64.516,-41.056,-70.381
2.95,-1.293,12.454,-4.359,-41.056,1.389,14.514,4.359,-52.786,2.013,16.825,-4.458,-35.191,-35.191,-58.651
2.955,-1.389,12.167,-5.413,-23.46,1.485,13.843,4.982,-35.191,2.013,15.674,-4.745,-5.865,-41.056,-41.056
2.96,-1.054,11.783,-6.706,-11.73,1.293,13.173,6.419,-17.595,1.582,14.38,-6.04,23.46,-46.921,-23.46
2.965,-1.629,11.161,-7.568,-5.865,0.383,12.167,7.281,-11.73,0.863,13.086,-7.19,41.056,-46.921,-11.73
2.97,-1.389,10.203,-8.43,-0.0,1.198,10.921,8.43,-5.865,0.575,11.504,-8.197,52.786,-46.921,-5.865
2.975,-1.245,9.484,-8.335,-11.73,0.814,10.011,8.766,-5.865,0.863,10.066,-8.916,52.786,-41.056,-5.865
2.98,-1.533,9.293,-8.526,-23.46,0.814,9.436,8.718,-17.595,0.288,9.347,-8.772,52.786,-35.191,-11.73
2.985,-1.677,9.149,-8.718,-35.191,1.245,9.053,8.957,-35.191,1.007,8.628,-9.059,52.786,-29.326,-23.46
2.99,-1.868,9.101,-8.622,-41.056,1.677,8.862,9.005,-41.056,1.438,8.053,-9.203,46.921,-23.46,-41.056
2.995,-1.533,8.909,-8.287,-46.921,1.629,8.622,8.814,-46.921,1.869,7.765,-9.059,35.191,-17.595,-46.921
3.0,-1.82,8.67,-7.904,-52.786,1.724,8.574,8.43,-52.786,2.013,7.765,-8.628,23.46,-17.595,-52.786
3.005,-1.629,8.574,-7.377,-64.516,1.533,8.814,7.951,-58.651,1.726,8.34,-8.197,5.865,-17.595,-58.651
3.0100000000000002,-1.533,8.909,-6.946,-76.246,1.293,9.245,7.472,-70.381,1.15,9.347,-7.621,5.865,-17.595,-70.381
3.015,-1.581,8.909,-6.61,-87.977,1.293,9.436,7.089,-82.111,1.294,9.635,-7.334,5.865,-17.595,-82.111
3.02,-1.581,9.005,-6.035,-93.842,1.485,9.532,6.61,-93.842,1.438,9.922,-6.902,5.865,-11.73,-87.977
3.025,-1.581,9.005,-5.604,-99.707,1.485,9.628,6.083,-99.707,1.582,9.922,-6.327,5.865,-11.73,-99.707
3.0300000000000002,-1.581,8.862,-5.077,-93.842,1.581,9.58,5.556,-99.707,1.726,9.922,-5.896,17.595,-5.865,-99.707
3.035,-1.437,9.053,-4.742,-93.842,1.485,9.58,5.125,-99.707,1.726,10.066,-5.321,23.46,-11.73,-99.707
3.04,-1.485,9.245,-4.359,-87.977,1.581,9.628,4.742,-93.842,1.869,9.778,-5.033,29.326,-11.73,-93.842
3.045,-1.389,9.484,-4.119,-76.246,1.533,9.772,4.455,-82.111,1.869,9.922,-4.745,35.191,-11.73,-87.977
3.0500000000000003,-1.245,9.676,-3.976,-70.381,1.389,9.867,4.263,-76.246,1.726,9.922,-4.458,41.056,-11.73,-82.111
3.055,-1.198,9.915,-3.88,-64.516,1.245,10.011,4.167,-70.381,1.582,10.066,-4.314,41.056,-11.73,-70.381
3.06,-1.198,10.155,-4.024,-58.651,1.245,10.251,4.215,-64.516,1.582,10.066,-4.314,41.056,-17.595,-64.516
3.065,-1.245,10.299,-4.167,-58.651,1.198,10.394,4.311,-58.651,1.438,10.21,-4.458,41.056,-17.595,-64.516
3.0700000000000003,-1.15,10.251,-4.407,-58.651,1.15,10.394,4.551,-58.651,1.438,10.21,-4.602,41.056,-17.595,-58.651
3.075,-1.102,10.011,-4.551,-58.651,1.102,10.155,4.742,-64.516,1.294,10.066,-4.889,35.191,-17.595,-58.651
3.08,-1.006,9.676,-4.79,-58.651,1.054,9.867,4.934,-64.516,1.294,9.635,-4.889,35.191,-17.595,-64.516
3.085,-1.102,9.293,-5.03,-64.516,1.102,9.58,5.173,-64.516,1.438,9.347,-5.177,29.326,-23.46,-64.516
3.09,-0.958,9.053,-5.317,-64.516,1.006,9.293,5.461,-64.516,1.294,9.203,-5.464,29.326,-23.46,-64.516
3.095,-0.91,8.862,-5.461,-64.516,0.862,9.053,5.652,-64.516,1.007,8.916,-5.752,23.46,-23.46,-64.516
3.1,-0.862,8.478,-5.604,-70.381,0.814,8.814,5.796,-70.381,1.007,8.628,-5.896,23.46,-23.46,-70.381
3.105,-1.006,8.047,-5.748,-70.381,0.862,8.574,5.94,-70.381,1.007,8.628,-6.04,17.595,-23.46,-70.381
3.11,-1.006,7.951,-5.748,-70.381,0.958,8.43,6.131,-76.246,1.15,8.628,-6.183,17.595,-23.46,-76.246
3.115,-0.958,7.951,-5.652,-70.381,0.91,8.335,5.988,-76.246,1.007,8.628,-6.183,17.595,-23.46,-70.381
3.12,-0.91,7.999,-5.604,-70.381,0.91,8.335,5.94,-70.381,1.15,8.484,-6.04,23.46,-23.46,-70.381
3.125,-0.766,8.143,-5.604,-64.516,0.814,8.43,5.892,-70.381,1.007,8.628,-6.04,29.326,-23.46,-70.381
3.13,-0.719,8.287,-5.509,-64.516,0.719,8.478,5.844,-70.381,1.007,8.628,-6.04,29.326,-23.46,-70.381
3.1350000000000002,-0.719,8.383,-5.413,-64.516,0.766,8.574,5.7,-64.516,1.007,8.628,-5.896,29.326,-23.46,-64.516
3.14,-0.814,8.574,-5.461,-64.516,0.814,8.766,5.748,-64.516,1.15,8.772,-5.896,29.326,-23.46,-70.381
3.145,-0.814,8.814,-5.509,-64.516,0.814,9.005,5.748,-64.516,1.15,9.059,-5.896,29.326,-23.46,-64.516
3.15,-0.814,8.909,-5.461,-58.651,0.766,9.197,5.796,-64.516,1.007,9.203,-5.896,35.191,-29.326,-64.516
3.1550000000000002,-0.814,9.053,-5.413,-64.516,0.814,9.293,5.748,-64.516,1.007,9.347,-5.896,35.191,-29.326,-64.516
3.16,-0.814,9.197,-5.317,-58.651,0.814,9.388,5.652,-64.516,1.007,9.491,-5.752,35.191,-29.326,-64.516
3.165,-0.766,9.293,-5.173,-58.651,0.766,9.436,5.509,-64.516,1.007,9.491,-5.608,41.056,-29.326,-64.516
3.17,-0.862,9.245,-5.03,-58.651,0.814,9.484,5.365,-64.516,1.007,9.491,-5.464,41.056,-29.326,-64.516
3.1750000000000003,-0.91,9.293,-5.03,-58.651,0.91,9.532,5.269,-64.516,1.15,9.635,-5.464,41.056,-29.326,-64.516
3.18,-1.006,9.436,-5.125,-58.651,0.958,9.676,5.509,-64.516,1.294,9.778,-5.464,41.056,-35.191,-64.516
3.185,-0.862,9.341,-4.982,-58.651,0.958,9.772,5.221,-64.516,1.15,9.922,-5.464,41.056,-35.191,-64.516
3.19,-0.862,9.388,-5.077,-58.651,0.719,9.82,5.317,-64.516,1.007,10.21,-5.464,41.056,-35.191,-64.516
3.1950000000000003,-0.862,9.197,-5.03,-58.651,0.862,9.724,5.365,-64.516,1.007,10.066,-5.464,46.921,-35.191,-64.516
3.2,-0.766,9.101,-4.934,-64.516,0.766,9.532,5.221,-64.516,1.007,9.778,-5.464,46.921,-35.191,-64.516
3.205,-0.623,8.957,-4.79,-58.651,0.671,9.341,5.077,-64.516,1.007,9.491,-5.321,52.786,-35.191,-64.516
3.21,-0.719,8.814,-4.598,-58.651,0.766,9.053,4.982,-64.516,1.007,9.203,-5.177,52.786,-35.191,-64.516
3.215,-0.623,8.766,-4.503,-58.651,0.766,8.909,4.838,-58.651,1.15,8.916,-5.033,52.786,-41.056,-64.516
3.22,-0.623,8.766,-4.455,-58.651,0.671,8.862,4.742,-58.651,1.007,8.772,-4.889,52.786,-41.056,-58.651
3.225,-0.575,8.622,-4.455,-52.786,0.671,8.814,4.742,-58.651,1.007,8.628,-4.889,52.786,-46.921,-58.651
3.23,-0.527,8.67,-4.407,-52.786,0.575,8.67,4.742,-58.651,0.863,8.484,-4.889,52.786,-46.921,-58.651
3.235,-0.431,8.622,-4.455,-52.786,0.431,8.67,4.742,-58.651,0.719,8.484,-4.889,52.786,-46.921,-58.651
3.24,-0.479,8.383,-4.455,-52.786,0.431,8.574,4.742,-58.651,0.575,8.484,-4.889,46.921,-46.921,-58.651
3.245,-0.479,8.047,-4.455,-58.651,0.575,8.191,4.742,-58.651,0.719,8.053,-4.889,46.921,-46.921,-58.651
3.25,-0.431,7.76,-4.455,-58.651,0.527,7.951,4.742,-58.651,0.863,7.765,-4.889,41.056,-52.786,-58.651
3.255,-0.335,7.568,-4.551,-58.651,0.335,7.664,4.79,-58.651,0.575,7.478,-4.889,41.056,-52.786,-58.651
3.2600000000000002,-0.383,7.425,-4.694,-52.786,0.335,7.472,4.934,-58.651,0.431,7.334,-5.033,41.056,-52.786,-58.651
3.265,-0.287,7.185,-4.838,-52.786,0.24,7.281,5.03,-58.651,0.288,7.046,-5.177,35.191,-52.786,-58.651
3.27,-0.192,7.137,-4.886,-52.786,0.096,7.089,5.221,-52.786,0.0,6.902,-5.321,29.326,-52.786,-52.786
3.275,-0.24,7.089,-4.982,-46.921,0.048,6.993,5.269,-52.786,-0.144,6.759,-5.321,29.326,-52.786,-52.786
3.2800000000000002,-0.24,7.041,-4.982,-46.921,0.048,6.946,5.317,-52.786,-0.144,6.615,-5.464,23.46,-52.786,-52.786
3.285,-0.096,7.089,-4.886,-46.921,-0.096,6.946,5.221,-46.921,-0.288,6.615,-5.464,23.46,-46.921,-46.921
3.29,0.0,7.185,-4.838,-46.921,-0.144,7.041,5.173,-46.921,-0.288,6.759,-5.321,17.595,-46.921,-46.921
3.295,0.0,7.329,-4.742,-46.921,-0.144,7.137,5.125,-46.921,-0.288,6.902,-5.321,5.865,-41.056,-46.921
3.3000000000000003,0.192,7.472,-4.598,-46.921,-0.24,7.281,4.982,-46.921,-0.288,6.902,-5.177,5.865,-41.056,-46.921
3.305,0.335,7.281,-4.359,-46.921,-0.383,7.185,4.742,-52.786,-0.431,6.902,-5.033,5.865,-35.191,-46.921
3.31,0.431,7.137,-4.119,-52.786,-0.431,6.993,4.551,-52.786,-0.288,6.759,-4.745,0.0,-35.191,-52.786
3.315,0.527,7.52,-4.455,-52.786,-0.383,6.898,4.359,-52.786,-0.288,6.615,-4.458,-5.865,-35.191,-52.786
3.3200000000000003,0.719,7.089,-3.832,-58.651,-0.479,6.898,4.598,-58.651,0.0,6.471,-4.745,-11.73,-41.056,-58.651
3.325,0.766,6.802,-3.209,-52.786,-0.431,6.754,3.784,-58.651,0.0,6.471,-4.17,-17.595,-41.056,-58.651
3.33,0.814,6.802,-2.922,-52.786,-0.431,6.658,3.305,-58.651,0.144,6.471,-3.595,-23.46,-46.921,-58.651
3.335,0.766,7.185,-3.018,-52.786,-0.383,6.802,3.209,-58.651,0.288,6.615,-3.307,-29.326,-52.786,-58.651
3.34,0.91,7.76,-3.401,-52.786,-0.671,7.281,3.88,-52.786,0.0,6.471,-3.883,-29.326,-58.651,-52.786
3.345,0.91,7.808,-3.018,-58.651,-0.575,7.52,3.497,-58.651,-0.144,7.046,-3.595,-35.191,-64.516,-58.651
3.35,0.862,7.712,-2.826,-58.651,-0.719,7.616,3.209,-58.651,-0.431,7.478,-3.451,-41.056,-70.381,-58.651
3.355,0.766,7.951,-2.682,-64.516,-0.479,7.664,3.066,-64.516,0.0,7.478,-3.307,-46.921,-76.246,-64.516
3.36,0.527,8.239,-2.682,-64.516,-0.335,7.856,2.97,-64.516,0.288,7.478,-3.164,-46.921,-82.111,-64.516
3.365,0.24,8.335,-2.635,-70.381,-0.096,8.095,2.97,-70.381,0.288,7.765,-3.164,-52.786,-93.842,-70.381
3.37,0.096,8.478,-2.682,-76.246,0.048,8.239,2.97,-76.246,0.431,7.909,-3.164,-52.786,-99.707,-70.381
3.375,0.048,8.622,-2.682,-76.246,0.144,8.383,3.018,-76.246,0.575,8.053,-3.164,-58.651,-105.572,-76.246
3.38,0.0,8.622,-2.587,-82.111,0.144,8.478,3.018,-82.111,0.575,8.197,-3.164,-64.516,-105.572,-82.111
3.3850000000000002,-0.048,8.526,-2.347,-82.111,0.144,8.526,2.826,-82.111,0.431,8.197,-3.02,-64.516,-111.437,-82.111
3.39,-0.096,8.239,-2.06,-87.977,0.192,8.43,2.539,-87.977,0.431,8.34,-2.876,-70.381,-117.302,-87.977
3.395,-0.24,7.951,-1.724,-87.977,0.287,8.335,2.251,-93.842,0.575,8.484,-2.588,-70.381,-117.302,-87.977
3.4,-0.479,7.664,-1.341,-93.842,0.479,8.191,1.868,-93.842,0.719,8.484,-2.157,-70.381,-123.167,-93.842
3.4050000000000002,-0.479,7.425,-1.054,-93.842,0.623,8.095,1.533,-99.707,0.863,8.628,-1.869,-70.381,-123.167,-93.842
3.41,-0.383,7.329,-0.719,-93.842,0.671,7.999,1.245,-99.707,1.15,8.628,-1.582,-64.516,-129.032,-99.707
3.415,-0.527,7.329,-0.479,-93.842,0.814,7.999,0.958,-99.707,1.294,8.628,-1.15,-52.786,-134.897,-99.707
3.42,-0.719,7.281,-0.287,-93.842,0.958,8.095,0.719,-99.707,1.438,8.916,-1.007,-46.921,-140.762,-93.842
3.4250000000000003,-0.719,7.377,-0.048,-93.842,1.054,8.191,0.527,-99.707,1.582,9.059,-0.719,-35.191,-146.628,-99.707
3.43,-0.719,7.472,0.0,-93.842,1.102,8.287,0.383,-99.707,1.726,9.203,-0.575,-23.46,-152.493,-93.842
3.435,-0.766,7.616,0.0,-93.842,1.15,8.335,0.335,-99.707,1.726,9.203,-0.575,-11.73,-158.358,-99.707
3.44,-0.814,7.856,-0.048,-93.842,1.245,8.43,0.383,-99.707,1.869,9.059,-0.575,5.865,-164.223,-99.707
3.4450000000000003,-0.814,8.143,-0.096,-93.842,1.293,8.526,0.479,-99.707,2.013,9.059,-0.719,17.595,-170.088,-99.707
3.45,-0.766,8.287,-0.192,-93.842,1.293,8.574,0.527,-99.707,2.013,8.916,-0.863,23.46,-181.818,-99.707
3.455,-0.958,8.383,-0.335,-93.842,1.437,8.574,0.671,-99.707,2.301,8.628,-0.863,29.326,-187.683,-99.707
3.46,-1.054,8.67,-0.527,-99.707,1.581,8.622,0.862,-99.707,2.445,8.628,-1.15,35.191,-199.413,-99.707
3.465,-1.054,9.053,-0.671,-99.707,1.629,8.814,1.102,-105.572,2.445,8.484,-1.294,35.191,-205.279,-105.572
3.47,-1.102,9.341,-0.91,-105.572,1.629,9.005,1.293,-105.572,2.588,8.484,-1.582,35.191,-217.009,-105.572
3.475,-1.245,9.436,-1.198,-111.437,1.724,9.005,1.581,-111.437,2.588,8.34,-1.869,35.191,-228.739,-111.437
3.48,-1.341,9.484,-1.533,-117.302,1.82,8.909,1.916,-123.167,2.732,8.053,-2.157,29.326,-234.604,-117.302
3.485,-1.533,9.388,-1.916,-123.167,1.964,8.766,2.299,-129.032,2.876,7.765,-2.588,17.595,-246.334,-123.167
3.49,-1.724,9.149,-2.251,-129.032,2.108,8.526,2.73,-134.897,2.876,7.334,-3.02,5.865,-258.064,-129.032
3.495,-1.964,8.766,-2.539,-140.762,2.203,8.239,3.066,-146.628,2.876,7.046,-3.451,-5.865,-263.93,-140.762
3.5,-2.251,8.335,-2.922,-146.628,2.347,7.904,3.401,-152.493,2.876,6.759,-3.883,-17.595,-269.795,-146.628
3.505,-2.203,7.951,-3.353,-152.493,2.443,7.52,3.832,-158.358,2.876,6.471,-4.314,-35.191,-281.525,-152.493
3.5100000000000002,-2.395,7.472,-3.736,-158.358,2.443,7.185,4.263,-164.223,2.876,6.183,-4.745,-46.921,-287.39,-158.358
3.515,-2.778,6.898,-4.311,-170.088,2.73,6.898,4.694,-170.088,3.02,6.04,-5.177,-52.786,-287.39,-164.223
3.52,-3.018,6.275,-4.934,-175.953,2.97,6.514,5.365,-181.818,3.164,5.896,-5.896,-64.516,-293.255,-175.953
3.525,-3.209,5.461,-5.604,-175.953,3.114,6.083,6.083,-187.683,3.164,5.752,-6.471,-70.381,-299.12,-181.818
3.5300000000000002,-3.353,4.551,-6.467,-181.818,3.161,5.556,6.802,-187.683,3.164,5.752,-7.19,-70.381,-299.12,-187.683
3.535,-3.401,3.64,-7.472,-181.818,3.114,4.934,7.712,-193.548,2.876,5.464,-8.053,-70.381,-299.12,-187.683
3.54,-3.64,2.73,-8.766,-181.818,3.161,4.263,8.909,-193.548,2.732,5.177,-9.059,-58.651,-299.12,-187.683
3.545,-3.64,1.964,-10.107,-175.953,3.257,3.64,10.203,-187.683,2.732,4.602,-10.354,-46.921,-293.255,-187.683
3.5500000000000003,-3.593,1.198,-11.544,-170.088,3.066,3.018,11.592,-181.818,2.588,4.17,-11.792,-29.326,-281.525,-181.818
3.555,-3.497,0.479,-13.029,-164.223,2.922,2.395,13.029,-175.953,2.157,3.739,-13.086,-17.595,-275.66,-175.953
3.56,-3.449,-0.048,-14.322,-152.493,2.778,1.772,14.37,-164.223,1.869,3.164,-14.524,5.865,-263.93,-164.223
3.565,-3.305,-0.479,-15.663,-140.762,2.587,1.15,15.663,-152.493,1.582,2.445,-15.674,29.326,-252.199,-158.358
3.5700000000000003,-2.922,-0.766,-17.1,-129.032,2.299,0.623,17.052,-140.762,1.15,1.582,-17.112,46.921,-234.604,-146.628
3.575,-2.395,-0.862,-18.346,-117.302,1.724,0.048,18.442,-129.032,0.863,0.719,-18.55,64.516,-217.009,-134.897
3.58,-2.06,-0.719,-19.352,-105.572,1.198,-0.335,19.495,-117.302,0.0,-0.144,-19.701,76.246,-199.413,-117.302
3.585,-1.724,-0.719,-20.262,-93.842,0.671,-0.527,20.453,-105.572,-0.719,-0.863,-20.563,87.977,-181.818,-105.572
3.59,-1.389,-0.719,-21.028,-82.111,0.24,-0.766,21.22,-93.842,-1.294,-1.294,-21.426,87.977,-164.223,-93.842
3.595,-1.102,-0.527,-21.507,-70.381,-0.192,-0.862,21.842,-82.111,-2.013,-1.726,-22.001,82.111,-140.762,-82.111
3.6,-0.671,-0.335,-21.651,-58.651,-0.719,-0.814,22.13,-70.381,-2.588,-1.869,-22.433,76.246,-117.302,-70.381
3.605,-0.431,-0.192,-21.411,-46.921,-1.102,-0.671,22.034,-58.651,-3.02,-1.869,-22.433,64.516,-93.842,-64.516
3.61,-0.287,0.048,-20.741,-35.191,-1.389,-0.431,21.555,-46.921,-3.451,-1.438,-22.001,52.786,-64.516,-46.921
3.615,-0.431,0.383,-19.974,-23.46,-1.245,0.096,20.837,-29.326,-3.451,-0.863,-21.282,46.921,-35.191,-35.191
3.62,-0.383,0.814,-18.968,-11.73,-1.198,0.671,19.926,-17.595,-3.307,0.144,-20.42,35.191,-5.865,-17.595
3.625,-0.527,1.581,-17.915,-0.0,-1.102,1.485,18.825,-5.865,-3.02,1.15,-19.413,29.326,23.46,-5.865
3.63,-0.479,2.156,-16.957,5.865,-0.91,2.251,17.867,5.865,-2.732,2.013,-18.406,29.326,46.921,0.0
3.6350000000000002,-0.383,2.635,-15.903,11.73,-0.814,2.778,16.861,11.73,-2.445,2.732,-17.4,29.326,76.246,5.865
3.64,-0.766,2.922,-14.657,17.595,-0.671,3.161,15.52,17.595,-2.013,3.307,-16.249,29.326,93.842,11.73
3.645,-0.623,3.114,-13.508,23.46,-0.24,3.353,14.466,23.46,-1.869,3.451,-14.811,29.326,117.302,17.595
3.65,-0.671,3.209,-12.358,23.46,-0.144,3.688,13.412,23.46,-1.15,3.739,-14.092,35.191,129.032,23.46
3.6550000000000002,-0.527,2.97,-11.209,29.326,-0.048,3.545,12.31,29.326,-0.863,3.883,-12.798,41.056,146.628,23.46
3.66,-0.575,2.73,-10.251,35.191,0.096,3.353,11.209,35.191,-0.575,3.595,-11.935,41.056,158.358,29.326
3.665,0.096,2.826,-8.574,46.921,0.096,3.018,9.963,41.056,-0.144,3.307,-10.641,46.921,164.223,35.191
3.67,0.0,2.491,-7.281,58.651,-0.096,2.922,8.478,52.786,-0.144,2.876,-9.059,52.786,175.953,46.921
3.6750000000000003,0.096,2.491,-6.035,70.381,0.431,2.874,7.185,70.381,0.575,3.164,-7.765,52.786,175.953,64.516
3.68,0.527,2.874,-4.838,76.246,-0.192,3.161,5.988,76.246,0.288,3.451,-6.615,58.651,175.953,70.381
3.685,0.335,3.401,-3.449,82.111,-0.24,3.545,4.551,82.111,-0.144,3.883,-5.177,64.516,170.088,76.246
3.69,0.383,4.167,-2.299,93.842,0.048,4.072,3.257,87.977,0.288,4.314,-3.883,70.381,164.223,82.111
3.6950000000000003,0.479,5.221,-1.293,99.707,-0.144,4.838,2.203,99.707,0.431,4.889,-2.732,76.246,164.223,93.842
3.7,0.623,6.467,-0.24,105.572,-0.192,5.796,1.245,105.572,0.288,5.608,-1.726,82.111,158.358,99.707
3.705,0.814,7.664,1.054,105.572,-0.096,6.946,0.048,105.572,0.431,6.471,-0.575,87.977,152.493,105.572
3.71,0.766,8.622,2.491,111.437,-0.287,7.951,-1.437,111.437,0.431,7.478,0.863,87.977,140.762,105.572
3.715,0.671,9.628,3.88,111.437,-0.048,9.053,-2.874,111.437,0.719,8.628,2.445,87.977,134.897,105.572
3.72,0.719,10.73,5.221,105.572,0.096,10.155,-4.263,105.572,1.15,9.922,3.739,87.977,123.167,105.572
3.725,0.766,11.783,6.562,99.707,0.24,11.257,-5.7,105.572,1.582,11.073,5.177,82.111,111.437,105.572
3.73,0.814,12.741,7.76,99.707,0.383,12.31,-7.041,99.707,1.869,12.079,6.615,87.977,93.842,99.707
3.735,1.006,13.747,8.478,93.842,0.479,13.173,-8.095,93.842,2.301,13.086,7.909,87.977,76.246,93.842
3.74,1.006,14.418,9.197,82.111,0.527,13.795,-8.814,87.977,2.876,13.373,8.628,87.977,52.786,87.977
3.745,1.198,15.136,9.436,76.246,0.431,14.322,-9.293,76.246,2.732,13.949,9.347,87.977,29.326,82.111
3.75,1.293,15.759,9.532,64.516,0.335,14.753,-9.436,70.381,2.732,14.092,9.491,82.111,-5.865,70.381
3.755,1.293,16.142,9.341,46.921,0.192,14.993,-9.436,52.786,2.588,13.949,9.491,70.381,-35.191,58.651
3.7600000000000002,1.198,16.286,8.909,29.326,0.192,15.136,-9.101,35.191,2.445,13.949,9.347,58.651,-64.516,41.056
3.765,1.006,16.286,8.478,11.73,0.287,15.136,-8.574,23.46,2.445,13.949,8.772,41.056,-87.977,29.326
3.77,0.719,16.142,8.095,-5.865,0.431,14.993,-8.143,5.865,2.445,13.661,8.197,23.46,-117.302,11.73
3.775,0.383,15.663,7.712,-17.595,0.719,14.753,-7.712,-11.73,2.588,13.373,7.765,5.865,-140.762,-11.73
3.7800000000000002,0.0,14.993,7.329,-35.191,1.054,14.37,-7.281,-35.191,3.02,13.23,7.19,-17.595,-170.088,-23.46
3.785,-0.383,14.418,6.802,-46.921,1.437,13.891,-6.754,-46.921,3.164,12.942,6.759,-35.191,-193.548,-41.056
3.79,-0.623,14.035,6.179,-58.651,1.533,13.412,-6.035,-58.651,3.595,12.654,5.896,-46.921,-217.009,-58.651
3.795,-1.15,13.843,5.461,-70.381,2.156,13.316,-5.413,-70.381,3.883,12.367,5.177,-64.516,-234.604,-64.516
3.8000000000000003,-1.677,13.843,4.359,-82.111,2.443,13.364,-4.407,-82.111,4.17,12.511,4.17,-76.246,-263.93,-76.246
3.805,-2.299,13.843,3.257,-87.977,2.97,13.46,-3.161,-87.977,4.458,12.654,3.02,-87.977,-281.525,-82.111
3.81,-3.018,13.891,1.964,-93.842,3.497,13.556,-1.868,-93.842,4.889,12.798,1.582,-93.842,-299.12,-93.842
3.815,-3.593,13.747,0.623,-105.572,3.928,13.652,-0.527,-105.572,4.889,12.798,0.144,-99.707,-316.715,-99.707
3.8200000000000003,-4.119,13.508,-0.814,-117.302,4.119,13.556,0.958,-117.302,4.889,12.942,-1.438,-105.572,-334.311,-111.437
3.825,-4.551,12.933,-2.012,-134.897,4.359,13.268,2.347,-134.897,4.745,12.654,-2.876,-117.302,-346.041,-129.032
3.83,-5.317,11.64,-2.874,-152.493,4.934,12.502,3.353,-158.358,5.177,12.079,-4.026,-123.167,-351.906,-146.628
3.835,-5.94,9.963,-3.449,-164.223,5.7,11.352,4.119,-170.088,5.752,11.36,-4.889,-123.167,-357.771,-164.223
3.84,-6.275,8.335,-4.024,-170.088,6.131,10.203,4.694,-181.818,6.327,10.641,-5.464,-123.167,-357.771,-175.953
3.845,-6.371,7.041,-4.838,-175.953,6.275,9.149,5.317,-181.818,6.327,10.21,-6.04,-117.302,-357.771,-175.953
3.85,-6.467,6.275,-5.892,-170.088,6.323,8.335,6.275,-181.818,6.327,9.778,-6.902,-105.572,-357.771,-175.953
3.855,-6.658,6.083,-7.233,-170.088,6.61,7.808,7.425,-181.818,6.615,9.059,-7.909,-87.977,-357.771,-175.953
3.86,-6.85,6.323,-8.957,-164.223,6.754,7.664,9.005,-175.953,6.902,8.628,-9.347,-64.516,-357.771,-175.953
3.865,-7.041,6.706,-10.825,-158.358,6.802,7.808,10.825,-170.088,6.759,8.34,-11.073,-41.056,-357.771,-170.088
3.87,-6.802,7.137,-12.789,-146.628,6.514,7.951,12.741,-158.358,6.327,8.197,-13.086,-23.46,-351.906,-158.358
3.875,-6.467,7.52,-14.753,-134.897,5.892,8.143,14.705,-146.628,5.464,8.053,-14.955,-11.73,-346.041,-146.628
3.88,-6.179,7.664,-16.526,-129.032,5.269,8.191,16.526,-134.897,4.458,7.765,-16.825,-5.865,-340.176,-140.762
3.8850000000000002,-5.94,7.52,-18.058,-123.167,4.646,7.999,18.106,-134.897,3.451,7.478,-18.406,-5.865,-322.581,-129.032
3.89,-5.413,7.137,-19.208,-117.302,4.167,7.568,19.447,-129.032,2.732,6.902,-19.844,-5.865,-304.985,-129.032
3.895,-5.125,6.275,-19.974,-123.167,3.497,6.946,20.262,-129.032,1.869,6.327,-20.707,-5.865,-281.525,-123.167
3.9,-5.03,4.934,-20.645,-129.032,3.305,5.988,20.932,-129.032,1.294,5.608,-21.282,-17.595,-252.199,-129.032
3.9050000000000002,-4.982,3.449,-21.172,-129.032,3.353,4.694,21.459,-134.897,1.438,4.602,-21.858,-17.595,-228.739,-129.032
3.91,-4.838,1.964,-21.507,-123.167,3.305,3.401,21.89,-134.897,1.438,3.451,-22.289,-23.46,-199.413,-129.032
3.915,-4.694,0.575,-21.651,-111.437,3.209,2.156,22.082,-123.167,1.294,2.445,-22.433,-23.46,-170.088,-129.032
3.92,-4.503,-0.719,-21.747,-99.707,2.97,1.006,22.13,-111.437,1.15,1.582,-22.433,-23.46,-146.628,-117.302
3.9250000000000003,-4.311,-1.82,-21.747,-82.111,2.682,0.096,22.226,-93.842,0.575,1.007,-22.433,-17.595,-117.302,-99.707
3.93,-3.928,-2.299,-21.316,-64.516,2.443,-0.575,22.034,-76.246,0.288,0.431,-22.289,-5.865,-87.977,-82.111
3.935,-3.688,-2.395,-20.31,-46.921,2.299,-0.958,21.316,-58.651,0.431,0.0,-21.858,5.865,-52.786,-64.516
3.94,-5.844,-2.682,-19.687,-17.595,2.778,-1.15,20.166,-35.191,0.431,-0.288,-20.707,23.46,-23.46,-41.056
3.9450000000000003,-4.359,-0.431,-19.974,-0.0,4.072,0.0,20.405,-5.865,0.863,0.431,-20.563,41.056,0.0,-11.73
3.95,-2.874,2.203,-18.921,-0.0,1.581,1.82,20.118,5.865,0.863,2.301,-20.707,52.786,41.056,5.865
3.955,-3.88,3.593,-17.292,-0.0,1.341,3.736,18.537,0.0,-0.288,3.451,-19.269,70.381,70.381,0.0
3.96,-4.598,3.688,-16.526,11.73,3.257,4.167,17.388,5.865,1.007,3.739,-17.831,76.246,93.842,0.0
3.9650000000000003,-4.598,4.934,-14.562,23.46,3.688,4.551,15.999,17.595,2.876,4.314,-16.968,76.246,117.302,17.595
3.97,-3.688,5.077,-13.412,17.595,3.449,5.748,14.466,17.595,2.445,5.177,-15.099,76.246,134.897,23.46
3.975,-4.167,5.317,-12.598,23.46,2.826,5.461,13.412,17.595,2.301,5.177,-13.949,76.246,152.493,11.73
3.98,-4.024,4.79,-11.783,35.191,4.024,5.269,12.837,29.326,3.164,4.745,-13.373,76.246,164.223,23.46
3.985,-3.688,4.646,-10.442,46.921,3.593,4.886,11.592,46.921,3.883,4.458,-12.367,70.381,175.953,35.191
3.99,-3.018,4.598,-9.197,58.651,3.449,4.838,10.394,52.786,3.451,4.458,-11.073,64.516,175.953,52.786
3.995,-2.299,4.598,-7.568,64.516,3.688,4.455,10.394,64.516,3.307,4.745,-10.066,64.516,181.818,58.651
4.0,-2.347,5.317,-6.754,70.381,2.347,5.652,7.664,70.381,3.451,5.177,-8.484,58.651,181.818,64.516
4.005,-2.251,5.413,-5.413,76.246,2.395,5.988,6.562,76.246,2.013,6.183,-7.046,58.651,181.818,70.381
4.01,-1.677,6.61,-3.593,70.381,2.491,6.562,5.03,76.246,3.307,6.902,-6.04,64.516,181.818,70.381
4.015,-2.491,6.898,-2.299,70.381,2.539,7.089,3.161,70.381,3.307,7.046,-3.739,70.381,175.953,70.381
4.0200000000000005,-2.251,7.616,-1.437,76.246,3.209,7.425,2.299,76.246,3.883,7.19,-2.732,76.246,170.088,70.381
4.025,-1.581,8.335,-0.192,82.111,2.778,8.095,1.293,82.111,4.314,7.621,-1.869,76.246,158.358,76.246
4.03,-1.724,8.718,1.006,87.977,2.491,8.67,-0.096,87.977,3.883,8.197,-0.431,76.246,146.628,82.111
4.035,-1.581,8.957,1.724,93.842,2.347,9.388,-1.15,93.842,3.307,9.347,0.863,76.246,129.032,87.977
4.04,-0.527,10.155,2.922,87.977,1.15,10.538,-1.964,93.842,2.013,11.36,1.438,76.246,117.302,93.842
4.045,-0.431,11.209,4.024,70.381,0.671,11.544,-3.257,82.111,1.15,12.223,2.876,87.977,111.437,82.111
4.05,-0.671,11.927,4.982,46.921,1.006,12.262,-4.263,58.651,1.726,12.942,3.883,99.707,105.572,64.516
4.055,-0.527,12.646,5.892,35.191,1.485,12.885,-5.173,41.056,2.588,13.373,4.889,111.437,93.842,41.056
4.0600000000000005,-0.24,13.125,6.946,23.46,1.485,13.268,-6.275,23.46,3.164,13.661,5.896,117.302,82.111,23.46
4.065,-0.335,13.412,7.856,11.73,1.629,13.508,-7.281,11.73,3.451,13.661,7.046,123.167,64.516,17.595
4.07,0.048,13.843,8.43,5.865,1.629,13.699,-7.999,11.73,3.595,13.805,7.765,129.032,41.056,11.73
4.075,0.096,14.466,8.814,-5.865,1.437,14.035,-8.239,0.0,3.883,13.805,8.197,129.032,17.595,0.0
4.08,0.192,14.849,8.622,-11.73,1.485,14.226,-8.574,-11.73,3.595,13.661,8.628,129.032,-5.865,-5.865
4.085,0.144,15.328,8.239,-17.595,1.245,14.466,-8.287,-17.595,3.595,13.661,8.34,123.167,-35.191,-11.73
4.09,0.048,15.663,7.904,-35.191,1.245,14.657,-7.999,-29.326,3.307,13.661,8.053,111.437,-58.651,-23.46
4.095,-0.287,15.663,7.233,-52.786,1.341,14.562,-7.425,-46.921,3.164,13.23,7.621,99.707,-87.977,-41.056
4.1,-0.623,15.472,6.61,-70.381,1.677,14.274,-6.706,-64.516,3.451,12.798,6.902,82.111,-111.437,-58.651
4.105,-0.814,15.089,6.083,-87.977,1.82,13.939,-6.083,-82.111,3.595,12.367,6.183,64.516,-134.897,-76.246
4.11,-1.102,14.37,5.652,-105.572,1.964,13.508,-5.604,-105.572,3.595,11.935,5.608,41.056,-158.358,-99.707
4.115,-1.341,13.412,5.173,-123.167,2.203,12.837,-5.125,-123.167,3.739,11.36,5.177,17.595,-175.953,-117.302
4.12,-1.724,12.358,4.694,-140.762,2.395,11.975,-4.551,-140.762,3.739,10.929,4.458,-5.865,-193.548,-134.897
4.125,-2.299,11.544,4.167,-152.493,2.778,11.257,-4.024,-152.493,3.883,10.354,3.883,-17.595,-211.144,-152.493
4.13,-2.635,10.634,3.497,-158.358,3.305,10.49,-3.305,-164.223,4.17,9.635,3.164,-35.191,-228.739,-158.358
4.135,-2.682,10.203,2.73,-170.088,3.353,10.059,-2.587,-170.088,4.458,9.203,2.445,-46.921,-246.334,-164.223
4.14,-3.209,9.724,1.82,-175.953,3.449,9.724,-1.677,-181.818,4.314,9.059,1.582,-52.786,-258.064,-175.953
4.1450000000000005,-3.449,9.197,0.814,-181.818,3.736,9.436,-0.671,-187.683,4.314,8.916,0.431,-64.516,-269.795,-187.683
4.15,-3.736,8.718,-0.096,-187.683,3.832,9.005,0.335,-193.548,4.314,8.628,-0.575,-64.516,-281.525,-187.683
4.155,-3.688,8.335,-1.054,-193.548,3.832,8.67,1.293,-199.413,4.17,8.34,-1.582,-64.516,-287.39,-193.548
4.16,-3.784,7.904,-1.916,-199.413,3.736,8.335,2.203,-205.279,4.026,8.053,-2.588,-70.381,-287.39,-199.413
4.165,-3.88,7.425,-2.682,-199.413,3.832,7.904,3.018,-211.144,3.883,7.765,-3.451,-70.381,-293.255,-205.279
4.17,-3.832,6.946,-3.305,-199.413,3.784,7.568,3.688,-211.144,3.883,7.478,-4.17,-64.516,-293.255,-205.279
4.175,-3.736,6.467,-3.976,-199.413,3.688,7.329,4.359,-205.279,3.739,7.478,-4.745,-64.516,-293.255,-205.279
4.18,-3.64,6.035,-4.742,-193.548,3.497,7.041,5.077,-205.279,3.451,7.478,-5.464,-58.651,-293.255,-199.413
4.1850000000000005,-3.497,5.892,-5.556,-193.548,3.353,6.85,5.844,-205.279,3.307,7.478,-6.183,-46.921,-287.39,-199.413
4.19,-3.401,5.892,-6.467,-193.548,3.161,6.706,6.706,-205.279,3.02,7.19,-7.046,-35.191,-287.39,-199.413
4.195,-3.257,5.748,-7.281,-193.548,2.97,6.514,7.568,-199.413,2.732,6.902,-7.909,-23.46,-281.525,-199.413
4.2,-2.97,5.556,-7.999,-187.683,2.778,6.083,8.287,-193.548,2.588,6.183,-8.628,-17.595,-275.66,-193.548
4.205,-2.539,5.317,-8.67,-181.818,2.443,5.652,9.005,-193.548,2.301,5.464,-9.347,-5.865,-269.795,-187.683
4.21,-2.539,4.838,-9.341,-175.953,2.299,5.03,9.772,-187.683,2.157,4.745,-10.066,-5.865,-263.93,-187.683
4.215,-2.06,4.072,-10.011,-170.088,1.724,4.359,10.346,-181.818,1.294,3.883,-10.641,-5.865,-258.064,-181.818
4.22,-1.772,3.353,-10.873,-158.358,1.389,3.736,11.113,-170.088,0.863,3.451,-11.36,-11.73,-252.199,-170.088
4.225,-1.341,2.443,-11.736,-152.493,1.245,2.826,11.975,-158.358,1.007,2.588,-12.223,-11.73,-246.334,-164.223
4.23,-1.198,1.389,-12.598,-146.628,0.814,1.724,12.837,-152.493,0.575,1.294,-13.086,-17.595,-234.604,-152.493
4.235,-1.15,0.383,-13.556,-134.897,0.527,0.575,13.699,-146.628,-0.288,0.0,-13.805,-17.595,-228.739,-146.628
4.24,-0.862,-0.479,-14.705,-117.302,0.383,-0.383,14.801,-134.897,-0.431,-1.007,-14.811,-23.46,-222.874,-140.762
4.245,-0.671,-1.15,-15.903,-105.572,-0.096,-1.054,15.951,-117.302,-1.007,-1.726,-15.962,-29.326,-211.144,-117.302
4.25,-0.335,-1.533,-17.196,-87.977,-0.719,-1.245,17.196,-99.707,-2.157,-1.726,-17.112,-41.056,-193.548,-105.572
4.255,0.144,-1.389,-18.346,-76.246,-1.389,-1.054,18.394,-87.977,-3.02,-1.007,-18.406,-41.056,-175.953,-93.842
4.26,0.527,-0.91,-19.256,-70.381,-2.012,-0.623,19.4,-82.111,-3.883,-0.431,-19.413,-41.056,-152.493,-82.111
4.265,0.766,-0.479,-19.879,-64.516,-2.491,-0.096,20.07,-70.381,-4.602,0.144,-20.276,-35.191,-129.032,-70.381
4.2700000000000005,0.719,0.0,-20.31,-58.651,-2.778,0.383,20.597,-64.516,-5.033,0.719,-20.707,-29.326,-99.707,-64.516
4.275,0.048,0.287,-20.405,-46.921,-2.156,0.766,20.789,-58.651,-4.745,1.15,-20.995,-23.46,-70.381,-58.651
4.28,0.479,0.766,-20.022,-29.326,-1.868,1.006,20.789,-41.056,-4.026,1.294,-21.139,-17.595,-41.056,-46.921
4.285,0.766,1.437,-19.064,-11.73,-2.347,1.533,20.022,-23.46,-4.17,1.582,-20.563,-5.865,-11.73,-29.326
4.29,0.287,1.485,-18.202,5.865,-2.156,1.868,19.016,-5.865,-4.314,1.869,-19.557,-5.865,17.595,-11.73
4.295,0.527,1.964,-16.861,17.595,-1.868,2.156,18.058,11.73,-3.739,2.445,-18.694,0.0,46.921,5.865
4.3,0.623,2.682,-15.424,23.46,-2.108,2.587,16.573,23.46,-3.739,2.588,-17.256,5.865,70.381,17.595
4.305,1.054,3.018,-14.466,29.326,-2.682,3.305,15.376,29.326,-4.745,3.307,-15.962,5.865,99.707,23.46
4.3100000000000005,1.198,3.545,-13.508,35.191,-2.682,3.784,14.562,35.191,-4.745,4.314,-15.099,5.865,123.167,29.326
4.315,0.91,3.928,-12.167,29.326,-2.108,4.119,13.412,35.191,-3.451,4.458,-14.092,17.595,152.493,29.326
4.32,0.192,3.928,-10.825,29.326,-1.293,4.215,11.927,29.326,-2.588,4.314,-12.654,29.326,170.088,23.46
4.325,0.335,3.784,-9.867,35.191,-0.766,3.976,10.921,35.191,-1.726,4.026,-11.504,29.326,181.818,29.326
4.33,0.335,3.64,-8.574,46.921,-0.575,3.688,9.82,41.056,-0.863,3.595,-10.497,29.326,199.413,35.191
4.335,0.144,3.497,-7.472,58.651,-0.24,3.545,8.526,58.651,-0.431,3.307,-9.203,29.326,205.279,46.921
4.34,0.527,3.64,-6.562,76.246,-0.287,3.736,7.52,70.381,-0.288,3.739,-8.197,29.326,205.279,64.516
4.345,0.623,4.167,-5.844,82.111,-0.719,4.215,6.706,82.111,-0.719,4.458,-7.19,29.326,211.144,76.246
4.3500000000000005,0.623,5.077,-5.509,87.977,-0.814,5.03,6.179,87.977,-1.007,5.177,-6.615,35.191,211.144,82.111
4.355,0.479,5.892,-5.173,82.111,-0.719,5.604,5.844,87.977,-0.863,5.752,-6.327,41.056,211.144,82.111
4.36,0.192,6.419,-4.79,87.977,-0.287,5.988,5.509,87.977,-0.288,5.752,-6.04,46.921,211.144,82.111
4.365,0.144,6.706,-4.263,87.977,0.048,6.275,5.03,87.977,0.288,5.752,-5.608,46.921,211.144,82.111
4.37,0.287,7.185,-3.545,93.842,-0.096,6.61,4.455,93.842,0.144,6.04,-5.033,41.056,211.144,87.977
4.375,0.335,7.425,-2.73,93.842,-0.335,6.993,3.593,93.842,-0.144,6.327,-4.17,35.191,211.144,93.842
4.38,0.096,7.472,-1.724,93.842,-0.24,7.329,2.682,99.707,-0.144,6.902,-3.307,29.326,205.279,93.842
4.385,0.0,7.664,-0.575,93.842,0.0,7.712,1.629,93.842,0.0,7.621,-2.301,29.326,205.279,93.842
4.39,0.0,8.047,0.575,87.977,0.144,8.191,0.431,93.842,0.288,8.34,-1.15,29.326,205.279,93.842
4.3950000000000005,-0.096,8.622,1.772,87.977,0.287,8.718,-0.766,93.842,0.719,9.059,0.144,29.326,205.279,87.977
4.4,-0.383,9.197,2.874,93.842,0.671,9.388,-1.964,93.842,1.15,9.778,1.438,41.056,199.413,87.977
4.405,-0.383,9.963,3.928,93.842,1.006,10.059,-3.066,93.842,1.726,10.497,2.588,46.921,193.548,93.842
4.41,-0.287,10.825,4.934,93.842,1.15,10.873,-4.119,99.707,2.157,11.216,3.595,52.786,181.818,93.842
4.415,-0.048,11.831,5.796,99.707,1.102,11.688,-5.125,99.707,2.445,11.935,4.745,64.516,170.088,93.842
4.42,0.24,12.789,6.61,99.707,0.958,12.502,-5.988,99.707,2.445,12.511,5.608,70.381,158.358,99.707
4.425,0.575,13.699,7.041,93.842,0.766,13.173,-6.706,99.707,2.445,13.086,6.471,76.246,140.762,93.842
4.43,0.623,14.705,7.041,87.977,0.623,13.843,-7.137,87.977,2.588,13.517,7.046,76.246,117.302,87.977
4.4350000000000005,1.006,15.424,8.335,76.246,1.054,14.226,-7.76,82.111,3.739,12.511,7.19,76.246,93.842,82.111
4.44,1.293,15.472,7.616,70.381,0.383,14.705,-7.664,76.246,2.301,13.805,7.909,64.516,70.381,76.246
4.445,0.958,17.388,6.419,58.651,-0.144,15.136,-7.425,58.651,2.013,13.805,7.765,52.786,41.056,64.516
4.45,1.772,17.436,6.467,41.056,-0.24,15.663,-6.754,46.921,2.588,13.661,6.471,41.056,17.595,52.786
4.455,1.533,17.723,5.796,17.595,-0.527,16.382,-6.035,29.326,1.582,14.955,6.327,17.595,-11.73,35.191
4.46,0.958,18.633,4.934,-0.0,0.287,16.573,-5.269,5.865,2.157,14.668,5.608,-5.865,-41.056,11.73
4.465,1.15,19.447,4.263,-17.595,0.479,17.436,-4.359,-11.73,3.02,15.387,4.602,-29.326,-64.516,-5.865
4.47,0.766,18.968,3.736,-35.191,0.144,17.675,-3.784,-29.326,2.445,15.674,3.883,-52.786,-93.842,-23.46
4.4750000000000005,0.287,18.585,3.161,-46.921,0.623,17.484,-3.257,-46.921,2.301,15.818,3.164,-82.111,-123.167,-41.056
4.48,0.0,18.442,2.395,-58.651,0.623,17.388,-2.491,-58.651,2.445,15.962,2.445,-105.572,-146.628,-52.786
4.485,0.287,17.484,1.964,-76.246,0.719,17.148,-1.724,-70.381,2.301,15.674,1.582,-129.032,-164.223,-64.516
4.49,-0.91,16.669,1.341,-93.842,0.91,16.047,-1.245,-87.977,2.013,14.955,1.15,-146.628,-187.683,-82.111
4.495,-0.623,15.472,0.479,-99.707,1.293,15.328,-0.287,-99.707,2.445,14.236,-0.0,-164.223,-199.413,-93.842
4.5,-1.198,14.705,-0.287,-111.437,1.341,14.226,0.575,-111.437,2.157,13.086,-0.863,-181.818,-217.009,-105.572
4.505,-1.581,13.508,-0.958,-123.167,1.437,13.364,1.341,-123.167,2.157,12.511,-1.869,-193.548,-228.739,-117.302
4.51,-1.964,12.167,-1.581,-129.032,1.772,12.55,2.06,-129.032,2.157,11.935,-2.588,-211.144,-240.469,-129.032
4.515,-2.395,10.586,-2.251,-129.032,2.156,11.592,2.682,-134.897,2.301,11.504,-3.307,-217.009,-246.334,-129.032
4.5200000000000005,-2.395,9.005,-3.209,-134.897,2.203,10.538,3.497,-134.897,2.301,11.073,-4.026,-222.874,-246.334,-134.897
4.525,-2.395,7.568,-4.215,-134.897,1.916,9.532,4.455,-140.762,1.726,10.785,-5.033,-222.874,-252.199,-134.897
4.53,-2.443,6.323,-5.317,-129.032,1.724,8.526,5.509,-140.762,1.15,10.354,-5.896,-211.144,-246.334,-134.897
4.535,-2.251,5.604,-6.419,-129.032,1.533,7.808,6.562,-134.897,0.719,9.778,-6.902,-187.683,-240.469,-134.897
4.54,-2.108,5.317,-7.281,-129.032,1.293,7.329,7.52,-134.897,0.431,9.347,-7.765,-164.223,-234.604,-129.032
4.545,-2.012,5.173,-7.999,-129.032,1.102,6.946,8.239,-134.897,0.144,8.772,-8.484,-134.897,-222.874,-134.897
4.55,-2.012,5.125,-8.67,-123.167,1.054,6.706,8.909,-134.897,-0.144,8.34,-9.059,-111.437,-205.279,-129.032
4.555,-1.868,5.173,-9.245,-123.167,1.006,6.514,9.484,-129.032,0.0,7.909,-9.635,-87.977,-193.548,-129.032
4.5600000000000005,-1.82,5.221,-9.772,-117.302,1.054,6.323,9.963,-129.032,0.144,7.478,-10.066,-64.516,-175.953,-129.032
4.565,-1.82,5.125,-10.346,-117.302,1.198,6.035,10.49,-123.167,0.431,6.902,-10.641,-46.921,-164.223,-123.167
4.57,-1.868,4.79,-11.113,-111.437,1.389,5.509,11.161,-117.302,0.719,6.04,-11.216,-35.191,-152.493,-117.302
4.575,-2.012,4.215,-11.879,-105.572,1.533,4.742,11.927,-117.302,1.15,4.745,-11.935,-29.326,-146.628,-111.437
4.58,-2.156,3.497,-12.885,-99.707,1.629,3.928,12.837,-111.437,1.15,3.739,-12.798,-23.46,-134.897,-111.437
4.585,-2.251,2.73,-13.891,-93.842,1.677,3.066,13.891,-99.707,1.15,2.732,-13.805,-29.326,-129.032,-99.707
4.59,-2.299,1.916,-14.753,-82.111,1.629,2.203,14.801,-87.977,0.863,1.726,-14.811,-29.326,-123.167,-93.842
4.595,-2.347,1.102,-15.472,-70.381,1.485,1.389,15.615,-82.111,0.575,0.863,-15.53,-41.056,-111.437,-82.111
4.6000000000000005,-2.347,0.335,-16.094,-58.651,1.389,0.575,16.286,-70.381,0.288,0.0,-16.249,-46.921,-99.707,-70.381
4.605,-2.682,-0.527,-16.573,-46.921,1.389,-0.096,16.861,-58.651,-0.144,-0.719,-16.825,-52.786,-82.111,-64.516
4.61,-2.97,-1.437,-16.861,-35.191,1.533,-0.719,17.244,-46.921,-0.288,-1.007,-17.256,-64.516,-64.516,-52.786
4.615,-2.97,-2.108,-16.813,-23.46,1.629,-1.245,17.34,-29.326,-0.288,-1.15,-17.4,-64.516,-41.056,-35.191
4.62,-3.114,-2.491,-16.478,-5.865,1.533,-1.581,17.196,-11.73,-0.575,-1.438,-17.544,-64.516,-17.595,-17.595
4.625,-3.353,-2.491,-15.807,17.595,1.772,-1.581,16.717,5.865,-0.431,-1.15,-16.968,-64.516,5.865,0.0
4.63,-3.688,-2.156,-14.753,35.191,2.156,-1.293,15.855,29.326,0.0,-0.863,-16.249,-58.651,35.191,23.46
4.635,-4.79,-2.203,-13.795,58.651,2.73,-0.814,14.61,46.921,0.575,-0.431,-15.099,-46.921,64.516,41.056
4.64,-4.694,-0.719,-13.46,76.246,3.545,0.144,14.466,70.381,1.15,1.15,-14.38,-35.191,93.842,64.516
4.6450000000000005,-3.353,1.389,-12.31,82.111,2.587,1.629,13.46,82.111,1.007,2.301,-13.949,-17.595,117.302,76.246
4.65,-4.503,1.581,-11.831,93.842,2.682,2.347,12.598,87.977,0.863,2.301,-13.086,0.0,146.628,82.111
4.655,-4.838,1.82,-10.825,105.572,3.832,2.826,11.975,99.707,1.869,3.164,-12.511,5.865,170.088,93.842
4.66,-4.455,2.299,-8.957,105.572,4.167,3.209,10.538,105.572,3.307,3.883,-11.36,17.595,193.548,105.572
4.665,-4.79,2.97,-7.233,105.572,4.359,3.832,8.574,111.437,4.026,4.314,-9.491,29.326,211.144,105.572
4.67,-4.79,3.401,-5.988,117.302,4.646,4.359,7.137,117.302,4.17,4.889,-7.909,41.056,217.009,111.437
4.675,-4.263,3.976,-4.934,123.167,4.742,4.694,6.131,123.167,4.889,5.177,-6.759,52.786,222.874,117.302
4.68,-4.072,4.646,-3.784,129.032,4.598,5.125,4.886,129.032,5.177,5.464,-5.608,70.381,222.874,123.167
4.6850000000000005,-3.88,5.269,-2.682,134.897,4.407,5.652,3.784,134.897,5.033,5.752,-4.458,76.246,222.874,129.032
4.69,-3.497,6.179,-1.629,140.762,4.072,6.323,2.682,140.762,4.602,6.471,-3.307,87.977,217.009,134.897
4.695,-3.114,7.329,-0.623,146.628,3.64,7.185,1.629,146.628,4.314,7.046,-2.301,93.842,211.144,140.762
4.7,-2.874,8.335,0.431,146.628,3.401,8.095,0.623,152.493,4.026,7.765,-1.15,99.707,205.279,146.628
4.705,-2.635,9.532,1.533,146.628,3.114,9.197,-0.527,152.493,3.739,8.772,-0.144,99.707,193.548,146.628
4.71,-2.299,10.921,2.682,152.493,2.97,10.442,-1.677,152.493,3.739,10.066,1.15,105.572,187.683,146.628
4.715,-1.868,12.262,3.928,146.628,2.635,11.831,-2.97,152.493,3.739,11.36,2.445,105.572,181.818,146.628
4.72,-1.772,13.46,5.077,134.897,2.443,13.22,-4.215,140.762,3.307,13.086,3.739,111.437,170.088,140.762
4.7250000000000005,-1.437,14.37,6.083,123.167,2.395,14.322,-5.365,134.897,3.739,14.236,4.889,111.437,158.358,129.032
4.73,-1.054,15.184,6.898,105.572,2.06,15.089,-6.323,117.302,3.595,15.099,5.896,111.437,140.762,117.302
4.735,-0.719,15.855,7.664,87.977,1.868,15.663,-7.137,99.707,3.595,15.53,6.759,117.302,129.032,99.707
4.74,-0.383,16.094,8.095,76.246,1.82,15.855,-7.76,82.111,3.739,15.674,7.621,123.167,105.572,82.111
4.745,-0.192,15.903,8.383,52.786,1.82,15.568,-8.191,64.516,4.026,15.243,8.053,117.302,87.977,70.381
4.75,0.048,15.568,8.478,35.191,1.677,15.089,-8.383,46.921,4.026,14.524,8.34,111.437,58.651,46.921
4.755,0.192,15.232,8.335,11.73,1.533,14.562,-8.383,23.46,3.883,13.661,8.484,99.707,29.326,29.326
4.76,0.144,14.849,7.856,-5.865,1.533,13.987,-8.095,0.0,4.026,12.942,8.34,87.977,0.0,5.865
4.765,-0.192,14.514,7.041,-23.46,1.677,13.508,-7.377,-17.595,4.026,12.223,7.765,76.246,-29.326,-11.73
4.7700000000000005,-0.479,14.514,5.94,-35.191,1.916,13.268,-6.371,-35.191,4.17,11.792,6.759,52.786,-64.516,-29.326
4.775,-0.623,14.61,4.934,-46.921,2.06,13.268,-5.269,-46.921,4.314,11.648,5.608,35.191,-93.842,-41.056
4.78,-0.91,14.418,3.832,-52.786,2.156,13.268,-4.167,-58.651,4.314,11.504,4.458,5.865,-117.302,-52.786
4.785,-1.245,14.37,2.73,-64.516,2.299,13.316,-2.97,-64.516,4.17,11.792,3.164,-11.73,-146.628,-58.651
4.79,-1.629,14.61,1.581,-76.246,2.491,13.604,-1.82,-76.246,4.17,12.079,2.013,-35.191,-170.088,-70.381
4.795,-2.251,14.897,0.192,-82.111,2.874,13.987,-0.527,-82.111,4.458,12.511,0.719,-52.786,-193.548,-82.111
4.8,-3.305,15.424,-1.485,-87.977,3.545,14.562,1.102,-93.842,4.889,13.086,-1.007,-70.381,-211.144,-87.977
4.805,-3.832,16.43,-3.353,-99.707,4.167,15.52,2.922,-99.707,5.177,14.092,-2.876,-82.111,-228.739,-93.842
4.8100000000000005,-3.88,17.819,-5.077,-117.302,4.263,16.813,4.838,-111.437,5.321,15.387,-4.889,-93.842,-246.334,-105.572
4.815,-4.407,17.723,-6.514,-134.897,4.119,17.771,6.419,-129.032,5.177,16.537,-6.471,-105.572,-258.064,-123.167
4.82,-5.892,17.1,-7.76,-146.628,4.982,17.723,7.76,-146.628,5.177,17.112,-8.053,-117.302,-263.93,-140.762
4.825,-5.748,16.286,-8.718,-158.358,5.7,17.292,8.957,-158.358,5.896,16.968,-9.347,-123.167,-269.795,-152.493
4.83,-6.85,14.657,-9.724,-175.953,5.556,16.382,9.436,-175.953,6.04,16.393,-9.922,-129.032,-269.795,-164.223
4.835,-6.754,13.029,-10.778,-181.818,6.179,15.089,11.017,-187.683,5.464,15.818,-11.216,-123.167,-269.795,-181.818
4.84,-6.419,11.975,-11.4,-187.683,5.7,13.987,11.783,-193.548,5.464,14.811,-12.223,-117.302,-263.93,-187.683
4.845,-6.706,10.634,-11.783,-193.548,5.604,12.933,12.167,-199.413,5.033,13.949,-12.511,-105.572,-258.064,-193.548
4.8500000000000005,-6.802,9.676,-12.262,-187.683,5.748,12.023,12.598,-199.413,4.889,13.517,-12.942,-87.977,-246.334,-199.413
4.855,-6.658,9.149,-12.694,-181.818,5.844,11.352,13.029,-193.548,5.033,12.798,-13.373,-70.381,-234.604,-193.548
4.86,-6.371,8.67,-12.885,-175.953,5.844,10.825,13.316,-181.818,5.321,12.079,-13.661,-46.921,-217.009,-181.818
4.865,-6.131,8.43,-12.933,-164.223,5.461,10.442,13.364,-175.953,4.889,11.792,-13.661,-29.326,-205.279,-175.953
4.87,-5.796,8.43,-12.837,-158.358,5.125,10.107,13.316,-170.088,4.458,11.36,-13.661,-5.865,-193.548,-170.088
4.875,-5.221,8.622,-12.837,-152.493,4.694,9.867,13.268,-164.223,4.17,10.785,-13.517,5.865,-175.953,-158.358
4.88,-4.694,8.862,-12.789,-152.493,4.119,9.676,13.268,-158.358,3.739,10.21,-13.517,35.191,-164.223,-158.358
4.885,-4.215,8.909,-12.741,-152.493,3.736,9.484,13.22,-158.358,3.164,9.491,-13.517,41.056,-152.493,-158.358
4.89,-3.928,8.43,-12.502,-152.493,3.545,8.909,13.029,-158.358,3.164,8.484,-13.373,46.921,-134.897,-158.358
4.8950000000000005,-3.545,7.616,-11.975,-146.628,3.353,8.047,12.646,-158.358,3.164,7.621,-13.086,46.921,-123.167,-152.493
4.9,-2.922,6.514,-11.304,-140.762,2.826,6.993,12.023,-152.493,2.732,6.471,-12.511,41.056,-117.302,-152.493
4.905,-2.395,5.509,-10.586,-134.897,2.203,5.892,11.352,-146.628,2.013,5.464,-11.648,35.191,-111.437,-146.628
4.91,-2.012,4.407,-10.011,-129.032,1.772,4.838,10.73,-134.897,1.438,4.314,-11.073,23.46,-99.707,-140.762
4.915,-1.629,3.305,-9.532,-123.167,1.389,3.736,10.203,-129.032,1.007,3.451,-10.497,17.595,-93.842,-134.897
4.92,-1.341,2.251,-9.101,-117.302,1.006,2.778,9.724,-123.167,0.575,2.588,-10.066,5.865,-87.977,-123.167
4.925,-0.91,1.437,-8.622,-105.572,0.671,1.964,9.245,-117.302,0.0,1.869,-9.491,5.865,-82.111,-117.302
4.93,-0.479,0.862,-8.095,-99.707,0.24,1.389,8.766,-105.572,-0.431,1.438,-9.059,0.0,-70.381,-105.572
4.9350000000000005,-0.24,0.575,-7.568,-87.977,0.0,1.054,8.239,-93.842,-0.575,1.294,-8.484,0.0,-58.651,-93.842
4.94,0.144,0.335,-6.898,-76.246,-0.24,0.862,7.712,-82.111,-0.719,1.15,-7.909,5.865,-52.786,-87.977
4.945,-0.144,0.096,-6.323,-58.651,-0.335,0.623,6.946,-70.381,-0.719,1.007,-7.19,5.865,-46.921,-70.381
4.95,0.144,0.575,-6.371,-46.921,-0.144,0.766,6.706,-52.786,-0.863,1.15,-6.759,5.865,-41.056,-58.651
4.955,1.341,1.629,-6.323,-35.191,-1.102,1.485,6.802,-41.056,-1.294,1.726,-6.902,23.46,-35.191,-46.921
4.96,1.293,2.06,-5.94,-35.191,-1.772,2.108,6.514,-41.056,-2.157,2.301,-6.759,29.326,-23.46,-41.056
4.965,1.15,2.299,-5.7,-29.326,-1.533,2.491,6.227,-35.191,-2.301,2.732,-6.471,35.191,-23.46,-41.056
4.97,1.485,3.161,-5.173,-23.46,-1.389,2.826,5.892,-29.326,-1.869,3.164,-6.183,41.056,-17.595,-35.191
4.9750000000000005,1.581,3.353,-4.072,-23.46,-1.677,3.736,4.742,-23.46,-1.869,3.883,-5.177,41.056,-5.865,-23.46
4.98,0.766,3.018,-4.694,-23.46,-1.677,3.449,4.886,-29.326,-2.588,4.026,-4.745,46.921,-5.865,-23.46
4.985,1.629,3.209,-5.173,-17.595,-1.293,3.353,5.365,-23.46,-1.582,3.883,-5.321,52.786,0.0,-23.46
4.99,1.485,3.497,-5.077,-5.865,-1.629,3.64,5.509,-11.73,-1.582,3.883,-5.608,64.516,5.865,-11.73
4.995,1.724,3.976,-4.79,-5.865,-1.964,3.976,5.221,-5.865,-2.301,4.314,-5.464,64.516,5.865,-5.865
5.0,2.156,4.455,-4.407,-0.0,-1.629,4.455,5.365,0.0,-2.301,4.745,-5.464,70.381,11.73,0.0
5.005,1.916,4.551,-3.401,5.865,-2.491,4.598,3.928,5.865,-2.301,4.745,-4.458,76.246,17.595,0.0
5.01,1.916,4.742,-3.305,11.73,-2.06,4.934,3.688,5.865,-2.301,5.321,-3.883,82.111,17.595,5.865
5.015,2.156,5.269,-3.449,11.73,-2.203,5.317,3.736,11.73,-2.301,5.752,-3.883,87.977,17.595,11.73
5.0200000000000005,2.682,6.131,-3.401,11.73,-2.539,5.748,3.832,11.73,-2.445,6.04,-4.026,93.842,17.595,11.73
5.025,2.635,6.706,-3.209,11.73,-2.635,6.179,3.64,11.73,-2.445,6.04,-3.883,99.707,23.46,11.73
5.03,2.682,7.185,-3.066,11.73,-2.635,6.562,3.401,11.73,-2.588,6.183,-3.595,99.707,23.46,11.73
5.035,2.97,7.616,-2.97,11.73,-2.826,6.946,3.353,11.73,-2.588,6.471,-3.595,93.842,17.595,11.73
5.04,3.066,8.095,-2.922,11.73,-3.018,7.281,3.257,11.73,-2.732,6.759,-3.451,87.977,17.595,11.73
5.045,3.209,8.478,-3.018,11.73,-3.161,7.664,3.257,11.73,-3.02,7.046,-3.451,87.977,11.73,11.73
5.05,3.305,8.718,-3.114,5.865,-3.449,7.999,3.353,11.73,-3.307,7.478,-3.451,76.246,11.73,11.73
5.055,3.353,8.909,-3.114,5.865,-3.545,8.191,3.401,5.865,-3.451,7.765,-3.595,70.381,11.73,5.865
5.0600000000000005,3.449,9.005,-3.066,-5.865,-3.64,8.335,3.353,0.0,-3.595,7.909,-3.595,64.516,5.865,0.0
5.065,3.497,8.862,-3.018,-11.73,-3.688,8.383,3.305,-5.865,-3.739,7.909,-3.451,52.786,5.865,-5.865
5.07,3.497,8.766,-2.97,-11.73,-3.64,8.335,3.257,-11.73,-3.595,8.053,-3.451,46.921,11.73,-11.73
5.075,3.401,8.574,-2.922,-17.595,-3.593,8.287,3.209,-17.595,-3.595,8.053,-3.307,41.056,11.73,-11.73
5.08,3.497,8.526,-2.826,-17.595,-3.593,8.191,3.161,-17.595,-3.595,8.053,-3.307,35.191,11.73,-17.595
5.085,3.401,8.43,-2.826,-17.595,-3.545,8.143,3.066,-17.595,-3.451,8.053,-3.164,35.191,11.73,-17.595
5.09,3.353,8.383,-2.922,-17.595,-3.497,8.143,3.114,-23.46,-3.451,8.197,-3.307,29.326,11.73,-23.46
5.095,3.353,8.383,-2.922,-17.595,-3.449,8.191,3.209,-17.595,-3.307,8.197,-3.307,29.326,5.865,-17.595
5.1000000000000005,3.257,8.43,-2.73,-11.73,-3.353,8.383,3.018,-17.595,-3.164,8.484,-3.164,29.326,5.865,-17.595
5.105,3.401,8.526,-2.874,-11.73,-3.593,8.478,3.018,-11.73,-3.451,8.772,-3.164,23.46,5.865,-17.595
5.11,3.305,8.718,-3.114,-11.73,-3.593,8.718,3.257,-11.73,-3.595,9.059,-3.307,29.326,5.865,-11.73
5.115,3.257,9.005,-3.305,-11.73,-3.497,8.957,3.449,-11.73,-3.595,9.347,-3.595,35.191,5.865,-11.73
5.12,3.209,9.341,-3.545,-11.73,-3.545,9.293,3.688,-11.73,-3.595,9.635,-3.739,35.191,5.865,-11.73
5.125,3.257,9.58,-3.449,-11.73,-3.401,9.58,3.784,-11.73,-3.307,9.922,-4.026,41.056,11.73,-11.73
5.13,3.449,9.724,-3.449,-11.73,-3.688,9.724,3.736,-11.73,-3.883,10.066,-3.883,46.921,11.73,-11.73
5.135,3.209,9.867,-3.497,-11.73,-3.688,9.772,3.736,-11.73,-3.739,10.066,-3.883,46.921,17.595,-11.73
5.14,3.353,9.867,-3.305,-17.595,-3.497,10.059,3.688,-17.595,-3.595,10.354,-3.883,52.786,17.595,-17.595
5.1450000000000005,3.209,9.724,-3.305,-23.46,-3.736,9.772,3.593,-23.46,-3.883,10.066,-3.739,52.786,17.595,-23.46
5.15,3.018,9.484,-3.401,-29.326,-3.353,9.628,3.64,-23.46,-3.307,9.922,-3.739,52.786,23.46,-23.46
5.155,2.826,9.149,-3.545,-29.326,-3.018,9.245,3.736,-29.326,-3.02,9.491,-3.883,58.651,23.46,-23.46
5.16,2.682,8.909,-3.688,-35.191,-2.826,8.909,3.88,-35.191,-2.732,9.059,-4.026,58.651,23.46,-35.191
5.165,2.539,8.67,-3.832,-35.191,-2.635,8.622,3.976,-35.191,-2.588,8.772,-4.17,58.651,23.46,-35.191
5.17,2.347,8.43,-3.736,-29.326,-2.587,8.478,4.024,-35.191,-2.445,8.628,-4.314,58.651,23.46,-35.191
5.175,2.203,8.191,-3.736,-29.326,-2.395,8.43,4.024,-29.326,-2.301,8.628,-4.17,64.516,23.46,-35.191
5.18,2.06,8.047,-3.736,-23.46,-2.203,8.287,4.024,-29.326,-2.157,8.628,-4.17,64.516,17.595,-29.326
5.1850000000000005,1.916,8.191,-3.88,-23.46,-2.012,8.287,4.072,-23.46,-1.869,8.628,-4.17,64.516,17.595,-23.46
5.19,1.724,8.622,-4.215,-17.595,-1.772,8.478,4.311,-17.595,-1.582,8.628,-4.314,70.381,17.595,-23.46
5.195,1.245,9.341,-4.598,-11.73,-1.341,9.053,4.694,-17.595,-1.007,9.059,-4.745,70.381,17.595,-17.595
5.2,1.389,10.251,-4.982,-5.865,-1.15,9.772,5.077,-5.865,-0.719,9.635,-5.033,76.246,11.73,-11.73
5.205,1.245,11.161,-5.317,-0.0,-1.198,10.634,5.413,0.0,-0.719,10.21,-5.464,76.246,5.865,-5.865
5.21,1.054,12.023,-5.604,5.865,-1.102,11.496,5.748,5.865,-0.719,11.073,-5.752,70.381,0.0,0.0
5.215,0.862,12.741,-5.844,5.865,-0.958,12.215,5.988,5.865,-0.575,11.648,-6.04,70.381,0.0,5.865
5.22,0.671,13.22,-6.035,5.865,-0.862,12.789,6.275,11.73,-0.575,12.223,-6.327,64.516,-5.865,5.865
5.2250000000000005,0.575,13.46,-6.227,5.865,-0.671,13.029,6.419,5.865,-0.575,12.511,-6.471,64.516,-5.865,5.865
5.23,0.527,13.891,-6.179,5.865,-0.623,13.364,6.419,5.865,-0.288,12.654,-6.615,52.786,-11.73,5.865
5.235,0.287,13.939,-6.131,-0.0,-0.431,13.556,6.419,5.865,0.0,12.798,-6.615,46.921,-11.73,5.865
5.24,0.192,13.939,-6.275,-0.0,-0.24,13.556,6.371,0.0,0.0,12.942,-6.471,41.056,-11.73,0.0
5.245,0.24,13.795,-5.988,-5.865,-0.24,13.412,6.323,-5.865,0.431,12.798,-6.615,29.326,-17.595,-5.865
5.25,0.24,13.508,-5.892,-11.73,-0.24,13.268,6.227,-11.73,0.288,12.654,-6.327,23.46,-17.595,-11.73
5.255,0.431,13.173,-5.796,-17.595,-0.431,13.029,6.083,-17.595,0.0,12.511,-6.183,5.865,-23.46,-11.73
5.26,0.24,12.789,-5.844,-23.46,-0.383,12.741,6.083,-17.595,-0.144,12.367,-6.183,0.0,-23.46,-23.46
5.265,0.383,12.215,-6.035,-23.46,-0.192,12.262,6.275,-23.46,0.0,11.792,-6.327,-5.865,-29.326,-23.46
5.2700000000000005,0.287,11.544,-6.323,-29.326,-0.431,11.592,6.467,-29.326,-0.144,11.216,-6.759,-17.595,-29.326,-23.46
5.275,-0.048,10.682,-6.275,-23.46,-0.24,10.921,6.658,-29.326,0.0,10.641,-6.759,-23.46,-29.326,-23.46
5.28,0.192,9.915,-6.035,-23.46,-0.287,10.346,6.371,-23.46,-0.288,10.497,-6.615,-29.326,-35.191,-23.46
5.285,0.192,9.388,-5.844,-17.595,-0.431,10.011,6.131,-23.46,-0.288,10.354,-6.327,-29.326,-29.326,-23.46
5.29,0.287,9.005,-5.652,-17.595,-0.479,9.867,5.988,-17.595,-0.575,10.354,-6.183,-29.326,-29.326,-17.595
5.295,0.479,8.862,-5.365,-11.73,-0.814,10.011,5.796,-11.73,-1.007,10.929,-6.04,-23.46,-29.326,-17.595
5.3,0.527,9.053,-5.125,-17.595,-1.054,10.299,5.461,-17.595,-1.15,11.792,-5.752,-11.73,-23.46,-17.595
5.305,0.479,9.341,-4.838,-17.595,-1.006,10.682,5.173,-17.595,-1.294,12.367,-5.321,5.865,-17.595,-17.595
5.3100000000000005,0.335,9.58,-4.838,-23.46,-0.719,10.921,5.03,-23.46,-1.007,12.654,-5.177,23.46,-11.73,-23.46
5.315,0.527,9.867,-4.79,-23.46,-0.623,11.017,5.125,-29.326,-0.575,12.511,-5.321,46.921,-5.865,-23.46
5.32,0.479,10.107,-4.646,-23.46,-0.719,11.017,4.982,-29.326,-0.575,12.223,-5.177,70.381,-5.865,-29.326
5.325,0.623,10.251,-4.455,-17.595,-0.766,10.969,4.838,-23.46,-0.719,11.935,-5.033,82.111,-5.865,-23.46
5.33,0.527,10.394,-4.407,-17.595,-0.862,10.969,4.551,-17.595,-0.863,11.648,-4.889,99.707,0.0,-23.46
5.335,0.766,10.346,-4.167,-11.73,-0.91,10.873,4.551,-17.595,-1.007,11.504,-4.745,111.437,0.0,-17.595
5.34,0.719,10.442,-3.832,-5.865,-0.91,10.825,4.311,-11.73,-0.863,11.36,-4.602,117.302,0.0,-11.73
5.345,0.719,10.586,-3.449,-5.865,-0.958,10.825,3.976,-5.865,-0.863,11.216,-4.314,123.167,5.865,-11.73
5.3500000000000005,0.719,10.634,-3.161,-5.865,-0.91,10.778,3.593,-5.865,-0.863,10.929,-3.883,129.032,5.865,-5.865
5.355,0.719,10.682,-2.97,-0.0,-0.862,10.682,3.401,-5.865,-0.719,10.785,-3.595,129.032,5.865,-5.865
5.36,0.814,10.778,-2.778,-5.865,-0.862,10.634,3.161,-5.865,-0.719,10.641,-3.451,129.032,5.865,-5.865
5.365,0.862,10.873,-2.587,-5.865,-0.958,10.586,2.97,-5.865,-0.863,10.354,-3.307,129.032,5.865,-5.865
5.37,0.862,10.921,-2.539,-11.73,-0.91,10.538,2.874,-5.865,-0.719,10.21,-3.02,123.167,5.865,-5.865
5.375,0.814,10.921,-2.539,-11.73,-0.814,10.394,2.826,-11.73,-0.575,9.778,-3.02,123.167,5.865,-11.73
5.38,0.719,10.825,-2.539,-11.73,-0.719,10.251,2.826,-11.73,-0.431,9.491,-3.02,111.437,5.865,-11.73
5.385,0.671,10.682,-2.539,-17.595,-0.671,10.011,2.826,-11.73,-0.431,9.203,-3.02,99.707,0.0,-11.73
5.39,0.623,10.346,-2.395,-17.595,-0.719,9.82,2.682,-17.595,-0.288,9.059,-3.164,87.977,0.0,-17.595
5.3950000000000005,0.719,10.203,-2.251,-17.595,-0.671,9.724,2.73,-17.595,-0.431,9.059,-3.164,76.246,0.0,-17.595
5.4,0.383,10.107,-1.964,-17.595,-0.527,9.867,2.491,-17.595,-0.431,9.203,-2.732,64.516,-5.865,-17.595
5.405,0.766,9.772,-1.772,-23.46,-0.814,9.915,2.156,-17.595,-0.719,9.635,-2.301,58.651,-5.865,-17.595
5.41,0.623,9.58,-1.629,-23.46,-0.91,9.82,1.964,-23.46,-0.719,10.066,-2.157,52.786,-5.865,-23.46
5.415,0.431,9.341,-1.581,-29.326,-0.623,9.772,1.868,-29.326,-0.719,10.066,-2.013,52.786,-5.865,-23.46
5.42,0.383,9.101,-1.629,-35.191,-0.527,9.484,1.868,-35.191,-0.575,9.922,-2.013,52.786,-5.865,-35.191
5.425,0.24,8.862,-1.677,-41.056,-0.287,9.245,1.916,-41.056,-0.144,9.635,-2.013,58.651,-5.865,-41.056
5.43,0.192,8.478,-1.772,-41.056,-0.192,8.862,1.964,-46.921,0.0,9.059,-2.013,64.516,-5.865,-46.921
5.4350000000000005,0.144,8.287,-1.916,-41.056,-0.144,8.574,2.108,-46.921,0.0,8.772,-2.157,64.516,-5.865,-46.921
5.44,0.0,8.239,-2.06,-41.056,0.0,8.478,2.251,-46.921,0.288,8.628,-2.301,64.516,-5.865,-46.921
5.445,0.0,8.383,-2.06,-35.191,0.096,8.574,2.347,-41.056,0.288,8.772,-2.445,64.516,-11.73,-41.056
5.45,0.192,8.478,-2.06,-35.191,-0.096,8.67,2.347,-41.056,0.144,8.772,-2.445,70.381,-11.73,-41.056
5.455,0.287,8.526,-2.06,-35.191,-0.287,8.718,2.347,-35.191,-0.144,8.916,-2.445,70.381,-11.73,-35.191
5.46,0.24,8.478,-2.012,-35.191,-0.383,8.718,2.347,-35.191,-0.288,8.916,-2.445,76.246,-11.73,-35.191
5.465,0.144,8.43,-1.916,-35.191,-0.335,8.718,2.251,-35.191,-0.431,8.916,-2.445,76.246,-11.73,-35.191
5.47,0.144,8.335,-1.868,-35.191,-0.287,8.574,2.203,-35.191,-0.288,8.772,-2.301,76.246,-11.73,-35.191
5.4750000000000005,0.144,8.335,-1.868,-35.191,-0.24,8.43,2.156,-35.191,-0.288,8.484,-2.301,82.111,-11.73,-35.191
5.48,0.048,8.239,-1.964,-35.191,-0.144,8.239,2.203,-41.056,-0.144,8.053,-2.301,82.111,-11.73,-41.056
5.485,0.0,8.047,-1.916,-35.191,-0.096,7.999,2.251,-41.056,0.0,7.765,-2.445,76.246,-11.73,-41.056
5.49,-0.096,7.856,-1.964,-35.191,-0.048,7.808,2.299,-35.191,0.0,7.478,-2.445,76.246,-11.73,-41.056
5.495,-0.192,7.808,-1.868,-29.326,0.0,7.76,2.347,-35.191,-0.144,7.478,-2.301,70.381,-11.73,-35.191
5.5,-0.335,7.999,-1.724,-29.326,0.144,7.999,2.06,-35.191,0.0,7.765,-2.301,70.381,-5.865,-35.191
5.505,-0.192,8.43,-1.389,-29.326,0.144,8.43,1.868,-29.326,0.144,8.34,-2.157,64.516,-5.865,-29.326
5.51,-0.144,8.766,-1.15,-29.326,0.144,8.814,1.533,-29.326,0.288,8.916,-1.726,70.381,-5.865,-29.326
5.515,-0.096,8.957,-0.862,-29.326,0.144,9.197,1.293,-29.326,0.288,9.347,-1.438,70.381,-5.865,-29.326
5.5200000000000005,-0.048,8.957,-0.719,-29.326,0.144,9.341,1.054,-29.326,0.431,9.635,-1.15,70.381,-5.865,-29.326
5.525,-0.096,8.862,-0.623,-35.191,0.144,9.341,0.91,-35.191,0.431,9.778,-1.007,76.246,-5.865,-35.191
5.53,-0.144,8.718,-0.623,-35.191,0.144,9.245,0.862,-35.191,0.288,9.778,-1.007,82.111,-11.73,-35.191
5.535,-0.096,8.478,-0.671,-35.191,0.096,9.101,0.91,-35.191,0.288,9.635,-1.007,87.977,-11.73,-35.191
5.54,-0.192,8.287,-0.814,-35.191,0.048,8.909,1.054,-35.191,0.0,9.491,-1.15,93.842,-11.73,-35.191
5.545,-0.335,8.095,-0.814,-35.191,0.096,8.766,1.15,-35.191,0.0,9.347,-1.294,99.707,-11.73,-35.191
5.55,-0.527,7.904,-0.862,-29.326,0.24,8.574,1.198,-35.191,0.144,9.203,-1.294,105.572,-11.73,-35.191
5.555,-0.814,7.76,-0.862,-29.326,0.527,8.287,1.245,-35.191,0.431,8.916,-1.438,111.437,-5.865,-35.191
5.5600000000000005,-1.102,7.568,-0.862,-35.191,0.91,7.999,1.198,-35.191,0.863,8.34,-1.438,117.302,-5.865,-35.191
5.565,-1.245,7.377,-0.766,-35.191,1.293,7.616,1.15,-35.191,1.438,7.765,-1.294,123.167,-5.865,-35.191
5.57,-1.293,7.137,-0.671,-35.191,1.485,7.137,1.054,-35.191,1.726,7.046,-1.294,123.167,-5.865,-35.191
5.575,-1.102,7.089,-0.575,-29.326,1.533,6.754,0.958,-35.191,2.013,6.327,-1.15,123.167,-5.865,-35.191
5.58,-0.814,7.185,-0.527,-29.326,1.389,6.467,0.862,-29.326,2.013,5.608,-1.007,117.302,-11.73,-35.191
5.585,-0.383,7.377,-0.479,-23.46,1.054,6.371,0.814,-29.326,1.726,5.177,-0.863,105.572,-17.595,-29.326
5.59,0.0,7.52,-0.479,-11.73,0.575,6.514,0.766,-17.595,1.294,5.177,-0.863,93.842,-23.46,-23.46
5.595,0.335,7.712,-0.479,-5.865,0.048,6.802,0.623,-5.865,0.575,5.464,-0.863,76.246,-29.326,-11.73
5.6000000000000005,0.814,7.856,-0.623,5.865,-0.575,7.041,0.814,0.0,-0.288,5.896,-0.863,58.651,-35.191,-5.865
5.605,1.006,7.904,-0.719,5.865,-1.054,7.233,0.91,5.865,-1.007,6.327,-1.007,46.921,-35.191,5.865
5.61,0.958,8.047,-0.766,11.73,-1.293,7.568,1.054,5.865,-1.582,7.046,-1.15,35.191,-35.191,11.73
5.615,1.006,8.478,-0.671,11.73,-1.341,7.999,1.006,11.73,-1.726,7.621,-1.15,23.46,-35.191,11.73
5.62,0.862,8.766,-0.383,11.73,-1.245,8.335,0.814,11.73,-1.582,7.909,-1.007,23.46,-35.191,11.73
5.625,0.671,8.766,-0.24,11.73,-1.054,8.526,0.527,11.73,-1.438,8.197,-0.719,5.865,-29.326,11.73
5.63,0.144,8.909,-0.192,11.73,-0.671,8.718,0.479,11.73,-0.863,8.484,-0.719,5.865,-23.46,11.73
5.635,-0.144,9.101,-0.048,5.865,-0.192,9.005,0.383,5.865,-0.431,8.916,-0.575,5.865,-23.46,5.865
5.64,-0.479,9.149,0.096,-0.0,0.287,9.149,0.24,5.865,0.288,8.916,-0.288,5.865,-23.46,5.865
5.6450000000000005,-0.766,8.957,0.192,-0.0,0.671,9.005,0.144,0.0,0.719,8.916,-0.288,0.0,-17.595,0.0
5.65,-1.006,8.478,0.24,-5.865,1.054,8.718,0.048,-5.865,1.294,8.628,-0.144,0.0,-23.46,0.0
5.655,-1.245,7.904,0.24,-5.865,1.341,8.335,0.048,-5.865,1.582,8.34,-0.144,-5.865,-23.46,-5.865
5.66,-1.437,7.472,0.24,-0.0,1.581,7.951,0.048,-5.865,1.869,8.053,-0.144,-5.865,-29.326,-5.865
5.665,-1.437,7.185,0.24,5.865,1.724,7.664,0.0,0.0,2.013,7.909,-0.144,-5.865,-29.326,0.0
5.67,-1.485,6.946,0.192,11.73,1.677,7.377,0.048,5.865,2.157,7.621,-0.0,-5.865,-35.191,5.865
5.675,-1.533,6.802,-0.096,23.46,1.724,7.233,0.24,11.73,2.013,7.478,-0.144,0.0,-35.191,11.73
5.68,-1.677,6.993,-0.431,29.326,1.772,7.281,0.527,23.46,2.013,7.478,-0.431,0.0,-41.056,17.595
5.6850000000000005,-1.677,7.329,-0.814,35.191,1.82,7.425,0.91,29.326,2.157,7.478,-0.863,5.865,-41.056,29.326
5.69,-1.724,7.856,-1.054,41.056,1.916,7.76,1.198,35.191,2.157,7.621,-1.15,5.865,-46.921,35.191
5.695,-1.772,8.239,-1.341,46.921,1.916,8.095,1.485,41.056,2.301,7.765,-1.438,5.865,-46.921,41.056
5.7,-1.868,8.622,-1.581,52.786,1.964,8.526,1.772,46.921,2.301,8.197,-1.869,5.865,-52.786,46.921
5.705,-1.82,8.957,-1.772,52.786,1.916,8.814,1.964,52.786,2.157,8.484,-2.013,5.865,-58.651,52.786
5.71,-1.724,9.053,-1.964,58.651,1.772,9.053,2.156,52.786,2.013,8.628,-2.157,0.0,-58.651,52.786
5.715,-1.772,9.101,-2.156,52.786,1.677,9.245,2.347,52.786,1.869,8.916,-2.445,-5.865,-58.651,52.786
5.72,-1.82,9.149,-2.299,52.786,1.677,9.388,2.491,52.786,1.726,9.347,-2.588,-5.865,-58.651,52.786
5.7250000000000005,-1.772,9.245,-2.347,46.921,1.677,9.628,2.635,46.921,1.726,9.778,-2.732,-11.73,-58.651,46.921
5.73,-1.677,9.197,-2.395,41.056,1.581,9.724,2.635,41.056,1.726,9.922,-2.732,-11.73,-58.651,41.056
5.735,-1.533,9.005,-2.443,35.191,1.437,9.628,2.682,35.191,1.438,9.922,-2.732,-5.865,-58.651,35.191
5.74,-1.437,8.718,-2.395,29.326,1.293,9.293,2.682,29.326,1.294,9.635,-2.876,-5.865,-58.651,29.326
5.745,-1.341,8.335,-2.347,23.46,1.245,8.909,2.635,23.46,1.294,9.203,-2.732,0.0,-52.786,23.46
5.75,-1.245,8.047,-2.299,17.595,1.198,8.478,2.587,17.595,1.294,8.772,-2.732,0.0,-52.786,17.595
5.755,-1.15,7.856,-2.299,17.595,1.15,8.143,2.587,17.595,1.15,8.34,-2.588,5.865,-52.786,17.595
5.76,-1.054,7.76,-2.299,11.73,1.102,7.951,2.587,11.73,1.15,7.909,-2.732,5.865,-52.786,11.73
5.765,-0.958,7.664,-2.299,11.73,1.006,7.856,2.587,11.73,1.15,7.765,-2.732,5.865,-52.786,11.73
5.7700000000000005,-0.91,7.568,-2.347,11.73,0.862,7.808,2.635,17.595,1.007,7.765,-2.732,5.865,-52.786,11.73
5.775,-0.91,7.425,-2.491,11.73,0.814,7.76,2.682,17.595,0.863,7.765,-2.732,5.865,-52.786,17.595
5.78,-0.862,7.233,-2.635,11.73,0.766,7.664,2.874,11.73,0.863,7.909,-2.876,5.865,-52.786,11.73
5.785,-0.766,7.185,-2.826,11.73,0.671,7.616,3.018,11.73,0.719,7.909,-3.02,5.865,-52.786,11.73
5.79,-0.671,7.233,-2.97,11.73,0.575,7.568,3.209,11.73,0.575,7.909,-3.307,5.865,-46.921,11.73
5.795,-0.431,7.233,-3.066,11.73,0.431,7.52,3.305,11.73,0.431,7.765,-3.451,5.865,-46.921,11.73
5.8,-0.335,7.233,-3.209,11.73,0.287,7.329,3.449,11.73,0.288,7.478,-3.451,5.865,-46.921,11.73
5.805,-0.287,7.185,-3.353,11.73,0.192,7.281,3.545,11.73,0.288,7.19,-3.595,5.865,-46.921,11.73
5.8100000000000005,-0.144,7.137,-3.545,11.73,0.048,7.185,3.736,11.73,0.0,7.19,-3.739,5.865,-46.921,11.73
5.815,-0.096,7.185,-3.736,11.73,-0.048,7.185,3.928,11.73,-0.144,7.046,-4.026,5.865,-41.056,11.73
5.82,-0.048,7.233,-3.976,5.865,-0.144,7.233,4.167,11.73,-0.288,7.046,-4.17,5.865,-41.056,11.73
5.825,0.0,7.185,-4.167,5.865,-0.192,7.233,4.359,5.865,-0.288,7.19,-4.458,5.865,-35.191,5.865
5.83,0.048,7.089,-4.311,-0.0,-0.287,7.185,4.551,5.865,-0.431,7.046,-4.602,5.865,-35.191,5.865
5.835,0.0,6.898,-4.503,-0.0,-0.287,7.137,4.742,0.0,-0.575,7.19,-4.745,5.865,-35.191,0.0
5.84,-0.048,6.61,-4.598,-5.865,-0.24,7.041,4.886,0.0,-0.431,7.19,-5.033,5.865,-29.326,0.0
5.845,-0.096,6.323,-4.551,-5.865,-0.24,6.85,4.886,-5.865,-0.431,7.19,-5.033,5.865,-23.46,-5.865
5.8500000000000005,-0.096,5.988,-4.551,-11.73,-0.24,6.61,4.838,-11.73,-0.575,7.046,-5.033,5.865,-23.46,-11.73
5.855,-0.192,5.556,-4.503,-11.73,-0.144,6.275,4.838,-11.73,-0.431,6.759,-5.033,5.865,-17.595,-11.73
5.86,-0.287,5.221,-4.503,-17.595,-0.048,5.94,4.79,-11.73,-0.288,6.615,-4.889,17.595,-11.73,-11.73
5.865,-0.335,5.077,-4.503,-17.595,0.096,5.7,4.79,-17.595,-0.144,6.327,-4.889,23.46,-5.865,-17.595
5.87,-0.431,5.077,-4.455,-17.595,0.24,5.604,4.79,-17.595,0.0,6.183,-4.889,29.326,-5.865,-17.595
5.875,-0.527,5.077,-4.503,-17.595,0.335,5.556,4.742,-17.595,0.144,5.896,-4.889,35.191,0.0,-17.595
5.88,-0.527,5.125,-4.551,-17.595,0.383,5.461,4.838,-17.595,0.288,5.752,-5.033,41.056,0.0,-17.595
5.885,-0.623,5.125,-4.551,-17.595,0.479,5.509,4.934,-17.595,0.431,5.752,-5.033,46.921,0.0,-23.46
5.89,-0.671,5.125,-4.503,-17.595,0.527,5.461,4.886,-17.595,0.431,5.752,-5.033,52.786,5.865,-17.595
5.8950000000000005,-0.766,5.077,-4.455,-17.595,0.671,5.413,4.79,-17.595,0.575,5.608,-5.033,52.786,5.865,-17.595
5.9,-0.814,5.03,-4.455,-17.595,0.719,5.365,4.79,-17.595,0.719,5.464,-4.889,52.786,5.865,-17.595
5.905,-0.958,5.03,-4.407,-23.46,0.814,5.317,4.79,-23.46,0.719,5.464,-4.889,58.651,11.73,-23.46
5.91,-1.054,4.982,-4.455,-29.326,1.006,5.365,4.79,-29.326,1.007,5.608,-4.889,58.651,11.73,-23.46
5.915,-1.245,4.934,-4.503,-29.326,1.198,5.269,4.838,-29.326,1.294,5.464,-4.889,64.516,11.73,-29.326
5.92,-1.245,4.838,-4.503,-35.191,1.293,5.173,4.838,-35.191,1.438,5.321,-5.033,64.516,11.73,-35.191
5.925,-1.198,4.694,-4.455,-35.191,1.341,5.077,4.79,-35.191,1.438,5.177,-5.033,64.516,11.73,-35.191
5.93,-1.245,4.455,-4.407,-41.056,1.293,4.79,4.79,-41.056,1.438,4.889,-4.889,70.381,11.73,-41.056
5.9350000000000005,-1.198,4.119,-4.407,-41.056,1.293,4.503,4.742,-41.056,1.438,4.602,-4.889,70.381,11.73,-41.056
5.94,-1.15,3.88,-4.455,-35.191,1.006,4.263,4.79,-41.056,1.007,4.314,-4.889,64.516,11.73,-41.056
5.945,-1.15,3.736,-4.455,-35.191,0.91,3.976,4.79,-41.056,0.575,4.026,-4.889,70.381,11.73,-41.056
5.95,-0.958,3.688,-4.455,-35.191,0.719,3.88,4.838,-35.191,0.431,3.883,-4.889,64.516,11.73,-41.056
