time_aligned_sec,L_Acc_X_aligned,L_Acc_Y_aligned,L_Acc_Z_aligned,L_Gyro_Z_aligned,R_Acc_X_aligned,R_Acc_Y_aligned,R_Acc_Z_aligned,R_Gyro_Z_aligned,T_Acc_X_aligned,T_Acc_Y_aligned,T_Acc_Z_aligned,T_Gyro_X_aligned,T_Gyro_Y_aligned,T_Gyro_Z_aligned
0.0,3.593,9.053,0.383,-5.865,-2.299,9.388,-0.048,0.0,3.451,9.203,-0.288,-41.056,29.326,5.865
0.005,3.545,9.149,0.383,-0.0,-2.251,9.388,-0.096,5.865,3.451,9.059,-0.288,-41.056,29.326,5.865
0.01,3.449,9.293,0.431,-0.0,-2.251,9.484,-0.144,5.865,3.451,9.203,-0.288,-46.921,29.326,5.865
0.015,3.353,9.436,0.527,5.865,-2.203,9.532,-0.192,5.865,3.307,9.347,-0.288,-46.921,29.326,0.0
0.02,3.257,9.484,0.527,5.865,-2.108,9.532,-0.144,5.865,3.164,9.491,-0.431,-46.921,35.191,-5.865
0.025,3.257,9.532,0.623,11.73,-2.012,9.676,-0.287,11.73,3.02,9.635,-0.431,-46.921,35.191,-11.73
0.03,3.305,9.532,0.719,11.73,-1.916,9.915,-0.527,11.73,3.164,9.635,-0.575,-46.921,35.191,-11.73
0.035,3.209,9.772,0.766,11.73,-1.964,9.82,-0.479,11.73,3.164,9.635,-0.719,-52.786,35.191,-11.73
0.04,3.161,9.915,0.719,11.73,-1.916,9.867,-0.479,11.73,3.02,10.066,-0.719,-52.786,35.191,-11.73
0.045,3.114,9.963,0.719,11.73,-1.82,9.963,-0.479,11.73,3.02,10.066,-0.719,-52.786,35.191,-11.73
0.05,3.066,10.011,0.766,17.595,-1.772,9.963,-0.479,11.73,3.02,10.21,-0.719,-52.786,35.191,-17.595
0.055,3.114,10.059,0.766,17.595,-1.677,10.011,-0.479,11.73,3.02,10.354,-0.719,-46.921,35.191,-17.595
0.06,3.114,10.059,0.766,17.595,-1.629,10.059,-0.479,11.73,2.876,10.354,-0.719,-46.921,35.191,-17.595
0.065,3.018,10.059,0.814,11.73,-1.629,10.107,-0.479,11.73,2.876,10.354,-0.719,-46.921,29.326,-17.595
0.07,2.97,10.059,0.766,11.73,-1.581,10.059,-0.479,11.73,2.876,10.354,-0.719,-46.921,29.326,-11.73
0.075,2.922,10.155,0.671,11.73,-1.533,10.059,-0.431,11.73,2.876,10.354,-0.719,-46.921,29.326,-11.73
0.08,2.922,10.203,0.719,11.73,-1.533,10.155,-0.431,11.73,2.732,10.354,-0.719,-46.921,29.326,-11.73
0.085,2.922,10.203,0.719,11.73,-1.533,10.155,-0.431,11.73,2.732,10.354,-0.575,-46.921,29.326,-11.73
0.09,2.922,10.155,0.766,11.73,-1.485,10.155,-0.431,11.73,2.876,10.354,-0.719,-46.921,29.326,-11.73
0.095,2.97,10.203,0.814,11.73,-1.533,10.203,-0.479,17.595,2.876,10.354,-0.719,-46.921,23.46,-11.73
0.1,2.97,10.251,0.814,11.73,-1.533,10.251,-0.527,17.595,2.876,10.497,-0.719,-46.921,23.46,-11.73
0.105,2.97,10.251,0.814,17.595,-1.533,10.251,-0.527,17.595,2.876,10.497,-0.719,-46.921,23.46,-11.73
0.11,2.97,10.203,0.862,17.595,-1.533,10.251,-0.575,17.595,2.876,10.497,-0.719,-46.921,17.595,-11.73
0.115,3.018,10.107,0.91,23.46,-1.533,10.203,-0.623,17.595,2.876,10.354,-0.719,-46.921,17.595,-17.595
0.12,3.018,10.059,1.006,23.46,-1.581,10.107,-0.671,17.595,3.02,10.354,-0.863,-46.921,17.595,-17.595
0.125,3.018,10.059,1.102,23.46,-1.581,10.059,-0.814,23.46,3.02,10.354,-1.007,-46.921,11.73,-17.595
0.13,3.018,10.203,1.245,23.46,-1.581,10.107,-0.91,23.46,3.02,10.354,-1.007,-46.921,11.73,-23.46
0.135,2.922,10.394,1.245,29.326,-1.581,10.155,-1.006,23.46,2.876,10.497,-1.15,-46.921,11.73,-23.46
0.14,2.826,10.538,1.293,29.326,-1.485,10.251,-1.006,23.46,2.732,10.785,-1.15,-41.056,5.865,-23.46
0.145,2.73,10.682,1.293,29.326,-1.389,10.346,-1.006,29.326,2.732,11.073,-1.15,-41.056,5.865,-23.46
0.15,2.682,10.825,1.389,29.326,-1.293,10.49,-1.102,29.326,2.588,11.216,-1.294,-35.191,5.865,-23.46
0.155,2.635,10.969,1.437,29.326,-1.245,10.586,-1.15,29.326,2.445,11.36,-1.294,-35.191,5.865,-23.46
0.16,2.682,11.065,1.437,23.46,-1.198,10.73,-1.15,29.326,2.445,11.504,-1.294,-29.326,5.865,-23.46
0.165,2.682,11.065,1.485,23.46,-1.198,10.73,-1.198,23.46,2.588,11.648,-1.438,-23.46,5.865,-23.46
0.17,2.73,11.017,1.485,23.46,-1.198,10.778,-1.198,23.46,2.588,11.504,-1.438,-17.595,5.865,-23.46
0.17500000000000002,2.778,10.921,1.485,17.595,-1.293,10.778,-1.245,17.595,2.588,11.504,-1.438,-11.73,0.0,-17.595
0.18,2.826,10.873,1.485,17.595,-1.341,10.778,-1.245,17.595,2.732,11.36,-1.438,-11.73,0.0,-17.595
0.185,2.874,10.825,1.533,17.595,-1.341,10.778,-1.245,17.595,2.732,11.216,-1.438,-11.73,0.0,-17.595
0.19,2.826,10.73,1.533,17.595,-1.389,10.73,-1.293,23.46,2.732,11.073,-1.438,-5.865,0.0,-17.595
0.195,2.826,10.73,1.581,23.46,-1.389,10.73,-1.293,23.46,2.732,11.073,-1.438,-5.865,-5.865,-17.595
0.2,2.778,10.73,1.581,29.326,-1.389,10.73,-1.341,29.326,2.732,10.929,-1.438,-5.865,-5.865,-17.595
0.20500000000000002,2.826,10.682,1.581,35.191,-1.341,10.682,-1.341,35.191,2.732,10.929,-1.438,-5.865,-5.865,-23.46
0.21,2.826,10.634,1.629,41.056,-1.293,10.634,-1.341,35.191,2.732,10.929,-1.582,-5.865,-5.865,-35.191
0.215,2.826,10.634,1.629,41.056,-1.293,10.586,-1.341,41.056,2.876,10.929,-1.582,0.0,-11.73,-35.191
0.22,2.778,10.634,1.677,46.921,-1.341,10.586,-1.389,46.921,2.732,10.929,-1.582,0.0,-11.73,-41.056
0.225,2.682,10.73,1.677,46.921,-1.293,10.586,-1.437,46.921,2.732,10.929,-1.582,0.0,-11.73,-46.921
0.23,2.635,10.778,1.724,46.921,-1.245,10.586,-1.437,46.921,2.588,11.073,-1.582,0.0,-17.595,-46.921
0.23500000000000001,2.587,10.778,1.724,46.921,-1.198,10.634,-1.485,52.786,2.445,11.216,-1.582,0.0,-17.595,-46.921
0.24,2.491,10.825,1.82,52.786,-1.15,10.634,-1.533,52.786,2.301,11.073,-1.726,0.0,-17.595,-46.921
0.245,2.491,10.778,1.82,46.921,-1.054,10.682,-1.533,52.786,2.301,11.216,-1.726,0.0,-17.595,-46.921
0.25,2.491,10.778,1.916,46.921,-1.006,10.634,-1.581,46.921,2.445,11.216,-1.726,11.73,-17.595,-46.921
0.255,2.491,10.778,2.012,46.921,-1.054,10.634,-1.677,46.921,2.445,11.073,-1.869,11.73,-17.595,-46.921
0.26,2.491,10.873,2.108,46.921,-1.102,10.682,-1.82,46.921,2.301,11.073,-1.869,17.595,-23.46,-46.921
0.265,2.395,10.969,2.108,46.921,-1.006,10.825,-1.916,46.921,2.301,11.36,-2.013,17.595,-23.46,-46.921
0.27,2.203,10.969,2.299,46.921,-0.862,10.825,-1.916,46.921,2.157,11.216,-2.013,23.46,-23.46,-46.921
0.275,2.06,10.873,2.443,46.921,-0.766,10.778,-2.108,46.921,2.013,11.216,-2.157,23.46,-23.46,-46.921
0.28,2.012,10.778,2.587,46.921,-0.671,10.73,-2.251,46.921,1.726,11.073,-2.445,23.46,-23.46,-46.921
0.28500000000000003,1.916,10.682,2.682,46.921,-0.671,10.682,-2.347,46.921,1.726,10.929,-2.445,23.46,-23.46,-46.921
0.29,1.868,10.49,2.682,46.921,-0.671,10.634,-2.443,46.921,1.582,10.785,-2.588,23.46,-23.46,-46.921
0.295,1.82,10.346,2.635,52.786,-0.575,10.299,-2.395,52.786,1.438,10.641,-2.588,23.46,-23.46,-46.921
0.3,1.724,10.155,2.587,52.786,-0.479,10.203,-2.347,52.786,1.438,10.497,-2.588,23.46,-17.595,-52.786
0.305,1.772,10.107,2.491,52.786,-0.527,10.155,-2.251,52.786,1.438,10.354,-2.588,23.46,-17.595,-52.786
0.31,1.868,10.059,2.395,52.786,-0.575,10.011,-2.156,52.786,1.438,10.21,-2.445,23.46,-17.595,-52.786
0.315,1.964,9.963,2.251,58.651,-0.623,9.963,-2.012,52.786,1.582,10.21,-2.301,23.46,-17.595,-52.786
0.32,1.964,9.915,2.108,52.786,-0.623,9.82,-1.916,58.651,1.726,10.21,-2.157,23.46,-17.595,-58.651
0.325,1.964,9.867,2.012,52.786,-0.623,9.82,-1.772,52.786,1.726,10.066,-2.013,23.46,-17.595,-52.786
0.33,1.964,9.867,2.012,52.786,-0.623,9.772,-1.724,52.786,1.726,10.066,-2.013,23.46,-17.595,-52.786
0.335,1.868,9.915,2.06,46.921,-0.575,9.772,-1.772,52.786,1.726,10.066,-1.869,23.46,-17.595,-52.786
0.34,1.772,9.867,2.108,52.786,-0.479,9.772,-1.82,46.921,1.582,10.21,-2.013,23.46,-17.595,-46.921
0.34500000000000003,1.677,9.82,2.156,46.921,-0.383,9.772,-1.868,46.921,1.582,10.21,-2.013,29.326,-17.595,-46.921
0.35000000000000003,1.629,9.772,2.203,46.921,-0.335,9.724,-1.868,46.921,1.438,10.066,-2.013,29.326,-17.595,-46.921
0.355,1.341,9.628,2.347,46.921,-0.287,9.676,-1.916,46.921,1.438,9.922,-2.157,29.326,-17.595,-46.921
0.36,1.245,9.341,1.581,46.921,-0.192,9.58,-2.06,46.921,0.431,9.491,-2.445,29.326,-17.595,-46.921
0.365,0.91,9.101,2.156,46.921,-0.192,9.293,-1.82,46.921,0.0,9.059,-1.582,29.326,-17.595,-46.921
0.37,0.671,9.101,2.635,52.786,0.287,9.245,-1.916,52.786,0.575,9.203,-2.157,23.46,0.0,-46.921
0.375,0.431,9.532,2.73,58.651,0.623,9.197,-2.299,58.651,-0.575,9.203,-2.588,23.46,5.865,-52.786
0.38,-1.581,6.658,5.269,52.786,1.006,9.101,-2.539,52.786,1.15,9.635,-2.732,23.46,0.0,-58.651
0.385,0.958,7.233,0.479,52.786,1.15,7.568,-3.209,46.921,-3.739,-0.575,-4.602,23.46,-23.46,-58.651
0.39,1.677,9.963,3.257,58.651,0.479,7.137,-1.724,52.786,0.144,11.504,-2.301,35.191,-35.191,-64.516
0.395,0.431,8.095,2.443,58.651,0.144,9.293,-2.539,58.651,0.863,8.053,-2.588,17.595,0.0,-58.651
0.4,0.862,8.287,2.06,64.516,0.575,7.999,-1.82,58.651,1.294,8.34,-2.588,0.0,0.0,-64.516
0.405,0.719,8.095,1.677,58.651,0.575,8.239,-1.533,58.651,0.719,8.197,-1.869,0.0,-5.865,-58.651
0.41000000000000003,0.814,7.951,1.629,58.651,0.24,8.191,-1.437,58.651,0.144,7.765,-1.582,0.0,-5.865,-58.651
0.41500000000000004,0.91,8.047,1.82,64.516,0.096,8.047,-1.485,64.516,0.144,8.053,-1.582,0.0,-5.865,-64.516
0.42,1.054,8.143,1.82,70.381,0.144,8.143,-1.581,64.516,0.575,8.053,-1.726,-5.865,-5.865,-64.516
0.425,1.341,8.383,1.724,70.381,0.335,8.143,-1.389,64.516,1.294,8.34,-1.726,-5.865,0.0,-70.381
0.43,1.485,8.478,1.437,70.381,0.287,8.143,-1.15,70.381,1.582,8.484,-1.582,-11.73,-5.865,-76.246
0.435,1.437,8.574,1.341,76.246,-0.048,8.478,-1.054,70.381,1.438,8.484,-1.294,-11.73,-11.73,-76.246
0.44,1.389,8.718,1.341,76.246,-0.24,8.67,-1.054,64.516,1.294,8.628,-1.294,-11.73,-17.595,-76.246
0.445,1.245,8.766,1.293,76.246,-0.144,8.766,-1.054,64.516,1.007,8.772,-1.15,-11.73,-17.595,-82.111
0.45,1.054,8.862,1.389,76.246,-0.096,8.862,-1.054,64.516,0.863,8.772,-1.294,-17.595,-17.595,-82.111
0.455,1.006,9.005,1.437,70.381,0.0,8.957,-1.102,64.516,0.719,8.916,-1.294,-17.595,-17.595,-76.246
0.46,0.766,9.053,1.533,70.381,0.144,9.005,-1.245,64.516,0.575,9.059,-1.438,-17.595,-17.595,-70.381
0.465,0.335,8.862,1.629,64.516,0.431,8.957,-1.389,58.651,0.144,8.916,-1.582,-17.595,-11.73,-70.381
0.47000000000000003,0.048,8.814,1.724,58.651,0.766,8.862,-1.389,58.651,-0.144,8.916,-1.582,-17.595,-11.73,-64.516
0.47500000000000003,-0.287,8.814,1.724,52.786,1.198,8.718,-1.485,58.651,-0.431,8.916,-1.726,-23.46,-11.73,-58.651
0.48,-0.479,8.909,1.581,52.786,1.341,8.67,-1.389,52.786,-0.863,8.916,-1.582,-23.46,-5.865,-52.786
0.485,-0.766,8.862,1.581,46.921,1.437,8.957,-1.389,46.921,-1.438,8.772,-1.582,-23.46,-5.865,-46.921
0.49,-1.054,8.862,1.677,35.191,2.012,8.574,-1.437,41.056,-1.726,9.203,-1.438,-23.46,0.0,-41.056
0.495,-1.15,9.005,1.533,23.46,2.156,8.526,-1.198,35.191,-1.582,9.059,-1.582,-23.46,11.73,-35.191
0.5,-1.102,9.005,1.389,17.595,2.203,8.862,-1.341,23.46,-1.438,9.203,-1.582,-23.46,11.73,-17.595
0.505,-0.958,9.341,1.15,5.865,2.203,8.67,-0.958,17.595,-1.726,9.491,-1.15,-23.46,11.73,-11.73
0.51,-0.862,9.436,1.006,5.865,2.108,9.101,-0.814,11.73,-1.294,9.635,-1.15,-17.595,17.595,-5.865
0.515,-0.766,9.628,0.814,5.865,2.251,9.053,-0.719,5.865,-1.007,9.778,-0.863,-17.595,17.595,0.0
0.52,-0.671,9.82,0.623,5.865,1.964,9.532,-0.431,5.865,-1.15,9.922,-0.719,-11.73,11.73,0.0
0.525,-0.623,9.963,0.719,5.865,2.012,9.724,-0.431,11.73,-1.15,10.066,-0.575,-5.865,11.73,0.0
0.53,-0.575,10.011,0.862,11.73,2.108,9.724,-0.623,11.73,-0.863,10.21,-0.575,-5.865,11.73,-5.865
0.535,-0.527,10.155,0.91,17.595,2.012,9.963,-0.575,17.595,-0.719,10.354,-0.863,0.0,11.73,-11.73
0.54,-0.335,10.346,0.91,23.46,1.868,10.203,-0.671,17.595,-0.575,10.354,-0.863,0.0,11.73,-17.595
0.545,-0.192,10.49,0.958,23.46,1.724,10.251,-0.719,23.46,-0.575,10.497,-0.863,0.0,5.865,-17.595
0.55,-0.048,10.634,0.91,29.326,1.533,10.538,-0.719,23.46,-0.431,10.641,-0.863,0.0,0.0,-23.46
0.555,0.096,10.682,0.958,29.326,1.437,10.49,-0.719,29.326,-0.288,10.785,-0.863,0.0,0.0,-23.46
0.56,0.24,10.825,0.958,35.191,1.245,10.73,-0.766,35.191,-0.144,10.929,-0.863,0.0,-5.865,-35.191
0.5650000000000001,0.431,10.969,0.91,41.056,1.102,10.634,-0.671,35.191,0.0,11.073,-0.863,11.73,-5.865,-35.191
0.5700000000000001,0.479,11.065,0.958,41.056,1.006,10.921,-0.719,35.191,0.144,11.216,-0.863,11.73,-5.865,-41.056
0.5750000000000001,0.527,11.065,0.958,46.921,1.054,10.778,-0.719,41.056,0.144,11.36,-0.863,17.595,-5.865,-41.056
0.58,0.575,10.921,0.91,46.921,1.006,10.921,-0.671,41.056,0.288,11.216,-0.863,17.595,-11.73,-46.921
0.585,0.479,10.825,0.958,46.921,1.006,10.73,-0.671,46.921,0.288,11.216,-0.863,17.595,-11.73,-46.921
0.59,0.431,10.825,0.958,52.786,0.958,10.682,-0.719,46.921,0.144,11.073,-0.863,17.595,-11.73,-46.921
0.595,0.335,10.778,0.958,52.786,0.958,10.634,-0.766,52.786,0.0,11.073,-0.863,23.46,-11.73,-52.786
0.6,0.192,10.634,0.958,58.651,1.054,10.49,-0.719,52.786,-0.144,11.073,-0.863,23.46,-11.73,-52.786
0.605,0.096,10.49,0.958,58.651,1.15,10.394,-0.719,52.786,-0.288,10.785,-0.863,23.46,-11.73,-58.651
0.61,0.0,10.346,1.006,58.651,1.293,10.251,-0.719,52.786,-0.288,10.641,-0.863,23.46,-11.73,-58.651
0.615,-0.144,10.203,0.958,52.786,1.341,10.107,-0.766,52.786,-0.288,10.497,-1.007,29.326,-11.73,-58.651
0.62,-0.431,10.011,0.91,52.786,1.629,9.963,-0.719,52.786,-0.575,10.354,-0.863,29.326,-11.73,-52.786
0.625,-0.671,9.867,0.814,46.921,1.772,9.82,-0.623,46.921,-0.719,10.21,-0.863,29.326,-11.73,-52.786
0.63,-0.766,9.772,0.719,46.921,1.916,9.724,-0.527,46.921,-1.007,9.922,-0.719,29.326,-11.73,-46.921
0.635,-0.91,9.676,0.814,41.056,2.108,9.628,-0.527,46.921,-1.294,9.922,-0.719,29.326,-11.73,-41.056
0.64,-1.15,9.628,0.862,41.056,2.347,9.484,-0.623,41.056,-1.438,9.778,-0.719,23.46,-11.73,-41.056
0.645,-1.245,9.628,0.814,41.056,2.395,9.484,-0.575,41.056,-1.582,9.635,-0.719,23.46,-11.73,-41.056
0.65,-1.341,9.58,0.814,41.056,2.491,9.532,-0.623,41.056,-1.726,9.635,-0.719,23.46,-11.73,-41.056
0.655,-1.533,9.58,0.91,41.056,2.682,9.293,-0.623,41.056,-1.869,9.635,-0.719,23.46,-11.73,-41.056
0.66,-1.772,9.388,0.958,35.191,2.682,9.293,-0.623,35.191,-2.013,9.635,-0.863,23.46,-11.73,-41.056
0.665,-1.772,9.245,0.958,35.191,2.682,9.245,-0.719,35.191,-2.301,9.347,-1.007,23.46,-5.865,-35.191
0.67,-1.772,9.101,0.958,35.191,2.826,9.005,-0.766,35.191,-2.301,9.203,-0.863,23.46,-5.865,-35.191
0.675,-1.772,9.005,0.958,35.191,2.874,8.862,-0.719,35.191,-2.445,9.203,-0.863,23.46,-5.865,-35.191
0.68,-1.629,8.909,0.862,35.191,2.778,8.909,-0.623,35.191,-2.301,9.059,-0.863,23.46,0.0,-29.326
0.685,-1.533,8.766,0.814,29.326,2.682,8.766,-0.575,35.191,-2.013,8.916,-0.863,23.46,0.0,-29.326
0.6900000000000001,-1.389,8.622,0.719,29.326,2.539,8.622,-0.575,29.326,-2.013,8.628,-0.719,23.46,0.0,-23.46
0.6950000000000001,-1.198,8.574,0.719,35.191,2.491,8.67,-0.479,35.191,-1.726,8.484,-0.719,23.46,0.0,-29.326
0.7000000000000001,-1.054,8.622,0.671,35.191,2.395,8.526,-0.527,35.191,-1.582,8.628,-0.575,23.46,5.865,-35.191
0.705,-0.91,8.718,0.527,35.191,2.156,8.622,-0.335,35.191,-1.294,8.628,-0.575,23.46,0.0,-35.191
0.71,-0.766,8.814,0.527,41.056,2.06,8.622,-0.287,35.191,-1.007,8.772,-0.431,23.46,0.0,-35.191
0.715,-0.719,8.718,0.575,41.056,2.203,8.67,-0.287,35.191,-1.007,8.772,-0.575,23.46,0.0,-41.056
0.72,-0.719,8.909,0.431,35.191,2.012,8.67,-0.287,35.191,-1.007,8.916,-0.431,23.46,-5.865,-41.056
0.725,-0.814,8.957,0.575,35.191,2.203,8.814,-0.192,35.191,-1.007,9.059,-0.431,23.46,-5.865,-41.056
0.73,-1.006,9.053,0.719,35.191,2.251,8.718,-0.479,35.191,-1.15,9.059,-0.575,23.46,-5.865,-35.191
0.735,-1.15,9.245,0.862,29.326,2.347,8.957,-0.479,29.326,-1.294,9.203,-0.719,23.46,-5.865,-35.191
0.74,-1.293,9.341,0.862,29.326,2.347,9.053,-0.623,23.46,-1.582,9.491,-0.719,23.46,-5.865,-35.191
0.745,-1.341,9.532,0.958,29.326,2.443,9.245,-0.623,23.46,-1.726,9.491,-0.719,23.46,-11.73,-29.326
0.75,-1.437,9.436,1.198,29.326,2.539,9.388,-0.671,23.46,-1.582,9.635,-1.007,23.46,-11.73,-23.46
0.755,-1.102,9.628,0.958,23.46,2.491,9.341,-0.862,17.595,-1.438,9.491,-1.294,23.46,-11.73,-23.46
0.76,-0.91,9.867,0.719,23.46,2.156,9.484,-0.766,17.595,-1.726,9.778,-0.863,23.46,-17.595,-23.46
0.765,-0.958,9.867,0.623,23.46,2.012,9.724,-0.527,17.595,-1.869,9.922,-0.575,23.46,-17.595,-23.46
0.77,-0.91,9.772,0.575,23.46,1.916,9.772,-0.383,23.46,-1.726,10.066,-0.719,23.46,-11.73,-23.46
0.775,-0.575,9.915,0.575,29.326,1.82,9.772,-0.383,23.46,-1.294,9.922,-0.575,23.46,-5.865,-23.46
0.78,-0.335,10.011,0.527,29.326,1.82,9.772,-0.287,29.326,-0.719,10.066,-0.431,23.46,-5.865,-23.46
0.785,-0.287,10.203,0.527,29.326,1.772,9.772,-0.335,29.326,-0.575,10.21,-0.431,23.46,-5.865,-23.46
0.79,-0.527,10.107,0.383,29.326,1.82,9.963,-0.144,29.326,-0.431,10.497,-0.431,29.326,-11.73,-29.326
0.795,-0.623,9.82,0.383,29.326,1.868,9.82,-0.144,29.326,-0.719,10.21,-0.431,29.326,-11.73,-23.46
0.8,-0.766,9.532,0.431,29.326,2.012,9.676,-0.096,29.326,-1.007,9.922,-0.288,29.326,-11.73,-29.326
0.805,-0.814,9.532,0.431,29.326,2.012,9.532,-0.24,35.191,-1.15,9.491,-0.288,29.326,-11.73,-23.46
0.81,-0.91,9.436,0.527,35.191,2.251,9.341,-0.24,35.191,-1.294,9.491,-0.431,23.46,-11.73,-35.191
0.8150000000000001,-1.341,9.005,0.383,41.056,3.066,9.197,0.335,35.191,-1.438,9.347,-0.431,23.46,-11.73,-35.191
0.8200000000000001,-1.389,8.957,0.431,46.921,3.401,8.957,0.0,35.191,-1.582,9.059,-0.144,23.46,-11.73,-41.056
0.8250000000000001,-1.629,8.957,0.575,46.921,2.97,9.053,-0.24,35.191,-2.013,8.916,-0.431,17.595,-11.73,-46.921
0.8300000000000001,-1.916,8.862,0.479,46.921,3.305,8.814,-0.144,35.191,-2.157,8.916,-0.431,17.595,-11.73,-46.921
0.835,-2.156,8.622,0.479,46.921,3.066,8.574,-0.575,29.326,-2.445,8.916,-0.431,17.595,-5.865,-46.921
0.84,-2.395,8.383,0.671,46.921,2.874,8.383,-0.479,29.326,-2.876,8.628,-0.431,17.595,-5.865,-46.921
0.845,-2.587,8.478,0.623,41.056,3.114,8.335,-0.479,29.326,-3.02,8.484,-0.575,17.595,0.0,-46.921
0.85,-2.539,8.43,0.575,35.191,3.018,8.43,-0.383,29.326,-3.02,8.484,-0.575,17.595,5.865,-41.056
0.855,-2.251,8.526,0.431,35.191,3.209,8.287,-0.287,29.326,-2.876,8.484,-0.431,17.595,5.865,-35.191
0.86,-2.06,8.574,0.383,29.326,2.826,8.383,-0.287,29.326,-2.588,8.628,-0.431,23.46,0.0,-29.326
0.865,-1.964,8.478,0.24,23.46,2.682,8.239,-0.144,23.46,-2.445,8.628,-0.288,23.46,0.0,-23.46
0.87,-1.916,8.335,0.144,23.46,2.922,8.239,0.048,23.46,-2.445,8.484,-0.288,23.46,0.0,-17.595
0.875,-1.82,8.191,0.24,23.46,2.587,8.335,0.096,23.46,-2.301,8.34,-0.0,23.46,0.0,-17.595
0.88,-2.012,7.904,0.335,23.46,3.066,8.047,0.096,23.46,-2.301,8.197,-0.144,23.46,0.0,-17.595
0.885,-2.108,7.76,0.479,23.46,3.257,7.951,-0.096,23.46,-2.301,7.765,-0.288,23.46,0.0,-17.595
0.89,-2.156,7.664,0.766,23.46,3.161,7.808,-0.287,23.46,-2.445,7.621,-0.431,23.46,-5.865,-23.46
0.895,-2.347,7.472,0.862,23.46,3.066,7.472,-0.431,23.46,-2.732,7.478,-0.719,17.595,-5.865,-23.46
0.9,-2.491,7.137,0.91,23.46,3.257,7.377,-0.479,23.46,-2.876,7.19,-0.863,17.595,-5.865,-23.46
0.905,-2.395,7.041,0.91,23.46,3.161,7.281,-0.623,23.46,-3.02,6.759,-0.863,0.0,0.0,-23.46
0.91,-2.347,7.425,0.91,23.46,3.257,7.281,-0.671,23.46,-3.02,6.902,-0.719,0.0,0.0,-23.46
0.915,-1.964,7.808,0.719,23.46,3.114,7.52,-0.527,23.46,-2.588,7.334,-0.863,0.0,5.865,-23.46
0.92,-1.82,7.808,0.479,23.46,2.922,7.664,-0.287,23.46,-2.301,7.621,-0.719,0.0,5.865,-23.46
0.925,-1.724,7.76,0.287,17.595,2.778,7.712,-0.096,17.595,-2.157,7.765,-0.431,0.0,0.0,-23.46
0.93,-1.677,7.951,0.287,17.595,2.682,7.808,-0.048,17.595,-2.013,7.765,-0.288,0.0,5.865,-17.595
0.935,-1.677,8.143,0.335,17.595,2.73,7.951,0.0,17.595,-2.013,7.909,-0.144,0.0,0.0,-17.595
0.9400000000000001,-1.772,8.287,0.287,11.73,2.874,8.143,0.0,11.73,-2.013,8.197,-0.144,0.0,0.0,-17.595
0.9450000000000001,-1.772,8.478,0.287,11.73,3.018,8.335,0.048,11.73,-2.013,8.34,-0.144,0.0,0.0,-17.595
0.9500000000000001,-1.82,8.718,0.287,11.73,3.018,8.43,0.0,11.73,-2.013,8.484,-0.288,0.0,0.0,-11.73
0.9550000000000001,-1.82,8.909,0.335,11.73,3.018,8.67,0.0,11.73,-2.157,8.772,-0.288,0.0,-5.865,-11.73
0.96,-1.868,9.101,0.287,11.73,3.114,8.957,-0.048,5.865,-2.301,9.059,-0.288,0.0,-5.865,-11.73
0.965,-1.964,9.245,0.192,11.73,2.97,9.053,0.048,5.865,-2.301,9.203,-0.288,0.0,-5.865,-11.73
0.97,-1.772,9.341,0.096,11.73,2.826,9.053,0.287,5.865,-2.301,9.347,-0.144,0.0,-5.865,-11.73
0.975,-1.629,9.341,-0.096,11.73,2.347,9.197,0.431,5.865,-2.301,9.347,-0.0,0.0,-5.865,-11.73
0.98,-1.581,9.341,-0.048,17.595,2.347,9.149,0.383,11.73,-2.301,9.347,0.144,0.0,-5.865,-17.595
0.985,-1.437,9.245,0.0,17.595,2.539,9.197,0.383,17.595,-2.013,9.347,0.144,0.0,0.0,-17.595
0.99,-1.389,9.149,0.0,23.46,2.587,9.197,0.431,17.595,-1.869,9.347,0.144,0.0,0.0,-23.46
0.995,-1.437,9.053,0.527,23.46,2.539,9.053,0.0,17.595,-1.726,9.203,0.144,0.0,0.0,-23.46
1.0,-1.437,9.149,0.192,23.46,2.491,9.005,0.144,17.595,-1.869,9.059,-0.0,0.0,0.0,-23.46
1.0050000000000001,-1.581,8.909,0.431,23.46,2.778,8.957,0.0,17.595,-1.582,8.916,-0.0,0.0,-5.865,-23.46
1.01,-1.724,8.766,0.575,17.595,2.826,8.718,-0.144,17.595,-1.726,8.916,-0.431,0.0,-5.865,-23.46
1.0150000000000001,-2.06,8.814,0.766,17.595,2.874,8.67,-0.287,17.595,-2.157,8.772,-0.575,0.0,-11.73,-17.595
1.02,-2.443,9.101,0.862,11.73,3.161,8.766,-0.527,11.73,-2.732,8.916,-0.719,0.0,-11.73,-11.73
1.025,-2.826,9.197,0.623,5.865,3.593,9.005,-0.431,11.73,-3.164,9.203,-0.863,0.0,-5.865,-11.73
1.03,-2.97,9.053,0.287,-0.0,3.784,9.101,-0.096,5.865,-3.595,9.203,-0.575,0.0,-5.865,-5.865
1.035,-2.874,8.718,0.096,-0.0,3.64,8.909,0.192,0.0,-3.883,8.916,-0.288,0.0,-5.865,0.0
1.04,-2.635,8.622,0.0,-5.865,3.64,8.526,0.335,0.0,-3.595,8.628,-0.0,0.0,0.0,0.0
1.045,-2.299,8.718,0.048,-0.0,3.545,8.574,0.287,0.0,-3.02,8.628,0.144,-5.865,5.865,0.0
1.05,-2.012,8.862,-0.096,-0.0,3.257,8.67,0.335,0.0,-2.588,8.772,-0.0,-5.865,11.73,0.0
1.055,-1.916,9.101,-0.144,-0.0,2.874,8.909,0.527,0.0,-2.588,8.772,0.144,-5.865,5.865,-5.865
1.06,-2.108,9.245,0.048,5.865,3.209,9.053,0.383,5.865,-2.301,9.059,0.144,-5.865,5.865,-5.865
1.065,-2.251,9.245,0.192,5.865,3.353,9.053,0.192,5.865,-2.445,9.347,-0.0,-5.865,5.865,-5.865
1.07,-2.443,9.197,0.24,-0.0,3.401,9.005,0.144,0.0,-2.732,9.347,-0.144,-5.865,5.865,-5.865
1.075,-2.491,9.197,0.192,-5.865,3.449,9.053,0.144,0.0,-2.876,9.347,-0.144,0.0,5.865,0.0
1.08,-2.587,9.005,0.192,-5.865,3.449,9.101,0.144,-5.865,-3.02,9.203,-0.144,0.0,5.865,5.865
1.085,-2.587,8.957,0.287,-5.865,3.593,9.005,0.096,-5.865,-3.164,8.916,-0.144,0.0,5.865,5.865
1.09,-2.587,8.862,0.287,-5.865,3.593,8.957,0.048,-5.865,-3.02,8.772,-0.288,0.0,5.865,5.865
1.095,-2.635,8.814,0.287,-5.865,3.593,8.862,0.048,-5.865,-3.02,8.772,-0.288,-5.865,5.865,5.865
1.1,-2.635,8.766,0.287,-5.865,3.593,8.814,0.048,0.0,-3.164,8.628,-0.288,-5.865,5.865,5.865
1.105,-2.587,8.718,0.335,-0.0,3.545,8.766,0.0,0.0,-3.164,8.628,-0.288,-5.865,5.865,5.865
1.11,-2.443,9.053,0.527,-0.0,3.401,8.718,-0.096,0.0,-3.164,8.628,-0.288,-11.73,5.865,0.0
1.115,-2.299,9.101,0.383,-0.0,3.161,8.67,0.24,0.0,-2.732,8.916,-0.575,-11.73,11.73,5.865
1.12,-2.012,9.867,0.862,5.865,2.299,11.113,-0.814,5.865,-2.876,9.059,-0.288,-11.73,5.865,0.0
1.125,-2.395,9.388,-0.287,11.73,3.784,8.909,0.335,11.73,-2.588,10.21,-0.863,-11.73,11.73,-5.865
1.1300000000000001,-2.299,9.197,-0.24,11.73,3.593,9.053,0.814,17.595,-2.445,9.778,0.575,-11.73,11.73,-11.73
1.135,-2.108,8.957,-0.144,11.73,3.353,8.957,0.527,11.73,-2.445,9.347,0.431,-11.73,11.73,-11.73
1.1400000000000001,-2.012,8.909,-0.192,5.865,3.018,9.005,0.479,11.73,-2.588,8.772,0.144,-5.865,5.865,-11.73
1.145,-2.203,8.718,-0.096,5.865,3.161,8.814,0.383,5.865,-2.588,8.772,0.288,-5.865,5.865,-5.865
1.1500000000000001,-2.443,8.478,-0.287,5.865,3.209,8.43,0.527,5.865,-2.588,8.772,0.144,-11.73,5.865,-5.865
1.155,-2.635,8.478,-0.335,5.865,3.688,8.67,0.719,11.73,-2.732,8.34,0.431,-11.73,5.865,-5.865
1.16,-2.491,8.478,-0.383,5.865,3.688,8.67,0.671,5.865,-3.02,8.197,0.431,-11.73,5.865,-5.865
1.165,-2.635,8.143,-0.91,5.865,3.449,8.43,0.766,5.865,-3.02,8.197,0.431,-17.595,0.0,-5.865
1.17,-2.347,8.239,-0.335,-0.0,3.593,8.383,1.006,5.865,-3.02,7.621,0.863,-17.595,0.0,0.0
1.175,-2.108,8.67,0.096,-0.0,3.449,8.622,0.575,0.0,-2.588,7.909,0.431,-23.46,0.0,0.0
1.18,-2.06,8.67,-0.431,-5.865,3.161,8.862,0.623,0.0,-2.157,8.197,-0.0,-29.326,-5.865,0.0
1.185,-2.347,8.622,-1.533,-5.865,3.018,8.766,1.054,-5.865,-2.588,8.34,0.431,-35.191,-5.865,5.865
1.19,-2.203,9.005,-0.096,-11.73,3.353,8.909,1.198,-5.865,-2.876,7.909,1.582,-41.056,-5.865,11.73
1.195,-2.203,9.484,0.192,-11.73,3.497,9.341,0.144,-11.73,-2.301,8.916,0.144,-46.921,-5.865,11.73
1.2,-2.251,9.82,0.048,-11.73,3.209,9.772,0.24,-11.73,-2.588,9.347,-0.144,-46.921,-11.73,11.73
1.205,-2.251,9.772,0.048,-11.73,3.401,9.867,0.335,-11.73,-2.876,9.635,-0.0,-52.786,-11.73,11.73
1.21,-2.156,9.532,0.24,-11.73,3.401,9.676,0.192,-11.73,-2.732,9.635,-0.0,-52.786,-11.73,11.73
1.215,-2.06,9.245,0.335,-17.595,3.209,9.293,0.0,-17.595,-2.445,9.491,-0.288,-58.651,-11.73,17.595
1.22,-2.012,9.197,0.431,-23.46,3.114,9.053,-0.048,-17.595,-2.588,9.347,-0.288,-58.651,-11.73,17.595
1.225,-1.82,9.101,0.527,-29.326,3.018,9.005,-0.144,-23.46,-2.588,9.347,-0.431,-58.651,-11.73,23.46
1.23,-1.868,9.293,0.671,-35.191,2.922,9.101,-0.287,-29.326,-2.876,9.635,-0.431,-58.651,-11.73,23.46
1.235,-1.82,9.388,0.862,-41.056,2.874,9.149,-0.431,-41.056,-2.445,9.635,-0.719,-58.651,-11.73,29.326
1.24,-1.964,9.484,0.958,-46.921,2.826,9.149,-0.527,-46.921,-2.445,9.491,-0.863,-58.651,-11.73,29.326
1.245,-2.012,9.532,1.15,-46.921,2.922,9.197,-0.766,-46.921,-2.301,9.491,-1.007,-52.786,-11.73,35.191
1.25,-1.964,9.58,1.341,-41.056,2.97,9.245,-0.958,-46.921,-2.301,9.491,-1.15,-52.786,-11.73,35.191
1.2550000000000001,-2.06,9.772,1.341,-41.056,2.922,9.293,-1.054,-41.056,-2.588,9.778,-1.294,-46.921,-5.865,35.191
1.26,-1.964,10.107,1.245,-35.191,3.018,9.532,-0.958,-41.056,-2.732,10.066,-1.294,-46.921,-5.865,35.191
1.2650000000000001,-1.772,10.586,0.862,-29.326,2.922,9.82,-0.719,-35.191,-2.732,10.497,-1.15,-41.056,-5.865,35.191
1.27,-1.485,10.49,0.575,-23.46,2.539,10.155,-0.383,-29.326,-2.588,11.216,-0.863,-35.191,0.0,29.326
1.2750000000000001,-1.437,10.73,-1.198,-23.46,2.682,10.203,0.0,-23.46,-2.157,10.785,-0.575,-29.326,0.0,23.46
1.28,-1.629,10.394,0.24,-17.595,2.682,10.251,0.814,-23.46,-2.732,11.36,1.438,-23.46,5.865,23.46
1.285,-1.341,10.442,0.431,-17.595,3.018,10.682,-0.192,-17.595,-1.726,10.21,-0.288,-17.595,5.865,23.46
1.29,-1.485,10.346,0.24,-17.595,2.682,11.017,0.0,-11.73,-1.726,9.778,-0.431,-17.595,5.865,17.595
1.295,-1.772,10.011,-0.335,-11.73,2.778,10.442,0.335,-11.73,-2.013,9.778,-0.144,-23.46,0.0,17.595
1.3,-1.868,9.82,-0.958,-11.73,3.066,9.867,1.054,-11.73,-2.301,9.778,0.431,-35.191,-5.865,11.73
1.305,-1.677,9.772,-1.245,-5.865,3.018,9.58,1.533,-5.865,-2.301,9.922,1.007,-35.191,-5.865,11.73
1.31,-1.006,10.538,-1.485,-0.0,2.826,9.82,1.916,0.0,-2.013,10.066,1.294,-35.191,-5.865,5.865
1.315,-1.245,10.346,-2.682,-0.0,2.347,9.82,2.203,5.865,-1.15,10.929,1.869,-35.191,-5.865,0.0
1.32,-1.581,10.634,-3.497,-0.0,2.682,10.155,3.928,0.0,-1.294,11.216,2.445,-29.326,-11.73,0.0
1.325,-1.629,10.778,-3.353,5.865,3.161,10.251,3.64,5.865,-1.726,11.216,3.739,-23.46,-17.595,0.0
1.33,-1.629,10.778,-3.209,11.73,3.018,10.682,3.736,11.73,-1.582,11.36,3.164,-11.73,-23.46,-5.865
1.335,-1.581,10.538,-2.874,23.46,2.778,10.73,3.401,17.595,-2.157,10.785,3.595,-5.865,-35.191,-11.73
1.34,-1.772,10.299,-2.778,23.46,3.161,10.778,3.066,23.46,-1.869,10.21,2.876,-5.865,-35.191,-17.595
1.345,-1.82,10.107,-3.161,17.595,3.305,10.586,3.305,17.595,-1.869,9.778,2.876,-5.865,-41.056,-17.595
1.35,-1.82,10.011,-3.64,23.46,3.257,10.251,3.736,17.595,-1.869,9.778,3.307,-11.73,-46.921,-17.595
1.355,-1.677,9.915,-4.119,23.46,3.257,10.011,4.311,17.595,-1.869,9.922,3.739,-17.595,-52.786,-17.595
1.36,-1.581,9.82,-4.359,23.46,3.161,9.867,4.694,23.46,-1.726,9.922,4.314,-23.46,-58.651,-17.595
1.365,-1.581,9.867,-4.311,23.46,3.161,9.82,4.742,23.46,-1.582,9.922,4.458,-23.46,-64.516,-23.46
1.37,-1.485,9.963,-3.976,29.326,3.257,9.772,4.598,23.46,-1.438,10.066,4.458,-23.46,-76.246,-23.46
1.375,-1.581,9.915,-3.257,29.326,3.066,9.724,4.024,29.326,-1.438,10.21,4.026,-23.46,-82.111,-23.46
1.3800000000000001,-1.677,9.772,-2.443,23.46,3.209,9.772,3.209,23.46,-1.582,10.066,3.307,-17.595,-93.842,-23.46
1.385,-1.772,9.724,-1.772,23.46,3.257,9.867,2.491,23.46,-1.726,9.778,2.445,-17.595,-105.572,-23.46
1.3900000000000001,-1.964,9.772,-1.102,17.595,3.353,10.107,1.82,17.595,-1.869,9.491,1.726,-17.595,-111.437,-17.595
1.395,-2.203,9.724,-0.287,23.46,3.545,10.155,1.102,17.595,-2.013,9.203,1.15,-17.595,-117.302,-17.595
1.4000000000000001,-2.347,9.724,0.719,23.46,3.736,10.059,0.24,17.595,-2.301,9.203,0.288,-23.46,-123.167,-17.595
1.405,-2.299,9.724,1.964,29.326,3.688,10.059,-0.91,23.46,-2.588,9.203,-0.863,-29.326,-129.032,-23.46
1.41,-2.156,9.628,3.449,29.326,3.545,9.963,-2.299,29.326,-2.588,9.203,-2.013,-41.056,-134.897,-23.46
1.415,-2.108,9.484,5.269,29.326,3.353,9.772,-3.928,29.326,-2.588,9.059,-3.595,-46.921,-140.762,-23.46
1.42,-2.108,9.341,7.472,29.326,3.114,9.58,-5.94,29.326,-2.588,9.059,-5.464,-52.786,-146.628,-23.46
1.425,-2.251,9.197,9.915,29.326,2.874,9.245,-8.43,23.46,-3.02,8.916,-7.621,-58.651,-146.628,-23.46
1.43,-2.299,9.149,12.31,23.46,2.539,9.005,-10.921,23.46,-3.595,8.916,-10.066,-64.516,-146.628,-23.46
1.435,-2.491,9.101,14.418,23.46,2.347,8.814,-13.316,23.46,-4.026,9.059,-12.511,-64.516,-134.897,-23.46
1.44,-2.682,8.909,16.047,23.46,2.347,8.574,-15.184,23.46,-4.602,9.059,-14.668,-70.381,-123.167,-17.595
1.445,-2.682,8.574,17.005,23.46,2.203,8.047,-16.526,23.46,-5.033,9.059,-16.249,-70.381,-105.572,-17.595
1.45,-2.587,8.143,17.484,17.595,2.012,7.329,-17.292,23.46,-5.321,9.059,-17.256,-64.516,-82.111,-17.595
1.455,-2.395,7.856,17.484,17.595,1.82,6.658,-17.531,17.595,-5.177,9.059,-17.687,-58.651,-52.786,-17.595
1.46,-2.156,7.664,16.861,11.73,1.629,6.371,-17.196,17.595,-5.033,9.059,-17.544,-46.921,-23.46,-11.73
1.465,-1.964,7.472,15.999,5.865,1.581,6.275,-16.382,11.73,-4.602,8.772,-16.968,-35.191,0.0,-11.73
1.47,-1.772,7.281,15.089,-0.0,1.389,6.227,-15.424,5.865,-4.17,8.484,-16.106,-23.46,29.326,0.0
1.475,-1.82,7.281,14.131,-5.865,1.485,6.323,-14.466,-5.865,-3.883,8.053,-15.243,-5.865,58.651,5.865
1.48,-1.82,7.425,12.885,-11.73,1.772,6.898,-13.364,-5.865,-3.739,7.765,-14.236,0.0,82.111,11.73
1.485,-1.629,7.425,11.209,-17.595,1.772,7.329,-11.831,-11.73,-3.451,7.334,-13.086,17.595,99.707,11.73
1.49,-1.485,7.281,9.197,-17.595,1.916,7.377,-9.915,-11.73,-3.02,7.19,-11.36,17.595,117.302,17.595
1.495,-1.245,7.137,6.898,-17.595,1.868,7.281,-7.664,-11.73,-2.588,6.902,-9.347,11.73,134.897,17.595
1.5,-1.054,6.946,4.407,-17.595,1.868,6.993,-5.173,-11.73,-2.013,6.902,-7.046,0.0,140.762,17.595
1.5050000000000001,-0.814,6.754,2.06,-17.595,1.868,6.658,-2.682,-17.595,-1.582,6.902,-4.458,0.0,146.628,23.46
1.51,-0.623,6.85,0.0,-23.46,1.772,6.419,-0.527,-17.595,-1.15,7.046,-2.157,0.0,152.493,23.46
1.5150000000000001,-0.671,7.185,-2.012,-23.46,1.724,6.658,1.533,-23.46,-0.719,7.334,-0.144,0.0,152.493,29.326
1.52,-0.862,7.664,-3.88,-29.326,2.012,7.089,3.449,-29.326,-0.719,7.621,2.013,0.0,146.628,29.326
1.5250000000000001,-1.006,8.047,-5.652,-23.46,2.347,7.712,5.269,-23.46,-0.719,7.909,3.883,17.595,146.628,29.326
1.53,-0.91,8.143,-7.281,-23.46,2.587,8.191,7.041,-23.46,-0.719,8.197,5.752,17.595,134.897,29.326
1.5350000000000001,-0.958,8.526,-9.101,-23.46,2.826,8.43,8.622,-23.46,-0.431,8.053,7.334,23.46,129.032,23.46
1.54,-1.054,8.766,-10.538,-23.46,2.778,8.766,10.251,-17.595,-0.144,8.628,9.347,17.595,117.302,23.46
1.545,-1.198,9.101,-11.736,-17.595,3.353,9.101,11.688,-17.595,-0.144,8.772,10.641,17.595,99.707,23.46
1.55,-1.15,9.436,-12.598,-17.595,3.497,9.532,12.646,-11.73,0.0,9.059,11.935,17.595,82.111,17.595
1.555,-1.198,9.772,-12.837,-11.73,3.545,9.867,13.173,-11.73,0.144,9.347,12.798,17.595,58.651,17.595
1.56,-1.533,9.82,-12.789,-5.865,3.688,10.251,13.268,-5.865,0.0,9.635,13.086,17.595,35.191,11.73
1.565,-1.485,9.724,-12.167,-0.0,3.928,10.394,12.885,0.0,-0.431,9.347,13.086,17.595,17.595,5.865
1.57,-1.437,9.628,-11.544,5.865,3.736,10.251,12.262,5.865,-0.431,9.203,12.367,11.73,-11.73,0.0
1.575,-1.389,9.484,-10.682,5.865,3.64,10.155,11.544,5.865,-0.431,9.059,11.792,0.0,-29.326,0.0
1.58,-1.437,9.245,-9.772,11.73,3.401,9.82,10.682,11.73,-0.575,9.059,10.929,-5.865,-52.786,-5.865
1.585,-1.437,9.197,-8.43,11.73,3.401,9.676,9.484,11.73,-0.863,8.772,9.922,-11.73,-76.246,-11.73
1.59,-1.485,9.245,-7.089,17.595,3.114,9.58,8.191,17.595,-0.863,8.772,8.628,-17.595,-87.977,-11.73
1.595,-1.389,9.436,-5.509,23.46,3.401,9.628,6.706,17.595,-1.007,8.916,7.19,-23.46,-105.572,-17.595
1.6,-1.006,9.532,-3.497,23.46,2.73,9.724,4.982,17.595,-1.007,9.203,5.608,-29.326,-123.167,-17.595
1.605,-1.054,9.628,-1.293,23.46,2.539,9.676,2.778,17.595,-0.863,9.491,3.451,-35.191,-134.897,-17.595
1.61,-0.958,9.82,1.006,17.595,2.443,9.82,0.575,17.595,-1.007,9.491,1.294,-35.191,-146.628,-23.46
1.615,-0.91,10.011,3.497,17.595,2.06,9.915,-1.82,17.595,-1.15,9.635,-1.15,-41.056,-152.493,-17.595
1.62,-0.958,10.203,6.035,17.595,1.868,9.915,-4.407,11.73,-1.582,10.066,-3.739,-41.056,-158.358,-17.595
1.625,-1.054,10.346,8.526,11.73,1.629,9.963,-7.041,11.73,-1.869,10.354,-6.183,-41.056,-158.358,-11.73
1.6300000000000001,-1.245,10.394,10.825,5.865,1.485,9.867,-9.532,11.73,-2.445,10.641,-8.772,-41.056,-152.493,-11.73
1.635,-1.581,10.346,12.598,5.865,1.485,9.867,-11.64,5.865,-3.02,10.785,-11.073,-41.056,-146.628,-5.865
1.6400000000000001,-1.677,10.203,13.891,5.865,1.533,9.724,-13.173,5.865,-3.595,10.641,-12.798,-35.191,-129.032,-5.865
1.645,-1.916,9.82,14.514,-0.0,1.581,9.388,-14.178,0.0,-3.883,10.497,-14.092,-29.326,-111.437,0.0
1.6500000000000001,-1.82,9.101,14.61,-5.865,1.724,8.862,-14.562,0.0,-4.17,10.21,-14.668,-29.326,-93.842,0.0
1.655,-1.629,8.43,14.37,-11.73,1.581,8.143,-14.418,-5.865,-3.883,9.491,-14.668,-23.46,-70.381,5.865
1.6600000000000001,-1.485,8.095,13.987,-17.595,1.485,7.568,-14.083,-11.73,-3.451,8.772,-14.524,-17.595,-46.921,11.73
1.665,-1.629,8.335,13.604,-23.46,1.389,7.52,-13.652,-17.595,-3.307,8.34,-14.092,-11.73,-29.326,17.595
1.67,-2.06,8.909,13.173,-23.46,1.724,7.999,-13.316,-23.46,-3.451,8.772,-13.661,-5.865,-11.73,23.46
1.675,-2.299,9.388,12.598,-17.595,2.156,8.67,-12.789,-23.46,-4.026,9.203,-13.373,-5.865,11.73,29.326
1.68,-2.156,9.484,11.879,-11.73,2.395,9.197,-12.071,-11.73,-4.17,9.491,-12.654,0.0,35.191,23.46
1.685,-1.82,9.197,11.065,-0.0,2.347,9.293,-11.304,0.0,-3.883,9.347,-11.935,0.0,52.786,11.73
1.69,-1.629,8.766,9.963,-0.0,2.299,9.149,-10.299,0.0,-3.164,8.772,-11.073,0.0,64.516,0.0
1.695,-1.581,8.287,8.67,-0.0,2.299,8.718,-9.053,5.865,-2.588,8.197,-10.066,0.0,76.246,0.0
1.7,-1.581,7.856,7.281,-5.865,2.491,8.239,-7.664,0.0,-2.301,7.765,-8.772,-5.865,87.977,0.0
1.705,-1.437,7.664,5.94,-17.595,2.443,7.712,-6.323,-5.865,-2.157,7.478,-7.334,-11.73,87.977,5.865
1.71,-1.581,7.76,4.455,-23.46,2.395,7.472,-4.838,-17.595,-1.869,7.621,-6.04,-23.46,93.842,17.595
1.715,-1.82,7.904,3.114,-35.191,2.682,7.472,-3.401,-29.326,-2.013,7.909,-4.458,-23.46,93.842,29.326
1.72,-1.772,8.143,1.916,-35.191,2.874,7.616,-2.06,-35.191,-2.157,8.197,-3.164,-23.46,93.842,35.191
1.725,-1.677,8.335,1.006,-29.326,2.778,7.856,-1.054,-29.326,-2.157,8.484,-1.869,-17.595,93.842,35.191
1.73,-1.581,8.526,0.24,-29.326,2.874,8.095,-0.24,-29.326,-1.869,8.628,-1.007,-11.73,93.842,35.191
1.735,-1.629,8.766,-0.431,-29.326,2.922,8.622,0.527,-23.46,-1.726,8.772,-0.288,-11.73,87.977,29.326
1.74,-1.533,8.957,-0.814,-23.46,3.018,9.005,1.054,-23.46,-1.726,8.628,0.575,-5.865,87.977,29.326
1.745,-1.437,9.149,-1.198,-29.326,3.066,9.341,1.389,-23.46,-1.438,8.628,0.863,-5.865,82.111,29.326
1.75,-1.293,9.245,-1.772,-29.326,2.587,9.58,1.724,-29.326,-1.294,8.628,1.294,-11.73,70.381,29.326
1.7550000000000001,-2.108,9.484,-2.012,-29.326,3.353,9.532,2.299,-29.326,-1.294,8.916,1.726,-17.595,64.516,29.326
1.76,-1.916,9.293,-1.916,-23.46,3.353,9.532,2.395,-23.46,-2.301,9.347,2.157,-23.46,52.786,29.326
1.7650000000000001,-1.389,9.245,-1.82,-17.595,3.114,9.245,2.203,-17.595,-2.013,9.059,2.013,-23.46,46.921,23.46
1.77,-1.485,9.149,-1.868,-17.595,2.587,9.197,2.156,-17.595,-1.438,9.347,1.869,-23.46,41.056,23.46
1.7750000000000001,-1.772,9.005,-1.82,-11.73,3.209,9.005,2.251,-11.73,-1.582,9.203,2.013,-23.46,35.191,17.595
1.78,-1.629,8.718,-1.533,-11.73,2.874,8.766,1.964,-5.865,-1.869,9.059,1.869,-23.46,29.326,11.73
1.7850000000000001,-1.677,8.43,-1.198,-11.73,2.826,8.335,1.629,-11.73,-1.869,8.916,1.582,-23.46,23.46,11.73
1.79,-1.82,8.095,-1.102,-11.73,2.874,7.999,1.533,-11.73,-1.869,8.772,1.294,-23.46,23.46,11.73
1.795,-1.772,7.808,-0.862,-11.73,2.826,7.664,1.341,-5.865,-2.157,8.34,1.15,-23.46,17.595,11.73
1.8,-1.772,7.568,-0.719,-11.73,2.73,7.281,1.15,-11.73,-2.157,8.197,1.007,-17.595,11.73,11.73
1.805,-1.772,7.377,-0.575,-11.73,2.682,7.089,1.006,-11.73,-2.157,7.909,0.863,-11.73,11.73,11.73
1.81,-1.724,7.52,-0.431,-11.73,2.539,7.041,0.814,-11.73,-2.301,7.621,0.575,-11.73,11.73,11.73
1.815,-1.868,8.814,-0.479,-11.73,3.018,7.999,0.862,-11.73,-1.869,7.621,0.575,-5.865,11.73,11.73
1.82,-2.874,14.514,-1.724,5.865,3.88,12.023,0.958,-5.865,-1.869,8.197,0.431,-5.865,11.73,11.73
1.825,-3.832,16.142,-5.221,52.786,4.79,14.753,3.497,23.46,-3.02,13.949,1.869,-5.865,5.865,0.0
1.83,-3.305,14.178,-1.437,82.111,4.551,14.562,4.263,82.111,-6.471,19.413,5.033,-11.73,0.0,-52.786
1.835,1.533,9.053,1.437,46.921,3.114,13.268,-0.096,70.381,-2.876,12.079,1.582,0.0,5.865,-82.111
1.84,0.048,8.909,1.964,35.191,0.096,9.197,-1.581,35.191,2.445,7.765,-1.582,-5.865,0.0,-41.056
1.845,-3.449,9.963,1.15,46.921,3.305,9.963,-1.102,41.056,0.0,8.197,-1.869,-23.46,-11.73,-35.191
1.85,-3.784,10.442,1.293,23.46,5.03,10.346,-0.814,35.191,-4.17,9.347,-1.007,-41.056,-23.46,-46.921
1.855,-1.964,10.203,1.677,-0.0,3.784,9.772,-1.198,11.73,-4.745,10.641,-1.294,-46.921,-23.46,-23.46
1.86,-1.198,9.676,2.108,-11.73,2.299,9.245,-1.629,-5.865,-2.876,10.929,-1.726,-46.921,-23.46,5.865
1.865,-1.916,9.724,2.443,-0.0,2.73,9.149,-2.012,-5.865,-1.582,10.354,-2.157,-41.056,-23.46,11.73
1.87,-2.299,10.011,2.73,-0.0,3.257,9.436,-2.251,5.865,-2.445,10.066,-2.445,-35.191,-17.595,0.0
1.875,-2.06,10.059,3.209,-5.865,3.209,9.436,-2.682,0.0,-3.164,10.497,-2.732,-29.326,-17.595,0.0
1.8800000000000001,-1.916,9.915,3.401,-11.73,2.97,9.436,-3.066,-11.73,-2.876,10.641,-3.164,-23.46,-17.595,11.73
1.885,-2.108,9.676,3.497,-11.73,2.922,9.436,-3.209,-11.73,-2.588,10.354,-3.451,-17.595,-17.595,11.73
1.8900000000000001,-2.395,9.341,3.593,-5.865,3.209,9.245,-3.305,-11.73,-2.876,9.922,-3.451,-11.73,-11.73,11.73
1.895,-2.491,9.053,3.64,-5.865,3.353,9.005,-3.353,-5.865,-3.164,9.491,-3.595,-5.865,-11.73,11.73
1.9000000000000001,-2.491,8.862,3.545,-0.0,3.305,8.814,-3.257,0.0,-3.307,9.059,-3.595,-5.865,-5.865,5.865
1.905,-2.491,8.67,3.401,-0.0,3.257,8.67,-3.114,0.0,-3.307,8.772,-3.451,0.0,-5.865,0.0
1.9100000000000001,-2.491,8.478,3.161,5.865,3.353,8.526,-2.97,5.865,-3.307,8.484,-3.307,0.0,0.0,0.0
1.915,-2.395,8.43,2.874,5.865,3.353,8.383,-2.682,11.73,-3.164,8.34,-3.164,0.0,0.0,-5.865
1.92,-2.251,8.383,2.635,11.73,3.257,8.335,-2.443,11.73,-3.02,8.34,-2.876,-5.865,5.865,-11.73
1.925,-2.203,8.43,2.443,17.595,3.209,8.335,-2.251,17.595,-2.876,8.34,-2.588,-5.865,5.865,-11.73
1.93,-2.108,8.574,2.203,11.73,3.209,8.383,-1.964,17.595,-2.588,8.34,-2.445,-5.865,11.73,-11.73
1.935,-2.108,8.718,2.108,11.73,3.161,8.574,-1.82,17.595,-2.588,8.484,-2.157,-5.865,11.73,-11.73
1.94,-2.06,8.766,2.156,11.73,3.161,8.718,-1.772,17.595,-2.588,8.628,-2.157,-11.73,11.73,-11.73
1.945,-2.012,8.862,2.203,11.73,3.209,8.766,-1.82,11.73,-2.445,8.628,-2.157,-11.73,5.865,-11.73
1.95,-1.916,9.005,2.156,11.73,3.114,8.909,-1.868,11.73,-2.301,8.772,-2.157,-11.73,5.865,-11.73
1.955,-2.012,9.101,2.156,5.865,3.066,9.053,-1.82,11.73,-2.301,8.916,-2.157,-11.73,5.865,-11.73
1.96,-2.108,9.053,2.156,5.865,3.161,9.053,-1.772,11.73,-2.445,8.916,-2.157,-17.595,0.0,-5.865
1.965,-2.156,9.005,2.203,5.865,3.161,8.957,-1.868,5.865,-2.588,9.059,-2.157,-17.595,0.0,-5.865
1.97,-2.156,9.005,2.203,-0.0,3.209,8.909,-1.916,5.865,-2.732,8.916,-2.157,-17.595,0.0,0.0
1.975,-2.203,9.005,2.299,-0.0,3.209,8.909,-1.916,0.0,-2.588,8.916,-2.157,-17.595,0.0,0.0
1.98,-2.299,9.101,2.395,-5.865,3.305,9.005,-2.012,0.0,-2.732,8.916,-2.301,-17.595,0.0,0.0
1.985,-2.539,9.197,2.539,-5.865,3.449,9.101,-2.156,0.0,-2.732,9.059,-2.445,-17.595,0.0,5.865
1.99,-2.682,9.293,2.635,-0.0,3.545,9.197,-2.251,0.0,-3.164,9.059,-2.445,-23.46,0.0,5.865
1.995,-2.635,9.293,2.682,-0.0,3.64,9.245,-2.395,0.0,-3.307,9.203,-2.732,-23.46,0.0,0.0
2.0,-2.443,9.197,2.682,-0.0,3.497,9.245,-2.395,5.865,-3.307,9.203,-2.732,-23.46,0.0,0.0
2.005,-2.347,9.101,2.826,-0.0,3.401,9.053,-2.395,5.865,-3.164,9.059,-2.732,-23.46,0.0,0.0
2.0100000000000002,-2.203,9.341,3.018,-0.0,3.353,8.909,-2.635,5.865,-2.876,9.059,-2.732,-29.326,0.0,0.0
2.015,-1.868,10.873,3.209,5.865,3.257,9.341,-2.826,5.865,-2.732,9.347,-3.02,-29.326,5.865,0.0
2.02,-1.724,10.682,3.114,5.865,3.066,10.107,-3.066,5.865,-2.876,8.197,-3.164,-23.46,0.0,0.0
2.025,-2.203,9.197,3.018,5.865,3.114,9.82,-2.922,5.865,-2.876,9.059,-3.307,-17.595,0.0,11.73
2.0300000000000002,-2.491,9.245,3.066,5.865,3.449,8.814,-3.066,11.73,-2.732,11.073,-3.307,-5.865,0.0,17.595
2.035,-2.491,9.341,3.305,5.865,3.497,8.957,-3.018,5.865,-3.164,10.641,-3.307,-5.865,0.0,11.73
2.04,-2.443,9.484,3.353,5.865,3.497,9.005,-2.922,5.865,-3.02,10.066,-3.307,0.0,0.0,5.865
2.045,-2.491,9.484,3.449,5.865,3.401,9.245,-3.018,5.865,-3.02,9.635,-3.164,0.0,0.0,5.865
2.05,-2.682,8.766,3.305,5.865,3.545,9.149,-3.018,5.865,-3.02,9.203,-3.307,0.0,0.0,5.865
2.055,-2.539,8.718,3.161,11.73,3.545,8.718,-2.97,11.73,-3.02,9.491,-3.307,11.73,0.0,5.865
2.06,-2.395,8.862,3.066,11.73,3.449,8.574,-2.826,11.73,-3.02,8.916,-3.164,11.73,5.865,0.0
2.065,-2.443,8.478,2.874,11.73,3.449,8.574,-2.73,11.73,-3.02,8.197,-3.164,11.73,5.865,-5.865
2.07,-2.443,8.909,2.587,11.73,3.545,8.383,-2.443,11.73,-2.876,8.484,-3.02,11.73,5.865,-5.865
2.075,-2.299,9.388,2.491,11.73,3.449,8.862,-2.299,11.73,-3.02,8.484,-2.588,11.73,5.865,-5.865
2.08,-2.251,9.245,2.156,11.73,3.353,9.197,-2.012,17.595,-3.02,8.34,-2.445,11.73,5.865,-5.865
2.085,-2.587,8.383,2.156,11.73,3.401,9.101,-2.012,17.595,-2.732,8.916,-2.445,11.73,5.865,-5.865
2.09,-2.443,8.814,1.868,11.73,3.545,8.766,-1.581,17.595,-2.445,9.922,-1.726,11.73,11.73,-5.865
2.095,-2.395,8.67,1.916,11.73,3.545,8.862,-1.437,11.73,-2.732,9.059,-1.869,11.73,11.73,-11.73
2.1,-2.299,8.622,1.964,5.865,3.545,8.718,-1.677,11.73,-2.445,9.059,-1.869,0.0,11.73,-5.865
2.105,-2.108,9.053,2.108,-0.0,3.353,8.814,-1.724,5.865,-2.301,9.203,-1.869,0.0,5.865,-5.865
2.11,-2.156,9.197,2.203,-0.0,3.209,9.053,-1.868,0.0,-2.301,9.203,-2.157,0.0,0.0,0.0
2.115,-2.06,9.484,2.203,-5.865,3.161,9.149,-1.916,0.0,-2.301,9.635,-2.157,-5.865,0.0,0.0
2.12,-1.964,9.82,2.108,-11.73,3.066,9.436,-1.868,-5.865,-2.301,10.066,-2.157,-5.865,0.0,5.865
2.125,-2.012,10.059,2.108,-11.73,3.114,9.628,-1.772,-5.865,-2.301,10.21,-2.157,-5.865,0.0,5.865
2.13,-1.916,10.251,2.251,-11.73,3.066,9.867,-1.868,-11.73,-2.445,10.354,-2.157,0.0,-5.865,11.73
2.1350000000000002,-1.964,10.251,2.251,-5.865,3.018,9.963,-1.916,-11.73,-2.445,10.497,-2.157,0.0,-5.865,11.73
2.14,-2.012,10.155,2.299,-5.865,3.066,9.963,-1.964,-5.865,-2.445,10.497,-2.301,0.0,-5.865,11.73
2.145,-2.012,10.011,2.299,-5.865,3.161,9.963,-2.012,-5.865,-2.445,10.354,-2.301,0.0,-5.865,11.73
2.15,-2.012,9.772,2.395,-5.865,3.161,9.82,-2.06,0.0,-2.445,10.066,-2.301,0.0,0.0,5.865
2.1550000000000002,-2.108,9.436,2.395,-0.0,3.161,9.532,-2.06,0.0,-2.445,9.778,-2.301,11.73,-5.865,5.865
2.16,-2.156,9.197,2.395,-0.0,3.209,9.245,-2.108,0.0,-2.445,9.491,-2.445,0.0,-5.865,0.0
2.165,-2.299,8.766,2.443,5.865,3.209,8.909,-2.06,5.865,-2.588,9.059,-2.445,0.0,-5.865,0.0
2.17,-2.203,8.814,2.395,-0.0,3.305,8.718,-2.156,5.865,-2.732,8.772,-2.445,0.0,-5.865,0.0
2.1750000000000003,-2.108,8.909,2.347,-0.0,3.161,8.909,-2.06,0.0,-2.588,8.628,-2.445,0.0,-5.865,0.0
2.18,-2.156,8.957,2.251,-0.0,3.257,9.005,-1.964,0.0,-2.445,8.772,-2.301,0.0,-5.865,0.0
2.185,-2.203,9.005,2.108,-0.0,3.305,9.053,-1.868,0.0,-2.588,8.772,-2.301,0.0,-5.865,0.0
2.19,-2.251,8.909,2.108,-0.0,3.305,8.957,-1.772,0.0,-2.588,8.772,-2.013,0.0,-5.865,0.0
2.195,-2.347,8.814,2.06,-0.0,3.353,8.814,-1.772,0.0,-2.732,8.772,-2.013,0.0,-5.865,0.0
2.2,-2.347,8.718,2.108,-5.865,3.401,8.766,-1.772,0.0,-2.732,8.772,-2.013,-5.865,-5.865,5.865
2.205,-2.347,8.574,2.156,-5.865,3.353,8.622,-1.82,0.0,-2.732,8.628,-2.013,-5.865,-5.865,5.865
2.21,-2.251,8.478,2.251,-5.865,3.353,8.478,-1.916,-5.865,-2.732,8.484,-2.157,-11.73,-5.865,5.865
2.215,-2.251,8.383,2.347,-11.73,3.305,8.335,-1.964,-5.865,-2.588,8.484,-2.301,-11.73,-11.73,11.73
2.22,-2.299,8.335,2.491,-11.73,3.257,8.239,-2.108,-11.73,-2.732,8.34,-2.445,-11.73,-11.73,11.73
2.225,-2.251,8.335,2.587,-17.595,3.257,8.143,-2.203,-11.73,-2.732,8.34,-2.445,-11.73,-11.73,11.73
2.23,-2.203,8.383,2.73,-17.595,3.161,8.191,-2.347,-17.595,-2.732,8.34,-2.588,-11.73,-5.865,17.595
2.235,-2.156,8.526,2.922,-17.595,3.161,8.287,-2.491,-17.595,-2.732,8.484,-2.732,-11.73,-5.865,17.595
2.24,-2.108,8.718,2.97,-23.46,3.114,8.43,-2.682,-17.595,-2.588,8.628,-2.876,-11.73,-5.865,23.46
2.245,-2.06,8.862,2.97,-23.46,3.066,8.622,-2.682,-17.595,-2.588,8.772,-3.02,-11.73,-5.865,23.46
2.25,-2.012,8.957,2.97,-23.46,3.018,8.766,-2.682,-23.46,-2.588,8.916,-3.02,-11.73,-5.865,23.46
2.255,-2.06,8.909,2.922,-23.46,3.018,8.766,-2.635,-23.46,-2.445,9.059,-3.02,-11.73,-5.865,23.46
2.2600000000000002,-2.012,8.862,2.874,-23.46,3.066,8.67,-2.587,-23.46,-2.445,9.059,-2.876,-5.865,-5.865,23.46
2.265,-1.868,8.909,2.874,-23.46,2.97,8.622,-2.539,-23.46,-2.445,8.916,-2.876,-5.865,-5.865,23.46
2.27,-1.772,9.053,2.826,-23.46,2.826,8.766,-2.539,-23.46,-2.301,9.059,-2.876,-5.865,-5.865,23.46
2.275,-1.82,9.197,2.826,-17.595,2.778,9.005,-2.539,-17.595,-2.157,9.203,-2.876,-5.865,-5.865,23.46
2.2800000000000002,-1.964,9.245,2.874,-17.595,2.922,9.101,-2.539,-17.595,-2.157,9.203,-2.876,-5.865,-5.865,17.595
2.285,-2.06,9.149,3.018,-17.595,2.97,9.005,-2.682,-17.595,-2.445,9.347,-2.876,-5.865,-5.865,17.595
2.29,-2.06,8.957,3.018,-11.73,2.97,8.718,-2.778,-11.73,-2.732,9.347,-3.02,-5.865,0.0,17.595
2.295,-2.012,8.909,2.922,-11.73,2.922,8.526,-2.682,-11.73,-2.588,9.347,-3.02,0.0,0.0,11.73
2.3000000000000003,-2.012,9.005,2.874,-11.73,2.922,8.67,-2.587,-11.73,-2.588,9.203,-2.876,0.0,0.0,11.73
2.305,-1.964,9.005,2.874,-11.73,3.018,8.814,-2.587,-5.865,-2.445,9.203,-2.876,0.0,0.0,11.73
2.31,-1.916,9.053,2.922,-11.73,2.97,8.814,-2.635,-5.865,-2.301,9.203,-2.876,0.0,5.865,5.865
2.315,-1.916,9.149,2.97,-11.73,2.97,9.005,-2.635,-5.865,-2.301,9.203,-3.02,0.0,0.0,11.73
2.32,-1.916,9.245,2.97,-11.73,3.018,9.197,-2.682,-11.73,-2.301,9.059,-3.02,11.73,0.0,11.73
2.325,-1.964,9.245,2.97,-11.73,3.018,9.293,-2.682,-11.73,-2.301,9.059,-3.02,0.0,0.0,11.73
2.33,-1.964,9.149,3.018,-17.595,3.018,9.149,-2.73,-11.73,-2.301,9.059,-3.02,0.0,0.0,11.73
2.335,-1.964,8.957,3.066,-17.595,2.97,8.909,-2.73,-17.595,-2.445,9.203,-3.02,0.0,0.0,17.595
2.34,-1.916,8.909,3.114,-17.595,2.97,8.718,-2.778,-17.595,-2.445,9.059,-3.02,0.0,0.0,17.595
2.345,-1.868,8.862,3.161,-23.46,2.922,8.718,-2.874,-17.595,-2.301,9.059,-3.164,0.0,0.0,23.46
2.35,-1.82,8.862,3.114,-23.46,2.874,8.718,-2.826,-17.595,-2.301,8.916,-3.164,0.0,0.0,23.46
2.355,-1.868,8.814,3.066,-23.46,2.874,8.67,-2.826,-23.46,-2.157,8.916,-3.164,0.0,0.0,23.46
2.36,-1.916,8.766,3.018,-29.326,2.874,8.622,-2.778,-23.46,-2.301,8.916,-3.02,0.0,0.0,29.326
2.365,-1.82,8.862,2.97,-29.326,2.874,8.622,-2.73,-29.326,-2.301,8.916,-3.02,0.0,0.0,29.326
2.37,-1.724,9.101,2.826,-29.326,2.826,8.862,-2.635,-29.326,-2.301,8.916,-3.02,0.0,0.0,29.326
2.375,-1.629,9.293,2.682,-29.326,2.73,9.149,-2.443,-29.326,-2.157,9.059,-2.876,0.0,0.0,29.326
2.38,-1.533,9.341,2.539,-29.326,2.635,9.245,-2.299,-29.326,-2.013,9.203,-2.732,0.0,0.0,29.326
2.3850000000000002,-1.485,9.245,2.395,-29.326,2.587,9.149,-2.156,-29.326,-1.869,9.347,-2.445,0.0,0.0,29.326
2.39,-1.485,9.197,2.299,-29.326,2.587,9.053,-2.012,-29.326,-1.869,9.347,-2.445,0.0,0.0,29.326
2.395,-1.533,9.197,2.203,-23.46,2.587,9.053,-1.964,-29.326,-1.869,9.347,-2.301,0.0,0.0,29.326
2.4,-1.533,9.293,2.108,-23.46,2.587,9.053,-1.82,-23.46,-1.869,9.347,-2.157,0.0,0.0,29.326
2.4050000000000002,-1.437,9.197,1.964,-23.46,2.443,9.053,-1.724,-23.46,-2.013,9.347,-2.157,0.0,0.0,23.46
2.41,-1.581,9.293,1.916,-17.595,2.395,8.909,-1.629,-23.46,-2.013,9.347,-2.013,0.0,0.0,23.46
2.415,-1.724,9.532,1.82,-17.595,2.73,9.341,-1.533,-17.595,-2.157,9.491,-1.869,0.0,0.0,23.46
2.42,-1.82,9.724,1.724,-11.73,2.826,9.58,-1.485,-11.73,-2.157,9.491,-1.869,11.73,0.0,17.595
2.4250000000000003,-1.82,10.059,1.485,-5.865,3.066,10.059,-1.341,-5.865,-2.301,9.635,-1.726,11.73,0.0,11.73
2.43,-1.724,10.059,1.341,-0.0,2.922,10.251,-1.054,-5.865,-2.157,9.778,-1.438,11.73,0.0,5.865
2.435,-1.581,10.011,1.293,5.865,2.826,10.203,-1.006,5.865,-2.157,9.778,-1.294,0.0,0.0,0.0
2.44,-1.341,9.867,0.958,5.865,2.587,10.059,-0.814,5.865,-1.869,9.778,-1.294,0.0,0.0,0.0
2.445,-1.293,9.82,0.814,5.865,2.443,9.963,-0.527,11.73,-1.726,9.635,-0.863,0.0,0.0,-5.865
2.45,-1.437,9.82,0.862,5.865,2.635,9.963,-0.479,11.73,-1.582,9.635,-0.719,-5.865,-5.865,-5.865
2.455,-1.533,9.915,1.102,5.865,2.778,10.059,-0.623,11.73,-1.582,9.635,-0.863,-11.73,-5.865,-5.865
2.46,-1.533,9.772,1.389,-0.0,2.682,9.915,-0.91,5.865,-1.869,9.778,-1.007,-11.73,-11.73,-5.865
2.465,-1.629,9.101,1.629,-5.865,2.539,9.532,-1.198,0.0,-1.869,10.066,-1.294,-17.595,-11.73,0.0
2.47,-1.533,9.484,1.724,-5.865,2.587,9.293,-1.341,-5.865,-1.726,10.497,-1.582,-17.595,-11.73,5.865
2.475,-1.341,10.251,2.012,-11.73,2.539,9.628,-1.581,-11.73,-1.869,10.354,-1.869,-23.46,-11.73,5.865
2.48,-1.341,10.107,2.299,-11.73,2.395,10.011,-1.82,-11.73,-2.013,9.778,-2.013,-23.46,-11.73,5.865
2.485,-1.485,10.107,2.539,-11.73,2.443,9.724,-2.108,-11.73,-1.869,10.21,-2.301,-23.46,-11.73,11.73
2.49,-1.581,10.155,2.587,-11.73,2.539,9.867,-2.299,-11.73,-2.013,10.354,-2.588,-23.46,-11.73,11.73
2.495,-1.581,10.299,2.682,-11.73,2.587,10.011,-2.347,-11.73,-2.157,10.354,-2.588,-17.595,-11.73,11.73
2.5,-1.677,9.82,2.682,-11.73,2.635,9.724,-2.347,-11.73,-2.301,10.066,-2.588,-17.595,-5.865,5.865
2.505,-1.581,10.011,2.73,-11.73,2.635,9.58,-2.395,-5.865,-2.301,10.641,-2.588,-11.73,-5.865,5.865
2.5100000000000002,-1.437,9.963,2.682,-5.865,2.491,9.82,-2.395,-5.865,-2.157,10.354,-2.732,-11.73,-5.865,5.865
2.515,-1.293,10.346,2.587,-5.865,2.491,9.772,-2.395,-5.865,-1.869,10.354,-2.732,-11.73,0.0,0.0
2.52,-1.437,9.963,2.491,-5.865,2.443,9.963,-2.299,-5.865,-2.013,9.922,-2.732,-11.73,0.0,0.0
2.525,-1.341,10.059,2.347,-5.865,2.443,9.772,-2.06,0.0,-1.869,10.066,-2.445,-5.865,0.0,0.0
2.5300000000000002,-1.389,9.915,2.299,-5.865,2.491,9.724,-2.012,0.0,-2.013,9.635,-2.301,-5.865,0.0,0.0
2.535,-1.341,10.011,2.347,-5.865,2.443,9.724,-2.012,0.0,-1.869,9.922,-2.301,0.0,0.0,0.0
2.54,-1.437,9.82,2.395,-5.865,2.443,9.772,-2.06,0.0,-1.869,9.778,-2.301,0.0,0.0,0.0
2.545,-1.485,9.724,2.443,-0.0,2.491,9.724,-2.108,0.0,-1.869,9.922,-2.301,0.0,0.0,0.0
2.5500000000000003,-1.341,9.867,2.443,-0.0,2.491,9.676,-2.156,0.0,-2.013,10.066,-2.445,0.0,0.0,0.0
2.555,-1.293,9.724,2.443,-0.0,2.395,9.724,-2.156,0.0,-1.869,9.491,-2.445,0.0,0.0,0.0
2.56,-1.341,9.532,2.443,-0.0,2.395,9.532,-2.108,0.0,-1.869,9.347,-2.445,0.0,0.0,0.0
2.565,-1.341,9.436,2.539,-0.0,2.395,9.341,-2.203,0.0,-1.869,9.347,-2.445,0.0,0.0,0.0
2.57,-1.293,9.484,2.587,-0.0,2.395,9.341,-2.299,0.0,-1.869,9.491,-2.588,0.0,0.0,0.0
2.575,-1.245,9.58,2.587,-0.0,2.347,9.388,-2.299,0.0,-1.726,9.635,-2.588,0.0,0.0,0.0
2.58,-1.198,9.58,2.491,-0.0,2.299,9.436,-2.251,0.0,-1.726,9.635,-2.588,0.0,0.0,0.0
2.585,-1.102,9.772,2.347,-0.0,2.299,9.532,-2.108,0.0,-1.582,9.778,-2.445,0.0,0.0,0.0
2.59,-1.15,9.676,2.299,-0.0,2.251,9.58,-2.06,0.0,-1.582,9.635,-2.445,0.0,0.0,0.0
2.595,-1.198,9.628,2.251,-0.0,2.299,9.532,-1.964,0.0,-1.582,9.635,-2.301,0.0,0.0,0.0
2.6,-1.293,9.58,2.203,-0.0,2.347,9.532,-1.916,0.0,-1.726,9.491,-2.157,0.0,-5.865,0.0
2.605,-1.341,9.484,2.203,-0.0,2.347,9.388,-1.916,0.0,-1.869,9.491,-2.157,0.0,-5.865,0.0
2.61,-1.245,9.341,2.203,-0.0,2.251,9.197,-1.916,0.0,-1.869,9.635,-2.157,0.0,-5.865,0.0
2.615,-1.102,9.293,2.108,-0.0,2.203,9.197,-1.868,5.865,-1.726,9.491,-2.157,0.0,-5.865,0.0
2.62,-1.15,9.149,2.108,-0.0,2.203,9.149,-1.772,0.0,-1.582,9.347,-2.157,0.0,-5.865,0.0
2.625,-1.245,9.101,2.012,-0.0,2.203,9.053,-1.724,0.0,-1.582,9.203,-2.013,0.0,-5.865,0.0
2.63,-1.341,9.101,2.06,-0.0,2.347,8.957,-1.724,0.0,-1.726,9.059,-2.013,0.0,0.0,0.0
2.6350000000000002,-1.293,9.245,2.012,-0.0,2.347,9.005,-1.724,0.0,-1.869,9.203,-2.013,0.0,-5.865,0.0
2.64,-1.198,9.388,1.916,-0.0,2.251,9.101,-1.629,0.0,-1.726,9.347,-2.013,0.0,-5.865,0.0
2.645,-1.15,9.532,1.916,-0.0,2.251,9.245,-1.581,0.0,-1.582,9.491,-1.869,0.0,0.0,0.0
2.65,-1.15,9.628,1.916,-0.0,2.251,9.388,-1.629,0.0,-1.582,9.635,-1.869,0.0,-5.865,0.0
2.6550000000000002,-1.102,9.772,1.868,-0.0,2.203,9.484,-1.581,0.0,-1.582,9.778,-1.869,0.0,-5.865,0.0
2.66,-1.102,9.867,1.82,-0.0,2.203,9.676,-1.533,0.0,-1.582,9.922,-1.869,0.0,-5.865,5.865
2.665,-1.054,9.915,1.772,-0.0,2.156,9.724,-1.485,0.0,-1.582,10.066,-1.726,0.0,-5.865,5.865
2.67,-0.958,9.867,1.772,-0.0,2.108,9.772,-1.485,0.0,-1.438,10.066,-1.726,11.73,-5.865,0.0
2.6750000000000003,-1.006,9.82,1.772,-0.0,2.108,9.772,-1.437,0.0,-1.438,9.922,-1.726,11.73,-5.865,0.0
2.68,-0.958,9.82,1.772,-0.0,2.108,9.724,-1.485,0.0,-1.438,9.922,-1.726,11.73,-5.865,0.0
2.685,-1.006,9.82,1.772,-0.0,2.108,9.772,-1.485,0.0,-1.438,9.778,-1.726,11.73,-5.865,0.0
2.69,-1.102,9.867,1.533,-0.0,2.203,9.867,-1.293,0.0,-1.438,9.778,-1.726,11.73,-5.865,0.0
2.695,-1.15,9.772,1.485,-0.0,2.299,9.963,-1.054,0.0,-1.582,9.635,-1.438,0.0,-11.73,0.0
2.7,0.144,9.772,0.479,-0.0,2.156,9.82,-1.102,0.0,-1.438,9.635,-1.438,0.0,-11.73,0.0
2.705,-0.719,9.915,1.006,5.865,1.677,9.963,-0.431,5.865,-0.575,9.059,-0.575,0.0,-11.73,0.0
2.71,-1.485,9.82,1.102,11.73,2.539,10.059,-0.719,11.73,-0.575,9.635,-0.863,0.0,-11.73,-5.865
2.715,-1.102,9.676,0.958,11.73,2.395,9.867,-0.766,11.73,-2.157,9.491,-1.15,-5.865,-17.595,-11.73
2.72,-0.814,9.58,0.383,11.73,1.198,10.059,0.24,11.73,-1.726,9.491,-0.863,-11.73,-17.595,-11.73
2.725,-1.293,9.676,0.91,23.46,2.539,9.915,-0.335,23.46,-0.863,9.635,-0.288,-17.595,-17.595,-11.73
2.73,-1.485,9.724,1.198,23.46,2.682,9.867,-0.671,29.326,-1.438,9.491,-0.863,-17.595,-17.595,-23.46
2.735,-1.293,9.197,1.245,29.326,2.587,9.388,-0.623,29.326,-1.726,9.491,-0.863,-23.46,-23.46,-23.46
2.74,-1.15,9.149,1.533,29.326,2.203,8.814,-1.15,29.326,-1.726,9.347,-1.15,-23.46,-29.326,-23.46
2.745,-0.623,10.059,2.203,29.326,2.203,9.149,-1.389,29.326,-1.726,9.491,-1.582,-23.46,-29.326,-23.46
2.75,-1.772,10.203,1.724,23.46,2.682,9.628,-1.629,29.326,-1.007,10.21,-2.013,-23.46,-29.326,-23.46
2.755,-1.054,10.49,1.868,23.46,2.443,9.341,-1.581,23.46,-2.301,10.929,-1.726,-23.46,-29.326,-23.46
2.7600000000000002,-1.006,10.251,2.156,5.865,1.964,9.484,-1.677,11.73,-1.438,11.792,-1.726,-11.73,-35.191,-17.595
2.765,-1.916,10.921,2.539,-5.865,2.299,9.676,-2.108,0.0,-1.726,11.073,-2.157,0.0,-29.326,-5.865
2.77,-1.437,12.071,2.682,-0.0,3.545,11.352,-2.587,0.0,-2.445,11.648,-2.588,0.0,-29.326,5.865
2.775,-0.383,12.071,2.443,-5.865,1.629,11.783,-2.06,5.865,-1.869,12.654,-2.732,17.595,-29.326,0.0
2.7800000000000002,-1.389,12.119,2.635,-17.595,1.916,11.736,-2.299,-11.73,-1.438,12.223,-2.301,23.46,-29.326,5.865
2.785,-2.012,12.406,2.73,-23.46,3.114,12.023,-2.491,-23.46,-2.013,12.367,-2.732,29.326,-29.326,17.595
2.79,-1.964,12.646,2.778,-17.595,3.161,12.454,-2.395,-17.595,-2.732,12.511,-2.732,35.191,-29.326,23.46
2.795,-1.724,12.885,2.826,-5.865,3.018,12.885,-2.587,-5.865,-2.876,12.511,-2.732,35.191,-29.326,11.73
2.8000000000000003,-1.724,13.412,2.874,5.865,3.066,13.268,-2.635,0.0,-2.301,12.798,-2.876,35.191,-29.326,5.865
2.805,-1.533,13.412,2.73,23.46,2.874,13.699,-2.539,11.73,-2.157,13.086,-2.876,29.326,-29.326,-5.865
2.81,-1.389,13.268,2.491,29.326,2.874,13.412,-2.347,29.326,-2.301,13.086,-2.732,23.46,-29.326,-17.595
2.815,-1.198,13.029,2.299,35.191,2.778,13.22,-2.108,35.191,-1.869,13.086,-2.445,23.46,-29.326,-35.191
2.82,-1.198,12.598,2.299,46.921,2.587,12.837,-2.012,41.056,-1.726,12.942,-2.445,17.595,-29.326,-41.056
2.825,-1.198,12.119,2.251,52.786,2.539,12.262,-2.012,46.921,-1.726,12.654,-2.301,17.595,-29.326,-46.921
2.83,-1.341,11.592,2.347,52.786,2.635,11.736,-1.964,52.786,-1.726,12.223,-2.301,17.595,-35.191,-46.921
2.835,-1.293,11.065,2.539,52.786,2.539,11.065,-2.203,58.651,-1.869,11.648,-2.301,11.73,-35.191,-52.786
2.84,-1.293,10.778,2.635,52.786,2.443,10.634,-2.299,52.786,-1.869,11.36,-2.588,17.595,-35.191,-52.786
2.845,-1.437,10.49,2.682,52.786,2.443,10.49,-2.347,52.786,-1.869,10.929,-2.588,17.595,-35.191,-52.786
2.85,-1.581,10.251,2.682,52.786,2.491,10.155,-2.395,52.786,-2.013,10.641,-2.732,17.595,-35.191,-52.786
2.855,-1.677,10.107,2.682,52.786,2.491,10.011,-2.443,52.786,-2.301,10.354,-2.732,17.595,-35.191,-52.786
2.86,-1.581,9.963,2.635,52.786,2.682,9.915,-2.395,52.786,-2.445,10.21,-2.732,23.46,-35.191,-52.786
2.865,-1.437,9.724,2.395,58.651,2.635,9.772,-2.203,58.651,-2.157,10.066,-2.588,23.46,-29.326,-58.651
2.87,-1.389,9.388,2.251,58.651,2.491,9.484,-2.012,58.651,-1.869,9.778,-2.445,23.46,-29.326,-58.651
2.875,-1.293,8.957,2.203,58.651,2.491,9.101,-1.916,58.651,-1.726,9.347,-2.301,23.46,-29.326,-58.651
2.88,-1.293,8.478,2.251,58.651,2.395,8.67,-1.916,58.651,-1.582,8.916,-2.157,23.46,-29.326,-58.651
2.8850000000000002,-1.293,8.143,2.347,52.786,2.491,8.287,-1.964,52.786,-1.582,8.34,-2.301,23.46,-35.191,-58.651
2.89,-1.293,7.999,2.443,46.921,2.299,8.095,-2.06,46.921,-1.582,8.053,-2.301,17.595,-35.191,-52.786
2.895,-1.533,7.616,2.635,46.921,2.299,7.76,-2.251,46.921,-1.726,7.909,-2.445,17.595,-35.191,-46.921
2.9,-1.485,7.52,2.874,46.921,2.347,7.616,-2.443,46.921,-2.157,7.478,-2.588,17.595,-35.191,-46.921
2.9050000000000002,-1.389,7.377,3.066,46.921,2.347,7.568,-2.682,46.921,-2.013,7.19,-2.876,11.73,-35.191,-46.921
2.91,-1.245,7.281,3.209,46.921,2.156,7.425,-2.874,46.921,-1.869,7.19,-3.02,11.73,-35.191,-46.921
2.915,-1.054,7.233,3.161,46.921,2.012,7.233,-2.874,46.921,-1.726,7.19,-3.164,0.0,-35.191,-46.921
2.92,-0.958,7.041,3.114,41.056,1.82,7.137,-2.826,46.921,-1.438,7.19,-3.164,0.0,-35.191,-41.056
2.9250000000000003,-1.054,6.754,3.161,35.191,1.916,6.898,-2.778,41.056,-1.294,6.902,-3.164,0.0,-35.191,-41.056
2.93,-1.198,6.514,3.209,35.191,2.012,6.467,-2.826,35.191,-1.294,6.759,-3.164,0.0,-35.191,-41.056
2.935,-1.102,6.275,3.353,35.191,1.916,6.179,-2.874,35.191,-1.582,6.615,-3.164,-5.865,-35.191,-35.191
2.94,-1.102,5.988,3.545,35.191,1.82,5.94,-3.114,35.191,-1.726,6.327,-3.307,0.0,-35.191,-35.191
2.945,-1.102,5.604,3.688,35.191,1.82,5.7,-3.305,35.191,-1.582,6.04,-3.595,0.0,-29.326,-35.191
2.95,-1.054,5.221,3.736,29.326,1.677,5.269,-3.401,29.326,-1.582,5.608,-3.739,0.0,-29.326,-35.191
2.955,-0.958,4.838,3.736,23.46,1.629,4.886,-3.449,29.326,-1.582,5.177,-3.739,0.0,-29.326,-29.326
2.96,-1.054,4.407,3.64,17.595,1.581,4.455,-3.353,23.46,-1.438,4.745,-3.739,-5.865,-23.46,-23.46
2.965,-1.198,3.928,3.497,11.73,1.677,3.928,-3.209,17.595,-1.438,4.458,-3.595,-5.865,-23.46,-17.595
2.97,-1.198,3.353,3.401,5.865,1.772,3.401,-3.066,11.73,-1.726,3.883,-3.451,-5.865,-23.46,-11.73
2.975,-1.245,2.97,3.257,-5.865,1.772,2.97,-2.922,0.0,-1.582,3.307,-3.307,-5.865,-17.595,-5.865
2.98,-1.293,2.682,3.114,-11.73,1.772,2.682,-2.778,-5.865,-1.582,2.876,-3.164,-5.865,-17.595,5.865
2.985,-1.15,2.443,3.018,-17.595,1.724,2.491,-2.73,-11.73,-1.582,2.588,-3.164,-5.865,-17.595,11.73
2.99,-1.102,2.443,2.778,-29.326,1.724,2.347,-2.491,-23.46,-1.438,2.301,-3.02,-5.865,-11.73,23.46
2.995,-1.245,2.347,2.635,-41.056,1.629,2.347,-2.347,-35.191,-1.294,2.301,-2.732,-11.73,-11.73,29.326
3.0,-1.293,2.251,2.587,-46.921,1.82,2.156,-2.108,-46.921,-1.438,2.301,-2.588,-11.73,-11.73,41.056
3.005,-1.102,1.916,2.73,-52.786,1.82,2.06,-2.203,-46.921,-1.582,2.157,-2.588,-11.73,-11.73,46.921
3.0100000000000002,-0.623,1.964,2.97,-58.651,1.533,1.868,-2.395,-58.651,-1.294,1.726,-2.732,-11.73,-11.73,52.786
3.015,-0.048,2.587,3.209,-64.516,0.958,2.012,-2.778,-64.516,-0.575,1.869,-3.02,-17.595,-11.73,58.651
3.02,0.192,3.401,3.305,-70.381,0.383,2.874,-2.97,-64.516,-0.288,2.588,-3.307,-17.595,-11.73,64.516
3.025,0.383,4.072,3.305,-82.111,0.287,3.64,-2.97,-76.246,0.0,3.451,-3.307,-17.595,-17.595,70.381
3.0300000000000002,0.335,4.598,3.209,-87.977,0.24,4.119,-2.97,-87.977,0.144,4.17,-3.307,-17.595,-11.73,82.111
3.035,0.24,5.077,3.066,-93.842,0.335,4.551,-2.778,-93.842,0.0,4.889,-3.164,-17.595,-11.73,93.842
3.04,0.192,5.509,2.97,-93.842,0.383,4.982,-2.682,-99.707,-0.288,5.321,-3.02,-17.595,-11.73,93.842
3.045,-5.796,23.567,-13.987,-82.111,2.443,18.346,-2.491,-93.842,-0.288,5.752,-3.02,-17.595,-11.73,93.842
3.0500000000000003,-12.119,24.046,-13.364,87.977,13.795,24.285,10.107,-5.865,-5.896,64.422,17.256,-17.595,-11.73,82.111
3.055,17.484,8.574,0.814,87.977,2.635,20.549,-0.766,123.167,-10.066,22.577,10.497,-41.056,-35.191,-82.111
3.06,12.119,8.718,-4.79,41.056,-19.064,7.089,4.359,52.786,20.707,11.935,-2.301,-111.437,-35.191,-76.246
3.065,-9.197,10.442,-1.916,41.056,2.635,12.071,4.311,35.191,11.504,8.34,4.889,-134.897,-76.246,-41.056
3.0700000000000003,-12.741,9.532,0.335,41.056,14.657,7.472,0.766,35.191,-8.916,8.772,1.869,-158.358,-93.842,-41.056
3.075,-1.677,8.478,3.018,35.191,5.413,5.461,-1.15,41.056,-16.249,12.654,-0.431,-170.088,-105.572,-35.191
3.08,0.048,8.67,4.024,5.865,-0.048,6.754,-3.832,17.595,-3.739,12.798,-3.164,-129.032,-93.842,-23.46
3.085,-2.203,9.724,2.347,-5.865,1.868,7.137,-2.826,-5.865,-0.719,11.648,-4.026,-93.842,-64.516,0.0
3.09,-2.635,10.634,2.251,-17.595,3.832,8.287,-1.772,-11.73,-3.02,12.798,-2.301,-58.651,-52.786,5.865
3.095,-1.629,11.448,3.018,-41.056,3.497,9.341,-2.395,-29.326,-2.732,12.798,-2.157,-29.326,-46.921,17.595
3.1,-1.341,11.831,3.545,-52.786,2.299,10.394,-3.114,-52.786,-2.301,13.23,-3.02,0.0,-46.921,41.056
3.105,-1.389,11.352,3.784,-52.786,2.491,10.873,-3.401,-52.786,-2.157,13.086,-3.595,23.46,-46.921,52.786
3.11,-1.102,10.299,4.311,-46.921,2.491,10.586,-3.736,-52.786,-1.869,11.935,-3.883,41.056,-46.921,52.786
3.115,-1.006,9.341,4.982,-46.921,2.108,9.963,-4.407,-46.921,-1.438,10.21,-4.458,52.786,-41.056,46.921
3.12,-1.054,8.67,5.365,-35.191,1.916,9.388,-4.934,-41.056,-1.438,8.916,-5.033,52.786,-46.921,46.921
3.125,-1.054,8.335,5.317,-29.326,1.82,8.814,-5.125,-35.191,-1.726,8.053,-5.464,46.921,-46.921,41.056
3.13,-0.862,8.383,4.982,-17.595,1.724,8.574,-4.934,-23.46,-1.869,7.765,-5.464,41.056,-46.921,29.326
3.1350000000000002,-0.575,8.862,4.072,-0.0,1.533,8.718,-4.119,-11.73,-1.438,8.053,-5.033,35.191,-41.056,17.595
3.14,-0.24,9.436,3.449,11.73,1.389,9.388,-3.497,5.865,-1.15,8.628,-4.17,23.46,-41.056,0.0
3.145,-0.24,9.963,2.682,29.326,1.341,9.915,-2.73,23.46,-0.575,9.203,-3.451,23.46,-35.191,-11.73
3.15,0.0,10.203,2.203,41.056,1.293,10.203,-2.108,35.191,-0.719,9.778,-2.732,17.595,-35.191,-23.46
3.1550000000000002,0.335,10.155,1.964,46.921,0.766,10.203,-1.772,46.921,-0.431,10.21,-2.157,11.73,-35.191,-41.056
3.16,0.24,9.915,1.868,52.786,0.766,9.915,-1.581,52.786,-0.288,10.354,-1.869,0.0,-35.191,-46.921
3.165,0.192,9.676,1.772,58.651,1.006,9.58,-1.485,58.651,-0.144,10.066,-1.869,0.0,-35.191,-52.786
3.17,0.24,9.532,1.629,58.651,0.958,9.388,-1.389,58.651,-0.144,9.922,-1.726,0.0,-35.191,-58.651
3.1750000000000003,0.287,9.484,1.533,52.786,0.958,9.293,-1.245,52.786,0.0,9.778,-1.582,11.73,-41.056,-58.651
3.18,0.144,9.532,1.341,46.921,0.958,9.245,-1.102,46.921,0.0,9.635,-1.582,11.73,-41.056,-52.786
3.185,0.24,9.676,1.198,41.056,1.102,9.436,-0.91,41.056,0.0,9.778,-1.294,17.595,-41.056,-46.921
3.19,0.287,9.82,1.293,29.326,0.91,9.58,-0.91,35.191,0.0,9.922,-1.15,17.595,-46.921,-35.191
3.1950000000000003,0.24,9.963,1.437,23.46,0.91,9.772,-1.054,29.326,0.0,10.066,-1.294,17.595,-46.921,-29.326
3.2,0.048,10.011,1.629,23.46,1.054,9.963,-1.245,23.46,-0.144,10.066,-1.438,17.595,-52.786,-23.46
3.205,0.096,10.059,1.772,17.595,1.15,10.011,-1.389,17.595,-0.144,10.066,-1.582,17.595,-52.786,-17.595
3.21,0.192,10.059,1.916,17.595,1.054,10.059,-1.533,17.595,-0.144,10.066,-1.726,17.595,-52.786,-17.595
3.215,0.192,10.059,2.108,11.73,1.006,10.059,-1.677,11.73,-0.144,10.066,-1.869,17.595,-58.651,-11.73
3.22,0.192,10.107,2.347,17.595,1.006,10.059,-1.868,17.595,-0.144,10.066,-2.157,17.595,-58.651,-11.73
3.225,0.24,10.011,2.491,17.595,0.958,9.963,-2.108,17.595,-0.144,10.21,-2.301,17.595,-64.516,-11.73
3.23,0.287,9.82,2.635,17.595,0.862,9.772,-2.251,17.595,-0.144,10.21,-2.588,17.595,-64.516,-17.595
3.235,0.287,9.58,2.635,23.46,0.766,9.58,-2.347,23.46,-0.144,10.066,-2.588,17.595,-64.516,-17.595
3.24,0.287,9.388,2.682,23.46,0.814,9.388,-2.347,23.46,-0.144,9.778,-2.732,17.595,-64.516,-17.595
3.245,0.383,9.197,2.635,23.46,0.719,9.245,-2.299,23.46,-0.144,9.491,-2.732,17.595,-64.516,-23.46
3.25,0.431,9.101,2.587,23.46,0.671,9.149,-2.299,23.46,0.144,9.203,-2.588,17.595,-64.516,-23.46
3.255,0.479,9.101,2.491,23.46,0.719,9.101,-2.203,23.46,0.288,9.059,-2.588,17.595,-64.516,-23.46
3.2600000000000002,0.527,9.101,2.539,23.46,0.623,9.101,-2.203,23.46,0.288,9.059,-2.445,17.595,-70.381,-23.46
3.265,0.479,9.197,2.682,23.46,0.623,9.101,-2.299,23.46,0.288,9.059,-2.588,11.73,-70.381,-17.595
3.27,0.527,9.293,2.778,17.595,0.575,9.197,-2.395,17.595,0.144,9.203,-2.732,11.73,-76.246,-17.595
3.275,0.575,9.341,2.97,23.46,0.479,9.245,-2.587,17.595,0.144,9.347,-2.732,0.0,-76.246,-17.595
3.2800000000000002,0.575,9.341,3.066,23.46,0.431,9.293,-2.73,23.46,0.144,9.347,-3.02,0.0,-76.246,-17.595
3.285,0.575,9.341,3.018,23.46,0.527,9.293,-2.73,23.46,0.144,9.347,-3.02,0.0,-76.246,-17.595
3.29,0.766,9.245,3.018,23.46,0.431,9.293,-2.682,23.46,0.288,9.347,-3.02,0.0,-76.246,-23.46
3.295,0.719,9.293,3.257,23.46,0.383,9.197,-2.874,23.46,0.431,9.347,-3.02,0.0,-76.246,-23.46
3.3000000000000003,0.719,9.341,3.066,23.46,0.431,9.245,-2.97,23.46,0.575,9.347,-3.307,0.0,-76.246,-23.46
3.305,0.719,9.293,3.161,23.46,-0.479,9.197,-2.395,23.46,0.144,9.635,-3.02,0.0,-82.111,-23.46
3.31,0.623,9.149,3.545,11.73,0.335,9.293,-3.114,11.73,0.863,9.347,-3.164,0.0,-82.111,-17.595
3.315,0.431,9.245,3.688,5.865,0.671,9.293,-3.353,5.865,0.575,8.916,-3.595,0.0,-82.111,-5.865
3.3200000000000003,0.335,9.197,3.257,11.73,0.479,9.245,-3.305,5.865,0.0,9.059,-3.739,0.0,-82.111,0.0
3.325,-0.287,9.053,1.054,17.595,0.287,8.239,-1.533,11.73,-0.288,9.491,-3.307,0.0,-82.111,-5.865
3.33,-0.048,9.245,2.395,29.326,0.719,7.951,-0.862,17.595,-2.157,11.073,-0.719,0.0,-82.111,-11.73
3.335,1.006,9.005,3.784,35.191,1.198,9.245,-3.066,29.326,0.0,9.922,-2.445,17.595,-70.381,-23.46
3.34,1.245,8.909,3.688,29.326,-0.048,9.293,-3.545,35.191,1.294,8.628,-3.739,23.46,-70.381,-35.191
3.345,0.527,8.957,3.018,23.46,0.383,8.766,-2.922,29.326,1.15,8.772,-3.739,23.46,-76.246,-29.326
3.35,0.144,8.957,2.826,17.595,0.766,8.957,-2.682,17.595,0.288,9.059,-3.02,17.595,-82.111,-23.46
3.355,0.144,8.622,2.587,11.73,0.862,8.622,-2.347,11.73,0.144,9.347,-2.445,17.595,-82.111,-11.73
3.36,0.766,8.478,1.533,5.865,1.054,7.712,-0.479,5.865,0.0,9.059,-2.588,17.595,-82.111,-5.865
3.365,0.431,8.766,2.299,11.73,0.479,8.287,-1.533,5.865,0.0,9.059,-2.157,23.46,-87.977,-5.865
3.37,0.383,8.957,2.491,11.73,0.814,8.67,-2.108,11.73,0.144,9.059,-2.445,29.326,-87.977,-5.865
3.375,0.479,9.053,2.491,5.865,0.575,8.862,-2.156,5.865,0.144,9.059,-2.445,35.191,-87.977,-5.865
3.38,0.431,9.245,2.587,5.865,0.527,9.005,-2.156,5.865,0.144,9.203,-2.445,35.191,-93.842,-5.865
3.3850000000000002,0.623,9.388,2.395,-0.0,0.575,9.245,-2.203,5.865,0.0,9.347,-2.588,35.191,-93.842,0.0
3.39,0.862,9.053,1.772,-0.0,-0.575,8.526,-1.437,0.0,0.144,9.635,-2.445,35.191,-93.842,0.0
3.395,0.814,9.053,1.533,-5.865,0.719,8.766,-1.389,-5.865,0.863,9.491,-1.726,35.191,-93.842,0.0
3.4,0.862,9.149,1.437,-5.865,0.192,8.909,-1.102,-5.865,0.719,9.203,-1.582,41.056,-93.842,5.865
3.4050000000000002,0.671,9.628,1.629,-0.0,0.383,9.245,-1.102,0.0,0.575,9.347,-1.438,46.921,-99.707,5.865
3.41,0.575,10.49,2.156,5.865,0.527,10.346,-1.533,5.865,0.431,9.491,-1.582,46.921,-99.707,0.0
3.415,0.575,11.448,2.539,11.73,0.623,11.544,-2.06,11.73,0.144,10.066,-2.157,46.921,-99.707,-5.865
3.42,0.479,11.879,2.635,23.46,0.814,12.406,-2.299,23.46,0.144,10.641,-2.588,41.056,-99.707,-11.73
3.4250000000000003,0.527,11.879,2.299,35.191,0.766,12.358,-2.156,29.326,0.144,11.216,-2.732,29.326,-105.572,-23.46
3.43,0.575,11.64,1.964,46.921,0.719,11.975,-1.772,41.056,0.0,11.504,-2.301,17.595,-105.572,-35.191
3.435,0.671,11.209,1.772,52.786,0.719,11.352,-1.485,46.921,0.288,11.648,-2.013,11.73,-105.572,-46.921
3.44,0.671,10.825,2.012,58.651,0.623,10.778,-1.485,52.786,0.431,11.504,-1.726,0.0,-111.437,-52.786
3.4450000000000003,0.671,10.778,2.443,58.651,0.575,10.442,-1.868,58.651,0.431,11.216,-2.013,0.0,-111.437,-58.651
3.45,0.91,11.975,2.635,52.786,0.479,10.251,-2.347,52.786,0.431,11.216,-2.445,11.73,-111.437,-58.651
3.455,0.814,12.55,2.251,29.326,0.048,12.406,-2.108,41.056,0.431,12.942,-2.732,17.595,-117.302,-52.786
3.46,1.006,11.017,3.114,11.73,0.383,12.023,-2.347,11.73,0.0,12.798,-2.301,23.46,-117.302,-23.46
3.465,0.719,9.436,3.736,17.595,0.575,9.867,-3.161,11.73,1.007,11.073,-3.164,23.46,-111.437,-11.73
3.47,0.192,10.059,3.784,11.73,0.431,9.724,-3.545,11.73,0.575,9.203,-3.883,29.326,-111.437,-11.73
3.475,-0.144,9.628,3.257,5.865,0.623,9.772,-3.161,5.865,-0.719,10.066,-3.883,23.46,-117.302,-11.73
3.48,-0.048,9.676,3.257,-0.0,0.91,9.245,-2.922,0.0,-1.007,9.922,-3.307,23.46,-111.437,0.0
3.485,0.096,10.107,2.922,5.865,0.958,9.724,-2.826,5.865,-0.575,9.922,-3.307,23.46,-105.572,0.0
3.49,0.431,10.442,2.443,11.73,0.766,10.059,-2.299,11.73,-0.431,10.354,-3.02,23.46,-105.572,-5.865
3.495,0.623,10.634,2.012,17.595,0.431,10.346,-1.868,17.595,-0.144,10.785,-2.445,29.326,-105.572,-11.73
3.5,0.719,10.586,1.772,23.46,0.479,10.538,-1.533,23.46,0.144,10.785,-2.013,29.326,-99.707,-17.595
3.505,0.766,10.394,1.533,29.326,0.431,10.538,-1.293,23.46,0.431,10.641,-1.726,35.191,-99.707,-23.46
3.5100000000000002,0.719,10.155,1.389,29.326,0.479,10.442,-1.054,29.326,0.575,10.354,-1.582,35.191,-99.707,-23.46
3.515,0.575,9.82,1.437,29.326,0.527,10.203,-1.006,29.326,0.575,9.922,-1.438,29.326,-105.572,-23.46
3.52,0.479,9.484,1.533,35.191,0.527,9.82,-1.102,35.191,0.288,9.635,-1.438,29.326,-105.572,-29.326
3.525,0.431,9.197,1.629,35.191,0.479,9.436,-1.245,35.191,0.0,9.347,-1.582,23.46,-105.572,-35.191
3.5300000000000002,0.335,8.909,1.677,41.056,0.527,9.101,-1.293,35.191,0.0,9.059,-1.726,17.595,-111.437,-35.191
3.535,0.287,8.67,1.82,46.921,0.575,8.766,-1.389,41.056,-0.144,8.916,-1.726,17.595,-105.572,-41.056
3.54,0.383,8.478,2.012,46.921,0.575,8.526,-1.533,41.056,-0.144,8.628,-1.869,17.595,-105.572,-41.056
3.545,0.479,8.478,2.395,46.921,0.623,8.335,-1.772,41.056,0.0,8.484,-2.013,17.595,-105.572,-41.056
3.5500000000000003,0.623,8.862,2.826,41.056,0.575,8.383,-2.299,41.056,0.288,8.628,-2.445,11.73,-105.572,-46.921
3.555,0.671,9.436,2.922,41.056,0.431,8.909,-2.587,41.056,0.575,9.203,-2.876,11.73,-105.572,-41.056
3.56,0.383,9.772,2.826,35.191,0.527,9.341,-2.491,35.191,0.431,9.778,-2.876,17.595,-105.572,-41.056
3.565,0.144,9.772,2.826,35.191,0.814,9.484,-2.491,35.191,0.0,10.066,-2.876,17.595,-111.437,-35.191
3.5700000000000003,0.096,9.676,2.97,35.191,0.91,9.388,-2.587,29.326,-0.431,10.21,-2.876,23.46,-111.437,-35.191
3.575,0.096,9.676,3.018,35.191,0.958,9.388,-2.73,29.326,-0.431,10.066,-3.02,29.326,-111.437,-29.326
3.58,0.24,9.867,3.066,35.191,0.91,9.628,-2.682,35.191,-0.288,9.778,-3.164,29.326,-111.437,-35.191
3.585,0.431,9.724,3.114,35.191,0.719,9.82,-2.778,35.191,-0.431,9.491,-3.164,35.191,-111.437,-35.191
3.59,0.335,9.628,3.018,41.056,0.623,9.724,-2.778,41.056,-0.144,9.491,-3.164,35.191,-111.437,-23.46
3.595,0.0,9.676,2.922,46.921,0.766,9.676,-2.635,41.056,-0.431,9.635,-3.164,35.191,-111.437,-23.46
3.6,-0.144,9.772,2.874,46.921,1.006,9.82,-2.539,46.921,-0.575,9.635,-3.02,29.326,-105.572,-23.46
3.605,-0.144,9.915,2.778,46.921,1.102,9.867,-2.491,46.921,-0.719,9.635,-2.876,29.326,-105.572,-23.46
3.61,-0.192,9.915,2.635,52.786,1.15,9.867,-2.395,46.921,-0.719,9.922,-2.876,23.46,-105.572,-29.326
3.615,0.0,10.155,2.443,52.786,1.15,9.82,-2.203,46.921,-0.575,10.066,-2.588,23.46,-99.707,-35.191
3.62,0.287,10.921,2.443,58.651,1.198,8.095,-2.06,52.786,-0.719,9.922,-2.445,23.46,-99.707,-35.191
3.625,-0.335,9.053,2.635,64.516,1.054,10.538,-2.203,35.191,-0.288,10.785,-2.445,17.595,-99.707,-35.191
3.63,-0.479,9.053,2.491,58.651,1.341,9.628,-2.203,35.191,-0.575,9.635,-2.588,11.73,-99.707,-35.191
3.6350000000000002,-0.431,9.149,2.443,52.786,1.341,9.149,-2.06,35.191,-0.575,9.491,-2.445,17.595,-99.707,-35.191
3.64,-0.383,9.149,2.635,46.921,1.389,9.197,-2.203,35.191,-0.575,9.347,-2.445,17.595,-99.707,-23.46
3.645,-0.479,8.862,2.73,46.921,1.389,9.101,-2.347,35.191,-0.719,9.059,-2.732,17.595,-99.707,-23.46
3.65,-0.335,9.149,2.874,41.056,1.437,9.005,-2.443,29.326,-0.575,9.059,-2.732,23.46,-99.707,-17.595
3.6550000000000002,-0.623,9.101,3.018,35.191,1.437,9.149,-2.635,29.326,-0.575,8.916,-2.876,23.46,-99.707,-17.595
3.66,-0.766,9.532,3.114,35.191,1.629,9.197,-2.778,29.326,-0.288,9.778,-3.02,23.46,-99.707,-11.73
3.665,-1.006,9.628,3.161,23.46,1.82,9.436,-2.826,23.46,-0.719,9.922,-3.164,23.46,-99.707,-11.73
3.67,-1.006,9.867,3.161,17.595,1.868,9.58,-2.826,17.595,-0.863,10.21,-3.164,23.46,-105.572,-11.73
3.6750000000000003,-1.006,10.059,3.114,11.73,1.82,9.772,-2.826,11.73,-1.007,10.497,-3.164,23.46,-99.707,-5.865
3.68,-1.006,10.203,3.018,11.73,1.916,9.963,-2.73,5.865,-1.007,10.641,-3.164,29.326,-99.707,-5.865
3.685,-0.958,10.203,3.018,11.73,1.916,10.011,-2.682,11.73,-1.15,10.497,-3.02,35.191,-99.707,-5.865
3.69,-0.958,10.155,3.018,11.73,1.916,10.059,-2.73,11.73,-1.15,10.497,-3.02,35.191,-99.707,-11.73
3.6950000000000003,-0.862,10.107,3.018,11.73,1.964,10.011,-2.682,11.73,-1.007,10.354,-3.02,35.191,-99.707,-11.73
3.7,-0.862,10.107,3.114,17.595,1.82,9.915,-2.73,17.595,-1.007,10.354,-3.02,41.056,-99.707,-17.595
3.705,-0.862,10.251,3.114,23.46,1.916,9.915,-2.826,23.46,-1.007,10.354,-3.164,41.056,-99.707,-17.595
3.71,-0.91,10.442,3.018,23.46,1.868,10.107,-2.778,23.46,-1.007,10.641,-3.164,41.056,-99.707,-23.46
3.715,-0.91,10.49,2.826,23.46,1.916,10.251,-2.587,23.46,-1.15,10.785,-3.164,46.921,-99.707,-23.46
3.72,-0.814,10.442,2.682,23.46,1.82,10.299,-2.395,23.46,-1.007,10.785,-2.876,46.921,-99.707,-23.46
3.725,-0.766,10.394,2.587,29.326,1.772,10.251,-2.299,23.46,-1.007,10.641,-2.732,46.921,-99.707,-23.46
3.73,-0.814,10.299,2.539,29.326,1.82,10.203,-2.203,29.326,-0.863,10.641,-2.732,52.786,-99.707,-23.46
3.735,-0.862,10.203,2.539,29.326,1.916,10.107,-2.156,29.326,-0.863,10.497,-2.588,52.786,-99.707,-29.326
3.74,-0.91,10.107,2.587,35.191,1.916,10.059,-2.203,35.191,-0.863,10.354,-2.588,52.786,-99.707,-35.191
3.745,-1.006,9.915,2.635,35.191,1.964,9.867,-2.299,35.191,-1.007,10.354,-2.732,52.786,-99.707,-35.191
3.75,-1.102,9.628,2.682,35.191,2.012,9.628,-2.299,35.191,-1.15,10.21,-2.732,58.651,-99.707,-35.191
3.755,-1.245,9.293,2.778,35.191,2.156,9.341,-2.347,35.191,-1.294,9.778,-2.732,58.651,-105.572,-35.191
3.7600000000000002,-1.293,9.101,2.826,35.191,2.251,9.101,-2.443,35.191,-1.294,9.491,-2.876,58.651,-105.572,-35.191
3.765,-1.341,8.862,2.874,35.191,2.251,8.957,-2.491,35.191,-1.294,9.203,-2.876,58.651,-105.572,-35.191
3.77,-1.437,8.718,2.97,35.191,2.347,8.814,-2.587,35.191,-1.438,8.916,-3.02,58.651,-105.572,-35.191
3.775,-1.533,8.622,2.97,35.191,2.443,8.67,-2.587,35.191,-1.582,8.628,-3.02,58.651,-105.572,-35.191
3.7800000000000002,-1.629,8.574,3.018,29.326,2.491,8.622,-2.635,29.326,-1.582,8.628,-3.164,58.651,-105.572,-35.191
3.785,-1.677,8.574,3.066,29.326,2.587,8.526,-2.682,35.191,-1.726,8.484,-3.164,58.651,-105.572,-35.191
3.79,-1.629,8.718,3.066,29.326,2.635,8.67,-2.73,29.326,-1.726,8.628,-3.164,52.786,-105.572,-29.326
3.795,-1.677,8.909,3.066,29.326,2.635,8.862,-2.73,29.326,-1.726,8.628,-3.164,52.786,-105.572,-29.326
3.8000000000000003,-1.772,9.053,3.114,29.326,2.73,9.053,-2.73,29.326,-1.726,8.916,-3.164,52.786,-105.572,-23.46
3.805,-1.772,9.053,3.066,29.326,2.73,9.101,-2.73,23.46,-1.869,8.916,-3.164,46.921,-111.437,-23.46
3.81,-1.868,9.053,3.114,23.46,2.73,9.101,-2.73,23.46,-2.013,9.059,-3.164,46.921,-111.437,-23.46
3.815,-1.964,9.005,3.257,23.46,2.922,9.101,-2.874,23.46,-2.013,8.916,-3.164,46.921,-111.437,-23.46
3.8200000000000003,-2.012,9.149,3.449,23.46,2.97,9.101,-3.018,23.46,-2.013,8.916,-3.307,41.056,-111.437,-23.46
3.825,-2.06,9.245,3.401,17.595,2.97,9.245,-3.114,17.595,-2.157,9.059,-3.595,41.056,-111.437,-17.595
3.83,-2.108,9.197,3.401,17.595,3.114,9.293,-3.066,17.595,-2.301,9.059,-3.451,35.191,-111.437,-17.595
3.835,-1.916,9.149,3.257,17.595,3.066,9.293,-3.018,17.595,-2.157,9.059,-3.451,35.191,-111.437,-17.595
3.84,-1.772,9.197,3.018,11.73,2.874,9.388,-2.73,11.73,-2.013,9.059,-3.307,29.326,-111.437,-17.595
3.845,-1.198,9.484,2.73,17.595,2.682,9.676,-2.682,11.73,-1.726,8.916,-3.164,29.326,-111.437,-17.595
3.85,-1.772,9.388,3.018,17.595,2.682,9.724,-2.203,17.595,-1.582,8.772,-2.732,23.46,-117.302,-11.73
3.855,-1.916,9.245,3.209,17.595,2.97,9.436,-2.826,17.595,-1.726,9.059,-3.164,17.595,-117.302,-17.595
3.86,-1.772,9.245,3.114,17.595,2.682,9.341,-2.826,17.595,-2.157,9.059,-3.307,0.0,-117.302,-17.595
3.865,-1.629,9.005,3.114,23.46,2.491,9.053,-2.778,17.595,-2.157,9.203,-3.164,0.0,-123.167,-17.595
3.87,-1.006,9.053,2.539,29.326,0.862,9.628,-1.964,23.46,-1.869,9.059,-3.164,0.0,-117.302,-17.595
3.875,-1.82,8.766,3.161,35.191,2.922,8.718,-2.587,29.326,-1.15,9.347,-2.588,0.0,-117.302,-23.46
3.88,-1.629,8.718,3.209,41.056,2.682,8.718,-2.874,35.191,-1.726,8.772,-3.164,0.0,-111.437,-35.191
3.8850000000000002,-1.485,8.383,3.257,41.056,2.251,8.478,-2.922,41.056,-2.157,8.772,-3.307,0.0,-117.302,-41.056
3.89,-1.485,8.047,3.066,46.921,2.347,7.904,-2.826,41.056,-1.869,8.628,-3.307,0.0,-117.302,-41.056
3.895,-1.485,7.999,3.018,46.921,2.251,7.712,-2.682,46.921,-1.726,8.34,-3.164,0.0,-111.437,-46.921
3.9,-1.533,8.095,2.874,52.786,2.347,7.76,-2.587,46.921,-1.726,8.34,-3.02,0.0,-111.437,-46.921
3.9050000000000002,-1.629,8.143,2.778,52.786,2.395,7.856,-2.491,46.921,-1.726,8.484,-3.02,0.0,-111.437,-46.921
3.91,-1.629,8.143,2.587,52.786,2.395,7.856,-2.299,52.786,-1.869,8.484,-2.876,11.73,-111.437,-52.786
3.915,-1.533,8.143,2.443,52.786,2.395,7.808,-2.156,52.786,-1.869,8.484,-2.588,11.73,-111.437,-52.786
3.92,-1.437,8.191,2.203,52.786,2.299,7.808,-1.916,52.786,-1.726,8.484,-2.445,17.595,-105.572,-52.786
3.9250000000000003,-1.389,8.191,1.916,58.651,2.299,7.76,-1.581,52.786,-1.582,8.628,-2.301,23.46,-105.572,-58.651
3.93,-1.198,8.239,1.389,58.651,2.299,7.856,-1.293,58.651,-1.582,8.628,-2.013,29.326,-105.572,-58.651
3.935,-1.341,8.095,1.533,52.786,2.251,7.904,-0.862,52.786,-1.007,8.772,-1.438,35.191,-105.572,-58.651
3.94,-1.533,8.095,1.964,52.786,2.299,8.047,-1.341,52.786,-1.438,8.197,-1.582,35.191,-105.572,-52.786
3.9450000000000003,-1.868,8.047,2.299,46.921,2.539,8.191,-1.772,46.921,-1.869,8.053,-2.013,41.056,-111.437,-46.921
3.95,-1.868,8.047,2.347,46.921,2.778,8.287,-1.964,46.921,-2.013,7.909,-2.445,41.056,-111.437,-46.921
3.955,-1.724,7.808,2.06,46.921,2.443,8.047,-1.82,46.921,-2.157,7.765,-2.445,35.191,-111.437,-46.921
3.96,-1.82,7.76,1.868,46.921,2.539,7.808,-1.581,46.921,-2.157,7.621,-2.157,35.191,-111.437,-46.921
3.9650000000000003,-1.82,7.808,1.533,46.921,2.73,7.808,-1.341,46.921,-2.013,7.621,-2.013,29.326,-105.572,-46.921
3.97,-1.629,7.52,0.91,41.056,1.437,6.85,-0.623,46.921,-2.013,7.765,-1.582,23.46,-105.572,-46.921
3.975,-3.018,9.484,1.293,35.191,4.024,8.766,-0.766,35.191,-1.582,7.765,-0.863,23.46,-105.572,-41.056
3.98,-2.73,9.58,0.814,46.921,3.976,10.155,-0.719,35.191,-2.876,9.059,-1.294,29.326,-105.572,-35.191
3.985,-2.012,8.814,0.958,52.786,3.161,9.053,-0.383,52.786,-3.164,9.491,-0.863,23.46,-105.572,-46.921
3.99,-1.772,9.053,1.293,52.786,3.018,8.909,-0.766,52.786,-2.013,8.916,-1.007,17.595,-111.437,-52.786
3.995,-1.964,9.388,1.102,52.786,2.826,9.293,-0.814,52.786,-1.726,8.916,-1.294,17.595,-111.437,-52.786
4.0,-2.156,9.532,1.006,46.921,3.066,9.293,-0.623,46.921,-2.157,9.491,-1.15,17.595,-111.437,-52.786
4.005,-1.724,9.58,0.91,46.921,3.018,9.388,-0.623,46.921,-2.445,9.778,-1.007,17.595,-111.437,-46.921
4.01,-2.06,9.628,1.15,41.056,2.203,8.862,-0.575,41.056,-2.445,10.066,-0.863,17.595,-111.437,-46.921
4.015,-2.347,10.155,1.341,35.191,3.545,9.82,-1.006,35.191,-2.013,10.066,-1.294,23.46,-111.437,-41.056
4.0200000000000005,-2.06,10.251,1.102,41.056,3.018,10.203,-0.862,41.056,-2.445,10.21,-1.438,29.326,-105.572,-35.191
4.025,-2.06,10.346,1.006,41.056,3.018,10.251,-0.719,41.056,-2.445,10.354,-1.15,29.326,-111.437,-41.056
4.03,-2.012,10.155,0.91,41.056,3.066,10.155,-0.575,41.056,-2.157,10.497,-1.007,29.326,-105.572,-46.921
4.035,-1.82,10.155,0.719,41.056,2.97,10.203,-0.431,41.056,-2.157,10.21,-0.863,29.326,-105.572,-41.056
4.04,-1.964,10.059,0.958,41.056,2.922,10.155,-0.431,35.191,-2.013,10.21,-0.719,29.326,-105.572,-41.056
4.045,-2.012,10.155,1.198,41.056,3.066,10.155,-0.671,35.191,-2.013,10.066,-1.007,29.326,-105.572,-41.056
4.05,-2.012,10.251,1.341,35.191,3.018,10.299,-0.91,35.191,-2.157,10.066,-1.294,23.46,-111.437,-35.191
4.055,-1.964,10.299,1.437,35.191,2.922,10.299,-1.054,35.191,-2.301,10.21,-1.438,23.46,-111.437,-35.191
4.0600000000000005,-1.964,10.251,1.341,35.191,2.922,10.299,-1.054,35.191,-2.301,10.354,-1.438,23.46,-111.437,-35.191
4.065,-1.964,10.203,1.293,35.191,2.922,10.203,-0.91,35.191,-2.301,10.354,-1.438,23.46,-105.572,-35.191
4.07,-1.964,10.059,1.293,35.191,2.874,10.059,-0.91,35.191,-2.301,10.21,-1.294,23.46,-105.572,-35.191
4.075,-2.012,9.915,1.245,35.191,2.922,9.915,-0.958,35.191,-2.157,10.066,-1.294,23.46,-105.572,-35.191
4.08,-1.964,9.82,1.245,29.326,2.874,9.772,-0.91,29.326,-2.301,10.066,-1.294,23.46,-105.572,-35.191
4.085,-1.964,9.772,1.15,29.326,2.874,9.628,-0.862,29.326,-2.301,10.066,-1.294,23.46,-105.572,-35.191
4.09,-1.964,9.772,0.958,29.326,2.874,9.58,-0.671,29.326,-2.301,10.066,-1.15,23.46,-99.707,-29.326
4.095,-1.916,9.82,0.91,29.326,2.826,9.532,-0.575,29.326,-2.301,10.066,-1.007,23.46,-99.707,-29.326
4.1,-1.868,9.867,0.814,35.191,2.778,9.58,-0.527,29.326,-2.301,10.21,-0.863,23.46,-99.707,-29.326
4.105,-1.772,9.963,0.862,35.191,2.73,9.724,-0.479,35.191,-2.157,10.21,-0.863,29.326,-99.707,-35.191
4.11,-1.677,9.963,0.862,35.191,2.635,9.82,-0.479,35.191,-2.013,10.21,-0.863,35.191,-93.842,-35.191
4.115,-1.677,9.82,0.91,35.191,2.587,9.724,-0.527,35.191,-2.013,10.21,-0.863,35.191,-93.842,-35.191
4.12,-1.581,9.772,0.91,35.191,2.539,9.58,-0.575,35.191,-2.013,10.066,-1.007,35.191,-93.842,-35.191
4.125,-1.485,9.724,0.91,35.191,2.443,9.532,-0.575,35.191,-1.869,10.066,-1.007,41.056,-93.842,-35.191
4.13,-1.389,9.676,0.91,29.326,2.347,9.532,-0.527,35.191,-1.726,9.922,-1.007,41.056,-93.842,-35.191
4.135,-1.293,9.676,0.91,29.326,2.299,9.484,-0.575,29.326,-1.582,9.922,-1.007,41.056,-93.842,-29.326
4.14,-1.198,9.676,0.91,23.46,2.156,9.484,-0.575,23.46,-1.438,9.922,-1.007,41.056,-87.977,-23.46
4.1450000000000005,-1.198,9.628,0.958,17.595,2.156,9.484,-0.575,17.595,-1.438,9.778,-1.007,46.921,-87.977,-17.595
4.15,-1.15,9.676,0.958,11.73,2.108,9.484,-0.623,17.595,-1.438,9.778,-1.007,46.921,-87.977,-17.595
4.155,-0.958,9.82,1.054,11.73,1.916,9.58,-0.671,11.73,-1.294,9.922,-1.007,46.921,-87.977,-11.73
4.16,-0.91,9.915,1.102,5.865,1.772,9.772,-0.719,5.865,-1.15,10.066,-1.007,46.921,-87.977,-11.73
4.165,-0.862,9.915,1.245,5.865,1.772,9.82,-0.814,5.865,-1.15,10.066,-1.15,52.786,-87.977,-5.865
4.17,-0.766,9.915,1.389,5.865,1.677,9.867,-1.006,5.865,-1.15,10.066,-1.294,52.786,-82.111,-5.865
4.175,-0.719,9.915,1.485,5.865,1.581,9.915,-1.102,5.865,-1.007,9.922,-1.438,52.786,-82.111,-5.865
4.18,-0.671,9.867,1.629,5.865,1.533,9.915,-1.245,5.865,-1.007,9.922,-1.438,52.786,-82.111,0.0
4.1850000000000005,-0.623,9.772,1.724,5.865,1.389,9.963,-1.341,5.865,-1.007,9.778,-1.726,46.921,-82.111,-5.865
4.19,-0.575,9.676,1.533,5.865,1.389,9.915,-1.293,5.865,-1.007,9.635,-1.726,46.921,-76.246,-5.865
4.195,-0.527,9.58,1.102,5.865,1.341,9.82,-0.958,5.865,-0.863,9.491,-1.582,41.056,-76.246,-5.865
4.2,-0.24,9.676,1.293,11.73,1.533,9.915,-0.814,11.73,-0.719,9.347,-1.15,41.056,-70.381,-5.865
4.205,-0.048,10.011,1.485,11.73,1.533,10.346,-1.054,11.73,0.0,9.203,-1.294,35.191,-70.381,-11.73
4.21,-0.048,10.586,1.581,5.865,1.533,10.921,-1.198,11.73,0.431,9.347,-1.582,29.326,-76.246,-11.73
4.215,-0.192,11.352,1.629,-0.0,1.581,11.64,-1.341,5.865,0.431,9.778,-1.582,17.595,-82.111,-5.865
4.22,-0.335,12.119,1.389,-5.865,0.335,11.688,-0.144,0.0,0.0,10.641,-1.726,0.0,-87.977,0.0
4.225,-0.671,13.077,3.305,-11.73,2.97,13.46,-2.251,-11.73,0.144,11.504,-1.726,-5.865,-93.842,5.865
4.23,-0.527,13.795,3.449,-17.595,2.347,14.562,-3.209,-17.595,0.431,11.792,-3.451,-11.73,-93.842,17.595
4.235,-0.335,14.37,3.161,-17.595,1.677,14.897,-3.018,-17.595,-0.431,12.511,-3.595,-29.326,-111.437,17.595
4.24,-0.623,14.657,3.066,-17.595,2.012,15.041,-2.826,-17.595,-0.431,13.517,-3.307,-46.921,-117.302,17.595
4.245,-0.144,14.657,2.778,-11.73,1.916,15.089,-2.73,-17.595,-0.575,14.236,-3.164,-58.651,-117.302,17.595
4.25,-0.24,14.466,2.251,-11.73,1.054,14.514,-2.156,-11.73,-0.575,14.668,-2.876,-70.381,-117.302,17.595
4.255,-0.287,14.322,1.677,-0.0,1.82,14.37,-1.629,-5.865,-0.288,14.668,-2.301,-76.246,-117.302,11.73
4.26,-0.048,13.987,0.958,11.73,1.389,13.987,-0.958,5.865,-0.288,14.524,-1.726,-76.246,-117.302,0.0
4.265,0.719,13.747,-0.814,29.326,1.102,13.173,-0.048,17.595,-0.288,14.524,-1.007,-76.246,-123.167,-11.73
4.2700000000000005,1.389,12.694,-3.545,35.191,0.575,12.023,2.73,35.191,1.294,15.099,0.431,-70.381,-123.167,-23.46
4.275,0.862,11.831,-4.407,41.056,0.287,10.921,4.455,35.191,2.013,14.524,3.739,-58.651,-129.032,-35.191
4.28,0.766,11.352,-5.125,46.921,0.862,10.299,5.173,41.056,1.438,13.661,4.602,-41.056,-134.897,-41.056
4.285,0.958,10.873,-5.556,58.651,0.862,9.915,5.844,52.786,1.582,13.086,5.177,-17.595,-146.628,-46.921
4.29,1.245,10.586,-5.604,64.516,0.383,9.484,6.131,64.516,1.726,12.654,5.608,0.0,-158.358,-58.651
4.295,1.293,10.634,-5.461,76.246,0.24,9.58,6.083,70.381,1.869,12.223,5.608,29.326,-170.088,-70.381
4.3,1.341,10.969,-5.221,76.246,0.479,10.346,5.94,76.246,2.157,11.648,5.464,46.921,-181.818,-70.381
4.305,1.533,11.4,-4.742,76.246,0.479,11.304,5.604,70.381,2.445,11.36,5.177,64.516,-193.548,-76.246
4.3100000000000005,1.581,11.783,-4.215,76.246,0.431,12.119,5.03,76.246,2.588,11.216,4.602,70.381,-205.279,-76.246
4.315,1.629,12.023,-3.736,82.111,0.479,12.837,4.551,76.246,2.876,11.073,3.883,70.381,-217.009,-76.246
4.32,1.677,11.927,-3.353,87.977,0.527,13.22,4.167,82.111,2.876,10.929,3.451,64.516,-234.604,-82.111
4.325,1.868,11.831,-2.874,93.842,0.383,13.268,3.784,87.977,3.02,10.497,3.02,52.786,-252.199,-87.977
4.33,2.012,11.544,-2.251,105.572,0.287,13.22,3.353,99.707,3.307,10.21,2.445,35.191,-269.795,-93.842
4.335,2.156,11.113,-1.198,117.302,0.144,12.981,2.587,105.572,3.451,9.778,1.869,17.595,-287.39,-105.572
4.34,2.443,10.634,0.287,129.032,-0.192,12.502,1.341,117.302,3.595,9.347,0.575,-11.73,-310.85,-117.302
4.345,2.826,10.011,2.251,134.897,-0.719,11.927,-0.287,129.032,3.739,8.772,-1.007,-35.191,-328.446,-129.032
4.3500000000000005,3.114,9.197,4.598,140.762,-1.341,11.017,-2.443,134.897,3.883,8.197,-3.02,-52.786,-351.906,-134.897
4.355,3.353,8.143,7.425,146.628,-2.108,9.82,-4.982,140.762,3.883,7.621,-5.608,-76.246,-369.501,-140.762
4.36,3.497,7.137,10.634,152.493,-2.922,8.335,-8.047,146.628,3.451,6.902,-8.484,-93.842,-381.232,-146.628
4.365,3.497,6.131,13.939,152.493,-3.832,6.946,-11.448,146.628,2.876,6.327,-11.648,-111.437,-387.097,-152.493
4.37,3.066,4.886,16.909,158.358,-4.215,5.461,-14.753,152.493,2.013,5.608,-14.955,-123.167,-381.232,-158.358
4.375,2.587,3.736,19.4,152.493,-4.215,3.545,-17.627,152.493,1.007,5.033,-17.831,-123.167,-363.636,-158.358
4.38,2.06,2.299,21.555,140.762,-4.167,1.533,-20.07,146.628,0.0,4.602,-20.276,-123.167,-340.176,-152.493
4.385,1.341,0.814,23.423,129.032,-4.072,-0.671,-22.369,134.897,-1.007,3.883,-22.289,-111.437,-310.85,-140.762
4.39,0.623,-0.24,24.477,111.437,-3.64,-2.587,-24.477,117.302,-2.157,3.307,-24.015,-93.842,-275.66,-129.032
4.3950000000000005,0.048,-0.814,24.525,93.842,-3.257,-3.593,-24.621,99.707,-3.164,2.588,-25.309,-64.516,-228.739,-111.437
4.4,-0.479,-0.862,24.525,64.516,-2.635,-3.688,-24.621,82.111,-3.883,2.157,-26.028,-23.46,-175.953,-93.842
4.405,-0.814,-0.575,24.525,46.921,-2.108,-3.161,-24.621,52.786,-4.314,1.582,-26.028,17.595,-123.167,-64.516
4.41,-0.958,0.144,23.232,17.595,-1.485,-2.012,-24.621,29.326,-4.602,1.294,-25.165,52.786,-70.381,-41.056
4.415,-0.958,1.102,21.555,-0.0,-1.198,-0.623,-24.621,11.73,-4.314,1.294,-23.583,76.246,-17.595,-17.595
4.42,-1.245,1.772,19.687,-11.73,-0.766,0.671,-20.645,-5.865,-4.17,1.869,-21.858,93.842,29.326,0.0
4.425,-1.102,2.682,17.052,-23.46,0.192,2.108,-18.202,-17.595,-3.739,1.726,-20.132,111.437,76.246,11.73
4.43,-0.862,3.497,14.131,-35.191,0.287,3.353,-15.28,-29.326,-3.02,2.157,-17.4,111.437,111.437,29.326
4.4350000000000005,-0.862,4.119,11.352,-35.191,0.383,4.167,-12.454,-35.191,-2.445,2.588,-14.524,111.437,140.762,35.191
4.44,-0.862,4.694,8.526,-35.191,0.814,4.742,-9.58,-35.191,-2.157,3.307,-11.792,99.707,158.358,35.191
4.445,-0.719,5.413,5.269,-35.191,1.293,5.269,-6.371,-35.191,-1.582,4.17,-8.916,93.842,175.953,35.191
4.45,-0.431,5.748,1.868,-41.056,1.533,5.748,-2.97,-35.191,-0.863,5.033,-5.464,82.111,187.683,35.191
4.455,-0.335,5.892,-1.437,-35.191,1.772,5.652,0.527,-35.191,0.0,5.608,-2.013,76.246,193.548,41.056
4.46,-0.766,6.035,-4.359,-35.191,2.347,5.556,3.688,-35.191,0.863,6.327,1.438,70.381,187.683,41.056
4.465,-1.15,6.419,-6.754,-35.191,3.018,5.652,6.323,-29.326,0.719,6.615,4.314,76.246,175.953,35.191
4.47,-1.533,7.089,-8.622,-35.191,3.545,6.179,8.383,-35.191,0.575,7.19,6.759,82.111,152.493,35.191
4.4750000000000005,-1.868,8.191,-9.82,-35.191,4.024,7.185,9.867,-35.191,0.144,7.909,8.772,87.977,134.897,35.191
4.48,-1.245,9.58,-10.346,-41.056,4.311,8.766,10.73,-41.056,-0.144,8.772,9.922,99.707,105.572,35.191
4.485,-2.587,10.634,-11.496,-52.786,4.742,10.634,11.4,-46.921,0.719,9.347,10.497,105.572,82.111,46.921
4.49,-2.395,11.64,-11.783,-52.786,5.173,11.975,12.167,-52.786,-0.288,10.066,11.648,105.572,52.786,52.786
4.495,-2.203,12.741,-11.879,-52.786,5.03,13.316,12.31,-58.651,-0.863,10.785,11.935,99.707,23.46,58.651
4.5,-2.73,13.173,-11.64,-41.056,5.365,14.514,12.167,-52.786,-0.431,11.504,12.079,87.977,-5.865,52.786
4.505,-3.114,13.316,-11.4,-23.46,5.892,15.041,11.975,-35.191,-0.863,11.504,11.792,70.381,-35.191,41.056
4.51,-2.682,12.502,-11.017,-17.595,5.604,14.897,11.688,-17.595,-1.294,11.504,11.504,46.921,-64.516,23.46
4.515,-2.012,12.167,-9.963,-11.73,5.077,14.131,10.969,-17.595,-0.431,10.354,11.073,23.46,-93.842,17.595
4.5200000000000005,-2.682,12.262,-8.862,11.73,4.072,13.604,9.82,-5.865,-1.007,10.497,10.066,-5.865,-123.167,11.73
4.525,-3.353,12.598,-7.76,46.921,5.7,13.843,8.909,29.326,-1.726,11.073,8.916,-35.191,-146.628,-11.73
4.53,-2.251,12.694,-5.844,82.111,4.838,13.891,7.377,64.516,-2.301,11.36,7.621,-52.786,-164.223,-46.921
4.535,-1.629,12.31,-3.832,105.572,3.401,13.46,5.365,93.842,-2.157,11.648,5.608,-70.381,-181.818,-82.111
4.54,-1.245,11.304,-1.82,117.302,3.018,12.31,3.353,111.437,-1.294,11.648,3.595,-87.977,-199.413,-105.572
4.545,-1.054,10.107,0.144,129.032,2.299,10.538,1.389,123.167,-1.15,11.216,1.582,-99.707,-205.279,-117.302
4.55,-1.006,8.909,2.251,123.167,1.724,8.766,-0.719,123.167,-1.294,10.641,-0.431,-99.707,-211.144,-129.032
4.555,-1.15,7.856,4.263,117.302,1.341,7.233,-2.778,117.302,-1.582,10.066,-2.588,-93.842,-217.009,-123.167
4.5600000000000005,-1.581,7.041,6.227,105.572,1.341,6.131,-4.79,105.572,-2.157,9.203,-4.458,-82.111,-211.144,-111.437
4.565,-1.964,6.419,7.999,93.842,1.629,5.317,-6.802,93.842,-2.732,8.484,-6.471,-64.516,-205.279,-105.572
4.57,-2.395,5.988,9.293,87.977,1.82,4.886,-8.383,87.977,-3.307,7.909,-8.197,-46.921,-193.548,-93.842
4.575,-2.778,5.796,10.251,87.977,2.108,4.742,-9.532,82.111,-4.17,7.19,-9.491,-29.326,-175.953,-87.977
4.58,-2.826,5.7,10.825,82.111,2.491,4.934,-10.346,82.111,-4.458,6.615,-10.354,-5.865,-158.358,-82.111
4.585,-2.587,5.7,11.113,76.246,2.635,5.125,-10.778,76.246,-4.17,6.183,-10.929,0.0,-134.897,-82.111
4.59,-2.443,5.844,11.161,64.516,2.587,5.365,-10.969,70.381,-3.595,5.896,-11.36,17.595,-117.302,-70.381
4.595,-2.539,6.131,10.825,52.786,2.73,5.94,-10.825,58.651,-3.307,5.752,-11.36,23.46,-105.572,-64.516
4.6000000000000005,-2.635,6.371,10.251,41.056,3.066,6.467,-10.299,46.921,-3.307,5.752,-10.929,23.46,-93.842,-52.786
4.605,-2.635,6.467,9.58,29.326,3.257,6.61,-9.628,35.191,-3.164,5.896,-10.354,17.595,-82.111,-41.056
4.61,-2.587,6.658,8.957,11.73,3.305,6.754,-8.957,17.595,-3.02,6.04,-9.635,11.73,-76.246,-23.46
4.615,-2.443,6.802,8.383,-0.0,3.353,7.041,-8.335,5.865,-2.876,6.183,-9.059,0.0,-76.246,-11.73
4.62,-2.299,7.329,8.047,-17.595,3.161,7.329,-7.904,-11.73,-2.588,6.183,-8.484,-5.865,-70.381,0.0
4.625,-2.73,7.999,7.712,-23.46,2.97,7.856,-7.616,-23.46,-2.732,6.759,-8.197,-17.595,-70.381,17.595
4.63,-3.114,8.766,7.425,-23.46,3.401,8.383,-7.329,-23.46,-3.595,7.765,-7.765,-23.46,-64.516,23.46
4.635,-3.257,9.341,6.993,-23.46,3.64,8.909,-6.946,-23.46,-4.026,8.772,-7.478,-29.326,-58.651,23.46
4.64,-3.161,9.676,6.323,-17.595,3.688,9.245,-6.419,-17.595,-4.17,9.491,-7.046,-29.326,-52.786,23.46
4.6450000000000005,-2.97,9.915,5.748,-5.865,3.688,9.436,-5.748,-11.73,-4.026,10.066,-6.327,-29.326,-41.056,17.595
4.65,-2.73,10.155,5.269,-5.865,3.688,9.628,-5.221,0.0,-3.451,10.354,-5.752,-29.326,-35.191,5.865
4.655,-2.587,10.394,4.79,-5.865,3.64,9.963,-4.742,0.0,-3.02,10.641,-5.321,-23.46,-29.326,5.865
4.66,-2.539,10.634,4.407,-11.73,3.688,10.203,-4.311,-5.865,-2.876,10.641,-4.889,-17.595,-23.46,5.865
4.665,-2.491,10.873,3.976,-17.595,3.64,10.346,-3.928,-11.73,-2.588,10.929,-4.458,-17.595,-23.46,11.73
4.67,-2.635,10.969,3.497,-23.46,3.688,10.442,-3.449,-17.595,-2.445,11.36,-4.026,-11.73,-23.46,23.46
4.675,-2.826,10.921,3.161,-23.46,3.736,10.394,-3.018,-23.46,-2.876,11.648,-3.451,-5.865,-23.46,23.46
4.68,-2.922,10.538,2.922,-29.326,3.832,10.203,-2.73,-29.326,-3.164,11.648,-3.164,0.0,-23.46,29.326
4.6850000000000005,-2.922,9.963,2.73,-23.46,3.88,9.82,-2.539,-23.46,-3.307,11.216,-2.876,0.0,-23.46,29.326
4.69,-3.161,12.262,1.341,-17.595,3.928,10.011,-1.964,-17.595,-3.164,10.354,-2.732,11.73,-23.46,23.46
4.695,-3.976,16.717,-4.263,-11.73,5.365,17.196,1.293,-11.73,-3.164,11.935,-1.294,17.595,-23.46,17.595
4.7,-3.305,9.963,-1.772,-0.0,3.353,8.814,4.742,-5.865,-5.896,21.57,4.745,17.595,-23.46,11.73
4.705,-1.916,11.257,2.06,35.191,6.083,12.023,-0.383,17.595,-2.013,10.785,1.726,46.921,-17.595,0.0
4.71,-2.203,11.352,2.491,64.516,3.018,14.226,-2.108,58.651,-0.431,7.909,-2.157,76.246,-17.595,-41.056
4.715,-3.257,10.394,2.539,52.786,3.545,11.352,-2.395,64.516,-3.02,9.491,-2.588,52.786,-41.056,-64.516
4.72,-3.066,9.867,1.772,35.191,4.407,10.251,-1.82,41.056,-3.595,10.21,-2.588,23.46,-41.056,-52.786
4.7250000000000005,-2.587,9.149,1.772,29.326,3.88,9.772,-1.293,29.326,-3.02,9.635,-1.726,0.0,-41.056,-35.191
4.73,-2.539,8.287,2.299,29.326,3.593,8.814,-1.677,29.326,-2.588,9.059,-1.726,0.0,-41.056,-23.46
4.735,-2.443,7.568,2.826,29.326,3.784,7.999,-2.156,29.326,-2.445,8.053,-2.301,0.0,-41.056,-23.46
4.74,-2.395,7.233,3.497,17.595,3.64,7.329,-2.826,23.46,-2.013,7.334,-2.876,-5.865,-46.921,-23.46
4.745,-2.491,7.233,4.167,5.865,3.401,6.946,-3.545,11.73,-2.157,7.19,-3.595,-11.73,-52.786,-17.595
4.75,-2.778,7.472,4.742,-5.865,3.545,7.137,-4.167,0.0,-2.588,7.478,-4.17,-11.73,-52.786,0.0
4.755,-2.778,7.856,5.269,-11.73,3.736,7.425,-4.742,-11.73,-2.876,7.621,-4.745,-11.73,-58.651,11.73
4.76,-2.587,8.191,5.7,-17.595,3.497,7.856,-5.221,-17.595,-3.02,8.053,-5.321,-11.73,-58.651,17.595
4.765,-2.443,8.574,6.179,-23.46,3.353,8.239,-5.652,-17.595,-2.876,8.34,-5.752,-11.73,-58.651,23.46
4.7700000000000005,-2.395,8.814,6.467,-17.595,3.305,8.574,-6.035,-23.46,-2.732,8.628,-6.183,-11.73,-58.651,23.46
4.775,-2.443,8.957,6.706,-17.595,3.209,8.718,-6.371,-17.595,-2.732,8.916,-6.615,-11.73,-58.651,23.46
4.78,-2.395,9.101,6.85,-17.595,3.257,8.814,-6.514,-17.595,-2.732,9.059,-6.759,-11.73,-52.786,23.46
4.785,-2.443,9.197,6.993,-11.73,3.161,8.957,-6.658,-11.73,-2.876,9.203,-6.902,-11.73,-52.786,17.595
4.79,-2.491,9.293,7.137,-5.865,3.161,9.005,-6.802,-11.73,-2.876,9.347,-7.046,-11.73,-46.921,11.73
4.795,-2.539,9.341,6.946,-5.865,3.161,9.005,-6.802,-5.865,-3.02,9.491,-7.19,-11.73,-46.921,5.865
4.8,-2.491,9.293,6.562,-0.0,3.209,9.005,-6.514,0.0,-3.164,9.635,-6.902,-5.865,-41.056,5.865
4.805,-2.443,9.197,6.179,5.865,3.209,8.957,-6.131,5.865,-3.02,9.635,-6.615,-5.865,-35.191,0.0
4.8100000000000005,-2.491,9.053,5.796,5.865,3.257,8.814,-5.652,5.865,-2.876,9.491,-6.183,0.0,-29.326,-5.865
4.815,-2.299,9.053,5.556,5.865,3.114,8.718,-5.365,11.73,-2.732,9.347,-5.896,0.0,-29.326,-5.865
4.82,-2.347,9.197,5.173,11.73,2.97,8.814,-5.077,11.73,-2.588,9.347,-5.608,0.0,-23.46,-5.865
4.825,-2.491,9.245,4.742,11.73,3.209,9.053,-4.646,17.595,-2.732,9.491,-5.177,0.0,-23.46,-11.73
4.83,-2.491,9.197,4.359,17.595,3.449,9.149,-4.263,17.595,-2.876,9.347,-4.745,11.73,-17.595,-11.73
4.835,-2.443,9.053,3.88,17.595,3.401,9.053,-3.784,17.595,-2.732,9.203,-4.314,11.73,-17.595,-17.595
4.84,-2.395,8.909,3.545,17.595,3.353,8.909,-3.401,17.595,-2.732,9.059,-3.883,11.73,-17.595,-17.595
4.845,-2.395,8.814,3.257,11.73,3.401,8.814,-3.066,17.595,-2.588,8.916,-3.595,0.0,-17.595,-11.73
4.8500000000000005,-2.443,8.718,2.922,11.73,3.353,8.766,-2.73,17.595,-2.445,8.772,-3.307,0.0,-17.595,-11.73
4.855,-2.347,8.67,2.73,11.73,3.305,8.718,-2.491,11.73,-2.588,8.628,-2.876,0.0,-17.595,-11.73
4.86,-2.443,8.718,2.587,11.73,3.401,8.766,-2.395,11.73,-2.445,8.628,-2.732,0.0,-17.595,-5.865
4.865,-2.299,8.718,2.443,5.865,3.305,8.814,-2.156,11.73,-2.588,8.628,-2.588,0.0,-17.595,-11.73
4.87,-2.347,8.622,2.395,11.73,3.209,8.718,-2.108,11.73,-2.588,8.628,-2.445,0.0,-17.595,-5.865
4.875,-2.443,8.526,2.395,11.73,3.305,8.622,-2.06,11.73,-2.588,8.628,-2.445,0.0,-17.595,-11.73
4.88,-2.395,8.335,2.395,11.73,3.353,8.478,-2.06,11.73,-2.588,8.484,-2.445,-5.865,-17.595,-11.73
4.885,-2.347,8.191,2.395,11.73,3.257,8.239,-2.06,17.595,-2.588,8.34,-2.445,-5.865,-17.595,-11.73
4.89,-2.347,7.951,2.491,11.73,3.257,7.999,-2.108,17.595,-2.588,8.197,-2.445,-5.865,-17.595,-11.73
4.8950000000000005,-2.395,7.76,2.587,17.595,3.257,7.664,-2.203,17.595,-2.588,8.053,-2.445,-5.865,-17.595,-17.595
4.9,-2.443,7.568,2.73,17.595,3.305,7.377,-2.347,17.595,-2.588,7.909,-2.588,-5.865,-17.595,-11.73
4.905,-2.443,7.472,2.826,17.595,3.257,7.185,-2.443,17.595,-2.732,7.909,-2.732,-5.865,-17.595,-17.595
4.91,-2.491,7.425,2.73,17.595,3.209,6.993,-2.491,17.595,-2.732,7.909,-2.732,-5.865,-17.595,-17.595
4.915,-2.443,7.377,2.635,17.595,3.209,6.754,-2.443,17.595,-2.876,8.053,-2.732,0.0,-17.595,-17.595
4.92,-2.443,7.52,2.682,17.595,3.257,6.754,-2.347,17.595,-2.732,8.197,-2.588,0.0,-11.73,-17.595
4.925,-2.347,7.712,2.251,17.595,2.97,6.706,-1.82,17.595,-2.732,8.34,-2.732,17.595,-11.73,-17.595
4.93,-2.06,7.999,1.868,17.595,3.018,6.898,-1.772,17.595,-2.588,8.628,-2.301,23.46,-11.73,-17.595
4.9350000000000005,-1.772,8.047,1.245,11.73,1.772,6.371,-0.479,11.73,-2.301,9.203,-1.869,35.191,-11.73,-11.73
4.94,-1.868,8.814,2.108,-0.0,3.305,7.712,-1.341,5.865,-1.869,9.347,-1.294,52.786,-5.865,-11.73
4.945,-1.82,9.58,2.443,5.865,2.778,9.197,-1.964,5.865,-1.582,9.203,-2.013,70.381,-5.865,0.0
4.95,-2.06,10.107,2.682,5.865,2.826,10.059,-2.299,5.865,-2.157,9.491,-2.588,76.246,-5.865,0.0
4.955,-2.012,10.346,2.73,11.73,3.161,10.586,-2.443,11.73,-2.301,9.778,-2.732,76.246,-5.865,-5.865
4.96,-1.82,10.49,2.635,11.73,3.018,10.873,-2.395,11.73,-2.157,9.922,-2.732,70.381,-5.865,-11.73
4.965,-1.724,10.586,2.395,17.595,2.922,11.017,-2.251,17.595,-1.869,10.066,-2.732,64.516,-5.865,-11.73
4.97,-1.677,10.49,2.06,23.46,2.97,10.921,-1.868,23.46,-1.726,10.066,-2.445,58.651,-5.865,-17.595
4.9750000000000005,-1.581,10.251,1.916,23.46,2.874,10.586,-1.629,23.46,-1.582,10.066,-2.013,46.921,-11.73,-23.46
4.98,-1.533,10.107,1.964,29.326,2.778,10.251,-1.581,29.326,-1.438,10.066,-1.869,41.056,-11.73,-23.46
4.985,-1.485,10.059,2.156,29.326,2.73,10.107,-1.724,29.326,-1.438,10.066,-1.869,35.191,-17.595,-23.46
4.99,-1.485,10.107,2.395,29.326,2.635,10.203,-1.964,29.326,-1.438,10.066,-2.157,35.191,-23.46,-23.46
4.995,-1.485,10.107,2.635,29.326,2.635,10.251,-2.251,29.326,-1.438,9.922,-2.445,35.191,-29.326,-29.326
5.0,-1.437,10.011,2.778,35.191,2.587,10.251,-2.395,35.191,-1.438,9.922,-2.588,29.326,-29.326,-29.326
5.005,-1.437,9.82,2.826,35.191,2.443,10.011,-2.539,35.191,-1.582,9.778,-2.732,23.46,-35.191,-35.191
5.01,-1.341,9.58,2.874,35.191,2.347,9.676,-2.587,35.191,-1.582,9.778,-2.876,23.46,-35.191,-29.326
5.015,-1.389,9.341,2.778,35.191,2.251,9.341,-2.539,35.191,-1.582,9.635,-2.876,17.595,-35.191,-35.191
5.0200000000000005,-1.437,8.862,2.539,41.056,2.443,9.005,-2.347,41.056,-1.582,9.491,-2.732,17.595,-35.191,-35.191
5.025,-1.245,8.095,2.443,46.921,2.299,8.239,-2.108,41.056,-1.582,9.059,-2.445,17.595,-35.191,-41.056
5.03,-1.245,7.137,2.587,46.921,2.06,7.233,-2.156,46.921,-1.438,8.484,-2.445,23.46,-35.191,-41.056
5.035,-1.437,6.227,2.778,52.786,2.156,6.227,-2.347,46.921,-1.294,7.621,-2.588,23.46,-35.191,-46.921
5.04,-1.533,5.509,3.066,46.921,2.299,5.413,-2.587,46.921,-1.438,6.759,-2.732,29.326,-35.191,-52.786
5.045,-1.533,5.03,3.497,46.921,2.251,4.886,-2.922,46.921,-1.582,5.896,-3.164,35.191,-35.191,-46.921
5.05,-1.581,4.886,3.88,41.056,2.251,4.694,-3.353,41.056,-1.582,5.321,-3.451,35.191,-41.056,-46.921
5.055,-1.581,5.03,4.215,29.326,2.347,4.838,-3.736,35.191,-1.582,4.889,-3.883,41.056,-41.056,-35.191
5.0600000000000005,-1.485,5.365,4.455,23.46,2.203,5.269,-3.976,29.326,-1.726,4.889,-4.314,41.056,-41.056,-29.326
5.065,-1.533,5.7,4.742,17.595,2.203,5.748,-4.263,23.46,-1.726,5.033,-4.458,35.191,-41.056,-23.46
5.07,-1.533,6.083,4.982,5.865,2.347,6.179,-4.551,11.73,-1.726,5.177,-4.745,35.191,-41.056,-17.595
5.075,-1.485,6.419,5.077,-0.0,2.299,6.61,-4.694,5.865,-1.726,5.608,-5.033,29.326,-41.056,-5.865
5.08,-1.389,6.61,5.173,-0.0,2.251,6.85,-4.838,0.0,-1.726,5.896,-5.033,17.595,-41.056,0.0
5.085,-1.293,6.61,5.221,-5.865,2.108,6.85,-4.886,0.0,-1.582,6.183,-5.177,11.73,-35.191,0.0
5.09,-1.15,6.61,5.365,-5.865,1.916,6.658,-4.982,-5.865,-1.582,6.327,-5.321,0.0,-35.191,5.865
5.095,-0.958,6.514,5.509,-5.865,1.677,6.419,-5.125,-5.865,-1.438,6.471,-5.321,-5.865,-35.191,5.865
5.1000000000000005,-0.719,6.467,5.604,-11.73,1.437,6.227,-5.269,-5.865,-1.294,6.615,-5.464,-5.865,-35.191,5.865
5.105,-0.479,6.371,5.556,-11.73,1.102,6.131,-5.317,-11.73,-1.15,6.759,-5.608,-5.865,-29.326,11.73
5.11,-0.24,6.083,5.413,-17.595,0.91,5.892,-5.221,-11.73,-0.719,6.615,-5.608,-5.865,-29.326,11.73
5.115,-0.192,5.604,5.221,-23.46,0.671,5.461,-4.982,-17.595,-0.575,6.471,-5.464,-5.865,-23.46,17.595
5.12,-0.24,4.982,5.03,-23.46,0.671,4.79,-4.79,-23.46,-0.575,6.04,-5.177,0.0,-23.46,23.46
5.125,-0.192,4.359,4.742,-35.191,0.623,4.167,-4.551,-29.326,-0.575,5.464,-5.033,0.0,-17.595,29.326
5.13,-0.192,3.688,4.311,-41.056,0.575,3.593,-4.167,-35.191,-0.575,4.745,-4.745,0.0,-11.73,35.191
5.135,-0.144,2.922,3.976,-46.921,0.719,2.97,-3.784,-41.056,-0.431,4.026,-4.314,17.595,-11.73,41.056
5.14,0.048,2.203,3.784,-58.651,0.623,2.251,-3.497,-52.786,-0.144,3.164,-4.026,17.595,-5.865,46.921
5.1450000000000005,0.479,2.108,4.024,-64.516,0.335,1.724,-3.449,-58.651,0.144,2.301,-3.739,23.46,-5.865,58.651
5.15,0.91,2.97,4.359,-76.246,-0.048,1.964,-3.832,-70.381,0.719,2.445,-4.026,23.46,-5.865,70.381
5.155,1.102,4.263,4.551,-93.842,-0.431,3.305,-4.119,-87.977,1.15,3.307,-4.314,23.46,-11.73,82.111
5.16,0.958,5.413,4.694,-105.572,-0.527,4.694,-4.311,-99.707,1.15,4.314,-4.602,29.326,-11.73,93.842
5.165,1.341,16.382,1.437,-111.437,-0.287,5.844,-4.503,-111.437,0.863,5.464,-4.745,29.326,-11.73,105.572
5.17,-5.125,18.01,-20.741,-64.516,11.592,21.842,18.585,-105.572,1.726,28.616,-4.314,23.46,-11.73,117.302
5.175,5.269,23.615,7.089,-17.595,5.365,24.19,4.934,-29.326,-15.674,7.621,20.995,29.326,-5.865,82.111
5.18,2.108,22.657,7.377,29.326,2.395,24.285,-10.49,5.865,16.681,14.955,-8.34,76.246,23.46,29.326
5.1850000000000005,-0.719,20.501,-1.868,41.056,-2.874,23.279,-1.581,46.921,1.294,15.387,-7.621,-23.46,-64.516,-23.46
5.19,-3.545,14.897,-3.353,-5.865,4.598,15.807,3.688,17.595,-3.883,20.995,1.869,-134.897,-105.572,-41.056
5.195,-1.581,11.736,-2.443,-17.595,4.934,12.023,3.305,-17.595,-1.869,16.968,3.307,-164.223,-82.111,5.865
5.2,0.0,11.161,-0.623,-41.056,1.293,9.82,2.108,-29.326,-1.438,12.942,2.445,-146.628,-82.111,23.46
5.205,-0.335,10.251,1.245,-70.381,1.006,9.005,0.048,-58.651,-0.144,12.079,0.575,-129.032,-93.842,41.056
5.21,-2.347,10.682,2.826,-93.842,2.491,8.622,-1.772,-87.977,0.0,12.223,-1.294,-111.437,-93.842,64.516
5.215,-3.066,12.071,3.976,-99.707,3.401,9.388,-3.161,-99.707,-2.588,14.092,-2.732,-87.977,-99.707,82.111
5.22,-2.251,12.358,4.646,-93.842,2.922,10.586,-4.167,-99.707,-4.17,14.955,-4.026,-58.651,-99.707,93.842
5.2250000000000005,-1.389,11.831,5.221,-82.111,2.108,10.73,-4.694,-93.842,-3.595,14.38,-4.602,-35.191,-87.977,93.842
5.23,-1.198,10.873,5.604,-64.516,1.964,10.203,-5.221,-70.381,-2.157,13.373,-5.177,-5.865,-76.246,82.111
5.235,-0.862,9.82,5.988,-52.786,1.82,9.628,-5.509,-58.651,-1.582,12.079,-5.608,17.595,-64.516,64.516
5.24,-0.958,8.67,6.227,-46.921,1.629,8.766,-5.94,-52.786,-1.15,10.497,-6.04,35.191,-58.651,52.786
5.245,-1.245,7.856,6.706,-41.056,1.82,7.999,-6.131,-46.921,-1.438,9.059,-6.183,41.056,-58.651,46.921
5.25,-1.341,7.137,6.898,-29.326,1.916,7.568,-6.61,-35.191,-1.582,7.765,-6.759,46.921,-52.786,41.056
5.255,-1.389,6.658,6.514,-23.46,1.724,7.041,-6.467,-29.326,-1.869,6.759,-6.902,46.921,-52.786,35.191
5.26,-1.437,6.419,5.7,-5.865,1.964,6.514,-5.604,-11.73,-2.157,6.327,-6.615,41.056,-46.921,23.46
5.265,-1.198,6.083,4.982,5.865,1.772,6.323,-5.077,5.865,-2.157,6.183,-5.752,41.056,-41.056,5.865
5.2700000000000005,-1.102,6.083,3.928,23.46,1.629,6.083,-4.119,17.595,-1.726,5.896,-5.033,35.191,-35.191,-5.865
5.275,-1.15,6.323,2.922,35.191,1.82,6.083,-3.018,29.326,-1.582,6.04,-3.883,35.191,-29.326,-23.46
5.28,-1.054,6.467,2.299,41.056,1.916,6.323,-2.251,41.056,-1.294,6.327,-2.876,29.326,-23.46,-35.191
5.285,-0.862,6.514,1.868,46.921,1.772,6.419,-1.724,46.921,-1.15,6.615,-2.301,29.326,-23.46,-41.056
5.29,-0.862,6.514,1.485,52.786,1.772,6.514,-1.293,52.786,-1.007,6.615,-1.869,29.326,-23.46,-46.921
5.295,-1.054,6.467,1.102,52.786,1.964,6.514,-0.91,52.786,-0.719,6.471,-1.438,29.326,-23.46,-52.786
5.3,-1.198,6.275,0.862,46.921,2.06,6.371,-0.575,52.786,-1.007,6.471,-1.007,29.326,-29.326,-52.786
5.305,-1.293,6.131,0.766,46.921,2.156,6.131,-0.431,46.921,-1.15,6.183,-0.863,23.46,-29.326,-52.786
5.3100000000000005,-1.437,6.179,0.958,35.191,2.299,6.083,-0.431,41.056,-1.15,6.183,-0.719,23.46,-35.191,-41.056
5.315,-1.485,6.419,1.198,23.46,2.395,6.275,-0.719,29.326,-1.294,6.183,-0.863,23.46,-35.191,-35.191
5.32,-1.533,6.658,1.437,17.595,2.347,6.658,-0.958,23.46,-1.438,6.183,-1.15,23.46,-41.056,-23.46
5.325,-1.629,6.802,1.724,11.73,2.491,6.946,-1.245,11.73,-1.582,6.327,-1.438,17.595,-41.056,-17.595
5.33,-1.677,6.898,2.156,5.865,2.587,7.089,-1.581,5.865,-1.726,6.471,-1.726,17.595,-41.056,-11.73
5.335,-1.82,6.898,2.682,-0.0,2.635,7.185,-2.06,0.0,-1.726,6.471,-2.157,0.0,-41.056,0.0
5.34,-1.964,6.802,3.305,-0.0,2.778,7.185,-2.682,0.0,-1.869,6.471,-2.732,0.0,-41.056,0.0
5.345,-2.012,6.562,3.928,-5.865,2.73,6.993,-3.305,0.0,-2.157,6.327,-3.307,-5.865,-46.921,5.865
5.3500000000000005,-2.251,6.227,4.742,-0.0,2.73,6.562,-4.024,0.0,-2.445,6.183,-4.026,-11.73,-46.921,5.865
5.355,-2.012,5.748,5.221,-5.865,2.874,6.083,-4.79,0.0,-2.732,6.04,-4.889,-17.595,-46.921,5.865
5.36,-2.539,5.7,6.179,-5.865,2.635,5.556,-5.461,0.0,-2.876,5.896,-5.321,-23.46,-41.056,5.865
5.365,-2.587,5.844,6.419,-11.73,3.114,5.604,-6.035,-5.865,-2.876,5.752,-6.183,-23.46,-35.191,5.865
5.37,-2.73,6.131,6.61,-5.865,3.114,5.7,-6.275,-5.865,-3.307,6.04,-6.471,-23.46,-29.326,11.73
5.375,-2.73,6.562,6.514,-5.865,3.161,5.892,-6.323,-5.865,-3.451,6.327,-6.615,-29.326,-23.46,11.73
5.38,-2.251,6.898,6.802,-0.0,2.443,5.988,-5.988,0.0,-3.595,7.046,-6.471,-23.46,-17.595,5.865
5.385,-2.874,7.185,6.85,-0.0,2.922,6.131,-6.61,0.0,-3.595,7.334,-6.615,-17.595,-11.73,0.0
5.39,-3.018,7.856,6.083,-0.0,3.736,6.898,-6.227,0.0,-3.164,7.909,-6.902,-11.73,0.0,0.0
5.3950000000000005,-2.778,8.43,5.556,11.73,3.401,7.472,-5.509,5.865,-3.595,8.484,-6.183,-5.865,5.865,0.0
5.4,-2.491,8.957,5.221,17.595,3.257,8.047,-5.125,17.595,-3.451,9.203,-5.608,0.0,11.73,-11.73
5.405,-2.203,9.245,4.886,23.46,2.922,8.478,-4.742,23.46,-3.02,9.778,-5.177,11.73,17.595,-17.595
5.41,-2.299,9.245,4.455,29.326,2.778,8.718,-4.407,23.46,-2.876,10.066,-4.889,23.46,23.46,-23.46
5.415,-2.443,8.957,4.024,29.326,3.114,8.622,-3.88,29.326,-2.876,9.922,-4.458,29.326,29.326,-23.46
5.42,-2.539,8.574,3.64,23.46,3.209,8.191,-3.401,29.326,-2.876,9.635,-4.026,41.056,35.191,-23.46
5.425,-2.491,8.047,3.401,23.46,3.161,7.568,-3.209,29.326,-3.02,9.347,-3.739,46.921,41.056,-23.46
5.43,-2.347,7.616,3.353,23.46,2.97,7.233,-3.018,23.46,-3.02,8.916,-3.307,52.786,41.056,-23.46
5.4350000000000005,-2.06,7.52,3.305,11.73,3.066,7.041,-2.97,17.595,-2.732,8.053,-3.307,64.516,46.921,-17.595
5.44,-2.012,7.76,3.497,5.865,2.778,7.329,-3.066,11.73,-2.301,7.909,-3.307,70.381,52.786,-11.73
5.445,-1.964,8.622,3.593,-5.865,3.066,8.191,-3.209,0.0,-2.157,7.765,-3.595,76.246,52.786,-5.865
5.45,-1.677,9.724,3.832,-11.73,2.922,9.484,-3.353,-5.865,-1.869,8.34,-3.595,76.246,52.786,5.865
5.455,-1.437,10.825,4.119,-17.595,2.73,10.825,-3.688,-17.595,-1.726,9.059,-3.883,70.381,52.786,17.595
5.46,-1.389,11.64,4.167,-29.326,2.73,11.927,-3.88,-23.46,-1.294,10.066,-4.17,64.516,52.786,23.46
5.465,-1.389,12.31,3.976,-35.191,2.682,12.646,-3.832,-35.191,-1.294,10.785,-4.314,52.786,46.921,29.326
5.47,-1.341,12.789,3.736,-41.056,2.682,13.077,-3.593,-35.191,-1.438,11.648,-4.026,41.056,41.056,35.191
5.4750000000000005,-1.198,13.029,3.497,-41.056,2.73,13.364,-3.401,-41.056,-1.294,12.223,-3.739,29.326,41.056,41.056
5.48,-1.245,13.173,3.497,-41.056,2.587,13.46,-3.161,-41.056,-1.007,12.654,-3.451,17.595,35.191,41.056
5.485,-1.054,13.652,3.593,-35.191,2.635,13.604,-3.305,-35.191,-1.294,12.798,-3.595,11.73,29.326,41.056
5.49,-0.671,14.131,3.688,-35.191,2.299,14.131,-3.449,-35.191,-0.863,13.373,-3.595,0.0,29.326,41.056
5.495,-0.335,14.37,3.736,-35.191,1.82,14.514,-3.497,-35.191,-0.575,13.805,-3.739,0.0,23.46,41.056
5.5,-0.335,14.322,3.976,-35.191,1.485,14.466,-3.64,-35.191,-0.431,14.236,-3.739,-5.865,23.46,41.056
5.505,-0.431,14.131,4.024,-29.326,1.581,14.131,-3.832,-29.326,-0.575,14.38,-4.026,-11.73,17.595,35.191
5.51,-0.431,13.891,4.024,-29.326,1.629,13.795,-3.784,-29.326,-0.575,14.38,-4.026,-11.73,17.595,35.191
5.515,-0.287,13.508,4.072,-23.46,1.437,13.316,-3.832,-23.46,-0.719,14.236,-4.026,-11.73,17.595,29.326
5.5200000000000005,-0.24,12.933,4.072,-23.46,1.341,12.741,-3.88,-23.46,-0.575,14.092,-4.17,-11.73,23.46,29.326
5.525,-0.24,12.31,3.976,-17.595,1.341,12.167,-3.784,-17.595,-0.431,13.517,-4.026,-5.865,23.46,23.46
5.53,-0.192,11.927,3.88,-17.595,1.341,11.783,-3.688,-17.595,-0.431,12.798,-4.026,0.0,23.46,23.46
5.535,-0.192,11.64,3.736,-17.595,1.293,11.496,-3.593,-17.595,-0.288,12.223,-3.883,0.0,23.46,17.595
5.54,-0.24,11.496,3.688,-17.595,1.341,11.352,-3.449,-17.595,-0.288,11.935,-3.739,11.73,23.46,17.595
5.545,-0.479,11.304,3.784,-17.595,1.389,11.352,-3.497,-17.595,-0.144,11.648,-3.739,11.73,23.46,23.46
5.55,0.0,11.209,3.736,-11.73,1.533,11.4,-3.545,-17.595,0.431,11.216,-3.739,11.73,23.46,23.46
5.555,0.048,11.209,3.688,-11.73,1.15,11.352,-3.497,-11.73,-0.144,11.073,-3.739,11.73,23.46,29.326
5.5600000000000005,0.192,11.304,3.736,-17.595,0.91,11.352,-3.497,-11.73,-0.144,11.216,-3.739,0.0,17.595,29.326
5.565,-0.048,11.209,3.688,-17.595,1.006,11.496,-3.497,-11.73,0.0,11.216,-3.739,0.0,17.595,29.326
5.57,-0.144,11.257,3.545,-17.595,1.293,11.448,-3.305,-17.595,0.144,11.216,-3.739,0.0,17.595,23.46
5.575,-0.24,11.161,3.497,-11.73,1.245,11.4,-3.305,-11.73,0.0,11.504,-3.595,-5.865,11.73,23.46
5.58,-0.096,11.113,3.353,-11.73,1.245,11.448,-3.161,-11.73,0.0,11.792,-3.451,-11.73,11.73,23.46
5.585,0.24,12.071,3.161,-5.865,1.245,11.209,-3.018,-5.865,0.0,11.504,-3.451,-17.595,11.73,23.46
5.59,-0.048,11.113,2.826,-0.0,1.054,11.352,-2.778,0.0,-0.575,10.21,-3.164,-23.46,11.73,17.595
5.595,0.0,10.778,2.539,-0.0,1.006,10.873,-2.347,0.0,-0.144,10.785,-2.876,-17.595,5.865,5.865
5.6000000000000005,0.0,10.299,2.299,-0.0,0.91,10.346,-2.156,0.0,-0.288,10.785,-2.588,-17.595,5.865,0.0
5.605,0.0,9.867,2.06,5.865,1.006,9.867,-1.868,5.865,-0.144,10.497,-2.301,-17.595,5.865,0.0
5.61,-0.048,9.388,2.012,5.865,1.006,9.484,-1.724,5.865,0.0,10.066,-2.013,-17.595,11.73,0.0
5.615,0.0,8.957,1.82,5.865,0.91,9.053,-1.581,11.73,0.0,9.491,-1.869,-17.595,11.73,-5.865
5.62,0.048,8.67,1.724,5.865,0.862,8.622,-1.437,5.865,0.0,9.059,-1.869,-17.595,5.865,-5.865
5.625,0.0,8.43,1.581,-0.0,0.766,8.383,-1.341,5.865,0.0,8.916,-1.726,-17.595,5.865,-5.865
5.63,0.0,8.191,1.341,-0.0,0.91,8.143,-1.102,0.0,-0.144,8.484,-1.582,-11.73,5.865,0.0
5.635,0.144,7.999,1.15,-5.865,0.814,7.856,-0.91,0.0,0.0,8.34,-1.294,-11.73,5.865,5.865
5.64,0.24,7.904,1.15,-11.73,0.623,7.712,-0.814,-5.865,0.144,8.34,-1.15,-11.73,5.865,5.865
5.6450000000000005,0.335,7.712,1.15,-11.73,0.575,7.616,-0.862,-11.73,0.288,8.197,-1.15,-11.73,5.865,11.73
5.65,0.383,7.616,1.198,-17.595,0.527,7.472,-0.814,-17.595,0.431,7.909,-1.15,-11.73,5.865,17.595
5.655,0.335,7.568,1.102,-17.595,0.479,7.377,-0.862,-17.595,0.575,7.909,-1.15,-5.865,5.865,23.46
5.66,0.431,7.664,1.054,-17.595,0.527,7.425,-0.766,-17.595,0.431,7.765,-1.007,-5.865,5.865,23.46
5.665,0.623,7.712,1.006,-17.595,0.335,7.568,-0.671,-17.595,0.431,7.909,-1.007,-5.865,0.0,23.46
5.67,1.006,7.712,1.006,-11.73,0.0,7.664,-0.671,-11.73,0.575,7.765,-1.007,-5.865,0.0,17.595
5.675,1.245,7.76,1.054,-11.73,-0.24,7.664,-0.671,-11.73,1.007,7.765,-1.007,-5.865,0.0,11.73
5.68,1.293,7.856,1.054,-11.73,-0.287,7.808,-0.719,-5.865,1.438,7.765,-1.007,-5.865,0.0,11.73
5.6850000000000005,1.341,7.999,0.958,-5.865,-0.335,7.904,-0.671,-5.865,1.582,7.765,-1.007,-5.865,-5.865,5.865
5.69,1.341,8.095,0.814,-5.865,-0.383,7.999,-0.575,-5.865,1.582,8.053,-0.863,-5.865,-5.865,11.73
5.695,1.293,8.191,0.766,-5.865,-0.383,8.047,-0.479,-5.865,1.582,8.197,-0.719,-5.865,-11.73,5.865
5.7,1.341,8.239,0.623,-5.865,-0.383,7.999,-0.383,-5.865,1.438,8.484,-0.719,-5.865,-11.73,11.73
5.705,1.293,8.239,0.335,-5.865,-0.383,7.999,-0.144,-5.865,1.582,8.484,-0.575,-5.865,-17.595,5.865
5.71,1.341,8.335,0.192,-0.0,-0.335,7.951,0.096,0.0,1.582,8.628,-0.288,-5.865,-17.595,5.865
5.715,1.437,8.43,0.0,-0.0,-0.383,8.047,0.24,0.0,1.582,8.772,-0.144,0.0,-17.595,5.865
5.72,1.533,8.67,-0.048,-0.0,-0.479,8.239,0.335,0.0,1.726,8.916,0.144,0.0,-23.46,0.0
5.7250000000000005,1.581,8.862,-0.192,5.865,-0.527,8.383,0.479,5.865,1.869,9.059,0.144,0.0,-23.46,0.0
5.73,1.437,9.053,-0.335,5.865,-0.527,8.574,0.575,5.865,1.869,9.347,0.288,11.73,-29.326,-5.865
5.735,1.293,9.197,-0.479,11.73,-0.383,8.766,0.814,11.73,1.726,9.635,0.431,17.595,-35.191,-5.865
5.74,1.293,9.293,-0.527,11.73,-0.24,8.814,0.862,11.73,1.582,9.778,0.575,23.46,-35.191,-11.73
5.745,1.341,9.388,-0.383,17.595,-0.335,8.909,0.814,17.595,1.438,9.778,0.575,29.326,-41.056,-11.73
5.75,1.245,9.532,-0.479,23.46,-0.431,9.053,0.766,23.46,1.438,10.066,0.431,35.191,-41.056,-17.595
5.755,1.054,9.58,-0.383,29.326,-0.096,9.245,0.814,29.326,1.438,10.066,0.575,41.056,-46.921,-23.46
5.76,1.054,9.532,-0.383,35.191,0.0,9.197,0.719,35.191,1.294,10.066,0.431,46.921,-46.921,-29.326
5.765,1.006,9.341,-0.479,41.056,-0.048,9.101,0.719,41.056,1.294,10.066,0.431,52.786,-46.921,-35.191
5.7700000000000005,0.814,9.053,-0.623,52.786,0.096,8.909,0.91,46.921,1.15,9.778,0.575,58.651,-52.786,-41.056
5.775,0.431,8.287,-0.719,58.651,0.335,8.622,1.054,52.786,1.007,9.491,0.719,58.651,-52.786,-46.921
5.78,0.527,7.904,-0.719,64.516,0.575,8.047,1.054,64.516,1.007,9.203,0.863,64.516,-58.651,-58.651
5.785,0.958,7.472,-0.766,76.246,0.335,7.616,1.15,70.381,1.007,8.197,0.719,64.516,-58.651,-64.516
5.79,0.862,6.658,-0.575,82.111,0.096,6.993,1.102,82.111,1.15,7.046,0.719,64.516,-64.516,-70.381
5.795,1.006,6.227,-0.144,82.111,0.144,6.467,0.766,82.111,1.15,6.471,0.575,64.516,-64.516,-76.246
5.8,1.15,5.988,0.335,82.111,-0.144,6.275,0.335,82.111,1.294,5.896,0.144,64.516,-70.381,-82.111
5.805,1.198,5.988,0.91,82.111,-0.24,6.275,-0.24,82.111,1.438,5.608,-0.431,64.516,-76.246,-82.111
5.8100000000000005,1.437,6.371,1.389,76.246,-0.383,6.514,-0.766,82.111,1.582,5.752,-0.863,58.651,-82.111,-76.246
5.815,1.677,6.993,1.724,70.381,-0.527,7.041,-1.198,70.381,1.869,6.183,-1.438,52.786,-82.111,-70.381
5.82,1.82,8.191,1.916,58.651,-0.575,7.76,-1.533,64.516,2.157,7.19,-1.869,41.056,-87.977,-58.651
5.825,1.581,9.149,1.964,46.921,-0.575,8.862,-1.629,52.786,2.301,7.909,-2.013,35.191,-87.977,-46.921
5.83,1.485,10.442,2.347,41.056,-0.383,9.82,-1.868,41.056,2.013,9.203,-2.013,29.326,-93.842,-41.056
5.835,1.677,11.496,2.922,29.326,-0.383,10.873,-2.299,29.326,1.869,10.066,-2.445,29.326,-99.707,-29.326
5.84,1.724,12.55,3.688,17.595,-0.527,11.975,-3.018,23.46,2.013,11.216,-3.02,29.326,-105.572,-17.595
5.845,1.581,13.46,4.455,11.73,-0.479,13.029,-3.88,17.595,2.013,12.367,-3.739,29.326,-105.572,-17.595
5.8500000000000005,1.341,14.178,5.125,11.73,-0.335,13.843,-4.598,11.73,1.726,13.373,-4.602,23.46,-111.437,-11.73
5.855,1.15,14.562,5.748,5.865,-0.24,14.37,-5.269,5.865,1.294,14.092,-5.177,23.46,-111.437,-5.865
5.86,1.054,14.657,6.179,11.73,-0.144,14.657,-5.844,11.73,1.007,14.668,-5.896,23.46,-111.437,-5.865
5.865,1.054,14.753,6.275,17.595,-0.144,14.705,-6.035,11.73,0.863,14.955,-6.327,23.46,-111.437,-11.73
5.87,1.054,14.897,6.227,17.595,-0.048,14.801,-6.083,17.595,0.863,15.099,-6.327,17.595,-105.572,-17.595
5.875,1.006,14.466,5.988,23.46,0.0,14.61,-5.94,17.595,0.863,14.668,-6.327,17.595,-99.707,-17.595
5.88,0.814,14.178,5.748,23.46,0.192,14.274,-5.652,23.46,1.007,14.668,-6.04,17.595,-93.842,-23.46
5.885,0.671,13.747,5.556,23.46,0.383,13.939,-5.413,23.46,0.863,14.236,-5.752,17.595,-87.977,-23.46
5.89,0.671,13.556,5.461,23.46,0.431,13.747,-5.317,23.46,0.719,13.661,-5.608,11.73,-87.977,-23.46
5.8950000000000005,0.575,12.981,5.365,17.595,0.335,13.316,-5.221,17.595,0.575,13.086,-5.608,11.73,-87.977,-23.46
5.9,0.479,12.454,5.125,17.595,0.527,12.694,-5.03,17.595,0.431,12.798,-5.464,0.0,-82.111,-17.595
5.905,0.335,12.023,4.886,11.73,0.671,12.167,-4.742,17.595,0.431,12.223,-5.177,0.0,-82.111,-17.595
5.91,0.24,11.736,4.742,11.73,0.766,11.783,-4.551,11.73,0.431,11.935,-5.033,0.0,-82.111,-11.73
5.915,0.144,11.496,4.646,5.865,0.719,11.4,-4.455,11.73,0.144,11.935,-4.745,0.0,-76.246,-11.73
5.92,0.048,11.352,4.407,5.865,0.862,11.209,-4.263,5.865,0.0,11.792,-4.602,0.0,-76.246,-5.865
5.925,-0.144,11.209,4.263,-0.0,1.006,11.065,-4.072,0.0,0.0,11.648,-4.458,0.0,-76.246,-5.865
5.93,-0.335,11.209,4.119,-5.865,1.245,10.969,-3.928,0.0,-0.144,11.504,-4.314,0.0,-76.246,0.0
5.9350000000000005,-0.479,11.257,4.024,-5.865,1.437,10.969,-3.784,-5.865,-0.288,11.504,-4.17,0.0,-76.246,5.865
5.94,-0.527,11.352,3.928,-5.865,1.437,10.969,-3.736,-5.865,-0.575,11.648,-4.026,11.73,-70.381,5.865
5.945,-0.671,11.4,3.832,-5.865,1.533,11.065,-3.64,-5.865,-0.575,11.792,-4.026,11.73,-70.381,5.865
5.95,-0.719,11.257,3.64,-5.865,1.677,10.969,-3.497,-5.865,-0.719,11.792,-3.883,17.595,-70.381,5.865
5.955,-0.623,11.017,3.545,-5.865,1.677,10.825,-3.353,-5.865,-0.863,11.648,-3.739,23.46,-70.381,5.865
5.96,-0.623,10.73,3.401,-5.865,1.485,10.586,-3.161,-5.865,-0.719,11.36,-3.595,23.46,-70.381,5.865
5.965,-0.814,10.394,3.305,-5.865,1.82,10.442,-3.114,-5.865,-0.719,11.073,-3.451,29.326,-64.516,5.865
5.97,-0.623,9.915,3.114,-11.73,1.772,10.059,-2.874,-5.865,-0.719,10.497,-3.307,29.326,-64.516,5.865
5.9750000000000005,-0.192,9.436,2.778,-11.73,1.485,9.628,-2.635,-11.73,-0.719,10.066,-3.164,29.326,-64.516,11.73
5.98,-0.958,9.245,2.587,-23.46,1.437,9.436,-2.395,-17.595,-1.15,9.778,-2.876,29.326,-70.381,11.73
5.985,-0.814,9.005,2.012,-29.326,2.012,9.293,-2.251,-29.326,-0.719,8.916,-2.588,29.326,-70.381,5.865
5.99,-0.192,9.484,0.479,-29.326,0.0,10.921,0.24,-35.191,-0.863,8.34,-2.013,23.46,-70.381,11.73
5.995,-1.293,9.053,2.06,-17.595,2.73,9.82,-1.15,-23.46,0.144,8.916,-0.431,11.73,-70.381,5.865
6.0,-1.245,8.526,1.964,-5.865,2.299,9.388,-1.772,-5.865,-1.15,8.34,-2.013,0.0,-70.381,-5.865
6.005,-0.91,7.808,1.677,5.865,1.868,8.574,-1.533,0.0,-1.438,7.909,-2.013,-11.73,-76.246,-17.595
6.01,-1.054,7.329,1.245,5.865,1.82,7.76,-1.054,5.865,-1.15,7.478,-1.726,-23.46,-76.246,-23.46
6.015000000000001,-1.245,6.898,1.102,17.595,1.916,7.281,-0.814,11.73,-0.863,6.902,-1.294,-29.326,-76.246,-29.326
6.0200000000000005,-1.102,6.754,1.293,29.326,1.964,7.089,-0.814,23.46,-0.863,6.471,-1.15,-35.191,-76.246,-35.191
6.025,-0.766,7.041,1.389,35.191,2.108,7.137,-0.719,35.191,-0.575,6.327,-1.294,-41.056,-82.111,-41.056
6.03,-1.15,6.898,1.485,41.056,2.012,6.946,-1.102,41.056,-0.575,6.615,-1.438,-46.921,-82.111,-46.921
6.035,-1.198,6.706,1.772,46.921,1.772,6.61,-1.245,41.056,-1.294,6.902,-1.582,-52.786,-87.977,-46.921
6.04,-1.389,6.514,1.868,41.056,2.156,5.988,-1.341,41.056,-1.438,7.19,-1.726,-52.786,-87.977,-41.056
6.045,-1.006,6.419,2.251,41.056,1.82,5.94,-1.772,41.056,-1.726,7.19,-2.013,-46.921,-87.977,-41.056
6.05,-1.772,6.323,2.203,41.056,2.012,5.652,-1.964,41.056,-1.438,7.046,-2.301,-46.921,-87.977,-41.056
6.055,-1.581,5.94,2.395,46.921,1.82,5.748,-1.916,46.921,-1.726,7.19,-2.157,-35.191,-82.111,-41.056
