time_aligned_sec,L_Acc_X_aligned,L_Acc_Y_aligned,L_Acc_Z_aligned,L_Gyro_Z_aligned,R_Acc_X_aligned,R_Acc_Y_aligned,R_Acc_Z_aligned,R_Gyro_Z_aligned,T_Acc_X_aligned,T_Acc_Y_aligned,T_Acc_Z_aligned,T_Gyro_X_aligned,T_Gyro_Y_aligned,T_Gyro_Z_aligned
0.0,0.335,6.946,7.329,5.865,0.527,6.946,-7.041,5.865,-0.288,7.19,-7.334,0.0,0.0,0.0
0.005,0.335,6.898,7.377,5.865,0.527,6.898,-7.041,5.865,-0.288,7.19,-7.334,0.0,0.0,0.0
0.01,0.383,6.85,7.425,5.865,0.479,6.802,-7.089,5.865,-0.288,7.19,-7.334,0.0,0.0,0.0
0.015,0.383,6.85,7.472,5.865,0.479,6.754,-7.137,5.865,-0.288,7.046,-7.334,0.0,5.865,0.0
0.02,0.383,6.754,7.52,-0.0,0.527,6.706,-7.185,5.865,-0.288,7.046,-7.478,0.0,5.865,0.0
0.025,0.335,6.802,7.472,-0.0,0.575,6.706,-7.089,0.0,-0.431,6.902,-7.478,0.0,5.865,0.0
0.03,0.287,6.802,7.425,-0.0,0.527,6.706,-7.041,0.0,-0.431,6.902,-7.478,0.0,5.865,0.0
0.035,0.335,6.802,7.329,-0.0,0.479,6.706,-6.993,0.0,-0.431,6.902,-7.478,11.73,11.73,0.0
0.04,0.335,6.802,7.281,-0.0,0.479,6.706,-6.946,0.0,-0.288,6.902,-7.334,11.73,11.73,0.0
0.045,0.335,6.706,7.233,-5.865,0.479,6.754,-6.946,0.0,-0.288,6.902,-7.334,11.73,11.73,5.865
0.05,0.383,6.706,7.281,-5.865,0.431,6.754,-6.993,0.0,-0.288,6.902,-7.334,11.73,11.73,5.865
0.055,0.383,6.85,7.329,-5.865,0.431,6.802,-6.993,-5.865,-0.288,6.902,-7.334,11.73,17.595,5.865
0.06,0.335,6.946,7.329,-5.865,0.479,6.898,-7.041,-5.865,-0.288,6.902,-7.334,11.73,11.73,5.865
0.065,0.335,7.041,7.329,-5.865,0.527,6.946,-7.041,-5.865,-0.288,6.902,-7.334,11.73,17.595,5.865
0.07,0.335,7.137,7.377,-5.865,0.575,6.993,-7.041,-5.865,-0.288,7.046,-7.334,11.73,17.595,5.865
0.075,0.335,7.185,7.425,-5.865,0.527,7.041,-7.089,-5.865,-0.431,7.046,-7.334,17.595,17.595,11.73
0.08,0.431,7.233,7.425,-5.865,0.479,7.089,-7.089,-5.865,-0.431,7.19,-7.334,11.73,17.595,11.73
0.085,0.383,7.233,7.425,-5.865,0.479,7.041,-7.089,0.0,-0.431,7.19,-7.334,17.595,17.595,5.865
0.09,0.431,7.185,7.425,-0.0,0.479,6.993,-7.089,0.0,-0.288,7.19,-7.334,17.595,17.595,5.865
0.095,0.431,7.089,7.425,-0.0,0.479,6.946,-7.089,0.0,-0.288,7.19,-7.334,11.73,23.46,5.865
0.1,0.431,6.993,7.425,-0.0,0.431,6.898,-7.089,0.0,-0.288,7.046,-7.334,11.73,23.46,5.865
0.105,0.431,6.946,7.425,-0.0,0.431,6.802,-7.137,0.0,-0.288,7.046,-7.334,11.73,23.46,0.0
0.11,0.479,6.85,7.472,-0.0,0.431,6.754,-7.137,0.0,-0.288,7.046,-7.478,11.73,23.46,0.0
0.115,0.479,6.85,7.425,-0.0,0.383,6.706,-7.137,0.0,-0.288,6.902,-7.478,11.73,23.46,0.0
0.12,0.479,6.85,7.472,-0.0,0.383,6.706,-7.185,0.0,-0.288,6.902,-7.478,11.73,23.46,0.0
0.125,0.479,6.898,7.472,-0.0,0.383,6.706,-7.185,0.0,-0.288,6.902,-7.478,11.73,29.326,0.0
0.13,0.431,6.946,7.52,-5.865,0.383,6.706,-7.137,0.0,-0.144,6.902,-7.478,11.73,29.326,5.865
0.135,0.479,6.85,7.472,-5.865,0.431,6.706,-7.185,0.0,-0.288,6.759,-7.478,11.73,29.326,5.865
0.14,0.479,6.802,7.52,-5.865,0.431,6.706,-7.185,0.0,-0.144,6.759,-7.478,0.0,29.326,5.865
0.145,0.479,6.802,7.472,-5.865,0.431,6.706,-7.185,0.0,-0.288,6.902,-7.478,0.0,29.326,5.865
0.15,0.431,6.85,7.472,-5.865,0.431,6.706,-7.185,0.0,-0.288,6.902,-7.478,0.0,29.326,5.865
0.155,0.431,6.802,7.472,-5.865,0.383,6.706,-7.185,-5.865,-0.288,6.759,-7.478,0.0,29.326,5.865
0.16,0.431,6.802,7.472,-5.865,0.383,6.658,-7.137,0.0,-0.288,6.759,-7.478,0.0,35.191,5.865
0.165,0.431,6.802,7.377,-5.865,0.383,6.658,-7.041,-5.865,-0.288,6.759,-7.478,0.0,35.191,5.865
0.17,0.431,6.754,7.329,-5.865,0.335,6.658,-6.993,-5.865,-0.144,6.759,-7.478,0.0,35.191,5.865
0.17500000000000002,0.479,6.802,7.281,-5.865,0.383,6.706,-6.946,-5.865,-0.144,6.759,-7.334,0.0,35.191,5.865
0.18,0.431,6.898,7.233,-11.73,0.383,6.802,-6.85,-5.865,-0.144,6.902,-7.334,0.0,35.191,5.865
0.185,0.431,6.993,7.137,-11.73,0.383,6.898,-6.802,-5.865,-0.144,6.902,-7.19,0.0,35.191,11.73
0.19,0.431,6.993,7.041,-11.73,0.383,6.946,-6.706,-5.865,-0.144,6.902,-7.19,0.0,41.056,11.73
0.195,0.431,6.993,6.993,-11.73,0.383,6.898,-6.658,-5.865,-0.144,7.046,-7.046,0.0,41.056,11.73
0.2,0.383,7.041,6.946,-11.73,0.431,6.898,-6.61,-5.865,-0.144,7.046,-7.046,0.0,41.056,11.73
0.20500000000000002,0.383,7.041,6.85,-11.73,0.431,6.898,-6.514,-5.865,-0.144,7.046,-7.046,0.0,41.056,11.73
0.21,0.383,6.993,6.802,-11.73,0.383,6.898,-6.467,-5.865,-0.288,7.046,-6.902,0.0,41.056,11.73
0.215,0.383,6.946,6.754,-11.73,0.383,6.898,-6.419,-5.865,-0.144,7.046,-6.902,0.0,41.056,11.73
0.22,0.383,6.946,6.706,-11.73,0.383,6.898,-6.371,-5.865,-0.144,7.046,-6.759,0.0,41.056,11.73
0.225,0.383,6.993,6.658,-11.73,0.383,6.898,-6.371,-5.865,-0.144,7.046,-6.759,0.0,41.056,11.73
0.23,0.383,7.089,6.658,-11.73,0.431,6.946,-6.323,-11.73,-0.144,7.046,-6.759,0.0,41.056,11.73
0.23500000000000001,0.335,7.137,6.562,-11.73,0.431,7.041,-6.227,-11.73,-0.144,7.046,-6.615,0.0,41.056,11.73
0.24,0.335,7.233,6.467,-11.73,0.527,7.089,-6.131,-11.73,-0.144,7.046,-6.615,0.0,41.056,11.73
0.245,0.287,7.233,6.419,-11.73,0.527,7.089,-6.083,-11.73,-0.144,7.19,-6.471,0.0,41.056,11.73
0.25,0.287,7.233,6.419,-11.73,0.479,7.137,-6.035,-11.73,-0.288,7.19,-6.471,0.0,41.056,11.73
0.255,0.335,7.76,6.275,-11.73,0.479,8.383,-5.7,-11.73,-0.288,7.19,-6.471,0.0,41.056,17.595
0.26,-0.192,11.304,5.317,-11.73,1.102,10.442,-5.03,-11.73,-0.144,7.334,-6.327,0.0,41.056,17.595
0.265,-0.24,9.149,5.94,-11.73,0.766,8.526,-5.7,-5.865,-0.144,9.059,-5.752,0.0,41.056,17.595
0.27,0.048,10.155,5.413,-0.0,1.006,9.963,-4.838,5.865,-0.575,9.491,-5.608,0.0,41.056,11.73
0.275,-0.335,10.107,5.173,11.73,0.958,9.005,-4.982,17.595,-0.288,8.484,-6.04,0.0,35.191,5.865
0.28,0.144,8.43,5.556,17.595,0.479,7.856,-5.269,17.595,-0.719,9.778,-5.033,-5.865,29.326,-5.865
0.28500000000000003,0.096,7.856,5.413,17.595,0.671,7.52,-5.03,17.595,-0.431,8.484,-5.464,-11.73,29.326,-11.73
0.29,-0.048,7.664,5.269,17.595,0.814,7.664,-4.886,17.595,-0.144,7.621,-5.464,-17.595,23.46,-11.73
0.295,0.0,7.664,5.125,11.73,0.862,7.951,-4.79,11.73,-0.288,7.478,-5.321,-23.46,23.46,-17.595
0.3,-0.048,7.712,5.125,11.73,0.862,8.047,-4.838,11.73,-0.575,8.053,-5.177,-23.46,17.595,-11.73
0.305,0.0,7.712,5.221,11.73,0.766,7.904,-4.934,11.73,-0.575,8.484,-5.033,-23.46,17.595,-5.865
0.31,0.048,7.568,5.365,11.73,0.719,7.664,-5.125,11.73,-0.575,8.34,-5.177,-23.46,17.595,-5.865
0.315,0.096,7.377,5.556,5.865,0.719,7.52,-5.317,5.865,-0.431,8.197,-5.321,-11.73,17.595,-5.865
0.32,0.048,7.329,5.7,5.865,0.814,7.52,-5.365,5.865,-0.431,7.909,-5.464,-11.73,17.595,-5.865
0.325,0.0,7.425,5.748,-0.0,0.958,7.568,-5.413,5.865,-0.575,7.765,-5.608,-5.865,17.595,-5.865
0.33,-0.096,7.616,5.796,-0.0,0.958,7.664,-5.509,5.865,-0.719,7.765,-5.752,-5.865,17.595,0.0
0.335,-0.096,7.76,5.844,-0.0,0.958,7.712,-5.509,5.865,-0.719,7.909,-5.752,0.0,17.595,0.0
0.34,-0.096,7.76,5.892,5.865,0.91,7.712,-5.509,5.865,-0.719,7.909,-5.752,0.0,17.595,0.0
0.34500000000000003,-0.096,7.712,5.844,5.865,0.91,7.616,-5.556,5.865,-0.719,7.909,-5.896,0.0,17.595,0.0
0.35000000000000003,-0.096,7.616,5.94,5.865,0.862,7.52,-5.604,5.865,-0.719,7.909,-5.896,0.0,17.595,0.0
0.355,-0.096,7.568,5.988,5.865,0.91,7.425,-5.7,5.865,-0.719,7.765,-5.896,0.0,17.595,0.0
0.36,-0.144,7.616,6.083,5.865,0.958,7.377,-5.748,11.73,-0.575,7.621,-5.896,0.0,17.595,-5.865
0.365,-0.192,7.664,6.179,5.865,1.006,7.281,-5.844,11.73,-0.719,7.478,-6.04,0.0,17.595,-5.865
0.37,-0.24,7.664,6.275,5.865,1.006,7.233,-5.94,11.73,-0.719,7.334,-6.183,0.0,17.595,-5.865
0.375,-0.24,7.568,6.371,5.865,1.006,7.185,-6.035,11.73,-0.719,7.19,-6.183,0.0,17.595,-5.865
0.38,-0.287,7.52,6.419,5.865,1.054,7.185,-6.083,11.73,-0.719,7.19,-6.327,0.0,17.595,-5.865
0.385,-0.24,7.52,6.514,11.73,1.006,7.137,-6.179,11.73,-0.719,7.19,-6.471,0.0,11.73,-5.865
0.39,-0.24,7.425,6.562,11.73,1.006,7.137,-6.227,11.73,-0.719,7.19,-6.471,-5.865,11.73,-5.865
0.395,-0.192,7.329,6.61,11.73,1.006,7.137,-6.275,11.73,-0.719,7.19,-6.471,-5.865,11.73,-11.73
0.4,-0.096,7.281,6.658,11.73,0.958,7.137,-6.323,11.73,-0.719,7.19,-6.615,-11.73,11.73,-11.73
0.405,-0.096,7.233,6.658,11.73,0.958,7.137,-6.323,11.73,-0.719,7.19,-6.615,-11.73,11.73,-5.865
0.41000000000000003,-0.144,7.185,6.61,11.73,1.006,7.137,-6.275,11.73,-0.719,7.19,-6.615,-11.73,11.73,-11.73
0.41500000000000004,-0.144,7.185,6.61,5.865,1.006,7.137,-6.275,11.73,-0.719,7.334,-6.615,-11.73,11.73,-11.73
0.42,-0.144,7.233,6.562,11.73,0.958,7.185,-6.227,11.73,-0.719,7.334,-6.615,-11.73,11.73,-5.865
0.425,-0.096,7.281,6.61,11.73,0.91,7.233,-6.275,11.73,-0.719,7.334,-6.615,-11.73,11.73,-5.865
0.43,-0.096,7.377,6.61,11.73,0.91,7.281,-6.323,11.73,-0.719,7.334,-6.615,-11.73,11.73,-5.865
0.435,-0.096,7.377,6.658,5.865,0.91,7.329,-6.371,11.73,-0.719,7.478,-6.615,-11.73,11.73,-5.865
0.44,-0.096,7.377,6.706,5.865,0.958,7.377,-6.371,5.865,-0.719,7.478,-6.615,-11.73,11.73,-5.865
0.445,-0.144,7.377,6.706,5.865,1.006,7.377,-6.371,5.865,-0.719,7.478,-6.759,-11.73,11.73,-5.865
0.45,-0.096,7.425,6.658,5.865,1.006,7.425,-6.323,5.865,-0.719,7.478,-6.759,-5.865,11.73,-5.865
0.455,-0.096,7.472,6.61,-0.0,0.958,7.472,-6.275,5.865,-0.719,7.621,-6.759,-5.865,11.73,0.0
0.46,-0.096,7.472,6.562,-0.0,0.958,7.425,-6.227,0.0,-0.863,7.621,-6.615,-5.865,11.73,0.0
0.465,-0.048,7.425,6.562,-0.0,0.958,7.425,-6.227,5.865,-0.719,7.621,-6.615,-5.865,11.73,0.0
0.47000000000000003,-0.096,7.472,6.514,-0.0,0.958,7.377,-6.179,5.865,-0.719,7.621,-6.615,-5.865,11.73,0.0
0.47500000000000003,-0.096,7.472,6.514,-0.0,0.958,7.329,-6.131,0.0,-0.719,7.478,-6.615,-5.865,11.73,0.0
0.48,-0.096,7.425,6.467,-0.0,0.91,7.281,-6.131,0.0,-0.719,7.478,-6.471,0.0,11.73,0.0
0.485,-0.096,7.377,6.419,-0.0,0.91,7.185,-6.083,0.0,-0.719,7.478,-6.471,0.0,11.73,5.865
0.49,-0.096,7.329,6.419,-0.0,0.91,7.089,-6.083,0.0,-0.719,7.334,-6.471,0.0,17.595,5.865
0.495,-0.096,7.281,6.514,-0.0,0.91,6.993,-6.227,0.0,-0.719,7.334,-6.327,0.0,11.73,5.865
0.5,-0.096,7.137,6.562,-5.865,0.91,6.898,-6.227,0.0,-0.719,7.19,-6.471,0.0,11.73,5.865
0.505,-0.096,7.089,6.514,-5.865,0.91,6.898,-6.131,-5.865,-0.575,7.046,-6.615,-5.865,17.595,5.865
0.51,-0.096,7.041,6.514,-5.865,0.862,6.898,-6.179,-5.865,-0.719,6.902,-6.471,-5.865,11.73,5.865
0.515,-0.096,6.946,6.514,-5.865,0.814,6.898,-6.179,-5.865,-0.719,6.902,-6.471,-5.865,11.73,5.865
0.52,-0.048,6.946,6.562,-5.865,0.862,6.85,-6.227,-5.865,-0.575,7.046,-6.471,-5.865,11.73,5.865
0.525,-0.096,6.85,6.658,-5.865,0.958,6.802,-6.371,-5.865,-0.575,7.046,-6.471,-5.865,11.73,5.865
0.53,-0.144,6.85,6.754,-5.865,0.958,6.802,-6.419,-5.865,-0.719,7.046,-6.615,-5.865,11.73,5.865
0.535,-0.144,6.898,6.802,-11.73,1.006,6.802,-6.467,-5.865,-0.719,6.902,-6.759,-5.865,11.73,11.73
0.54,-0.144,6.85,6.802,-5.865,1.006,6.802,-6.467,-5.865,-0.863,6.902,-6.759,-5.865,11.73,11.73
0.545,-0.192,6.898,6.754,-11.73,1.054,6.85,-6.419,-5.865,-0.863,6.902,-6.759,-5.865,11.73,11.73
0.55,-0.192,6.946,6.706,-5.865,1.006,6.898,-6.371,-5.865,-0.863,6.902,-6.759,-5.865,17.595,11.73
0.555,-0.192,6.993,6.61,-5.865,1.006,6.946,-6.275,-5.865,-0.863,7.046,-6.759,0.0,17.595,11.73
0.56,-0.192,7.041,6.514,-5.865,1.006,6.993,-6.179,-5.865,-0.719,7.046,-6.615,0.0,17.595,11.73
0.5650000000000001,-0.192,7.089,6.514,-5.865,0.91,7.089,-6.131,-5.865,-0.719,7.19,-6.615,0.0,17.595,11.73
0.5700000000000001,-0.144,7.233,6.467,-5.865,0.91,7.185,-6.083,-5.865,-0.719,7.19,-6.471,0.0,17.595,11.73
0.5750000000000001,-0.144,7.329,6.419,-5.865,0.958,7.233,-6.035,-5.865,-0.719,7.334,-6.471,0.0,17.595,5.865
0.58,-0.24,7.377,6.419,-5.865,1.102,7.233,-6.035,-5.865,-0.719,7.334,-6.471,0.0,17.595,5.865
0.585,-0.24,7.329,6.419,-5.865,1.006,7.185,-6.035,-5.865,-0.863,7.334,-6.327,0.0,17.595,11.73
0.59,-0.192,7.425,6.371,-5.865,1.006,7.185,-6.035,-5.865,-0.863,7.334,-6.327,0.0,17.595,11.73
0.595,-0.24,7.472,6.323,-5.865,1.054,7.185,-5.94,0.0,-0.719,7.19,-6.327,0.0,11.73,5.865
0.6,-0.24,7.472,6.275,-5.865,1.054,7.185,-5.94,-5.865,-0.719,7.19,-6.327,0.0,11.73,5.865
0.605,-0.24,7.425,6.275,-5.865,1.054,7.233,-5.892,-5.865,-0.719,7.19,-6.327,0.0,11.73,5.865
0.61,-0.192,7.52,6.227,-5.865,1.054,7.281,-5.844,-5.865,-0.719,7.334,-6.327,0.0,11.73,5.865
0.615,-0.24,7.568,6.131,-5.865,1.102,7.377,-5.748,-5.865,-0.863,7.334,-6.183,-5.865,11.73,11.73
0.62,-0.24,7.664,5.988,-5.865,1.15,7.472,-5.556,-5.865,-0.863,7.334,-6.183,-5.865,11.73,5.865
0.625,-0.192,7.664,5.652,-5.865,1.198,7.616,-5.173,-5.865,-1.007,7.478,-6.04,-5.865,11.73,5.865
0.63,-0.24,7.712,5.269,-11.73,1.15,7.76,-4.79,-5.865,-1.007,7.478,-5.896,-5.865,11.73,11.73
0.635,-0.24,7.712,4.694,-11.73,1.054,7.904,-4.215,-5.865,-1.007,7.909,-5.464,-5.865,11.73,11.73
0.64,-0.24,7.664,4.167,-11.73,1.006,8.095,-3.688,-5.865,-0.863,8.053,-5.033,-5.865,17.595,11.73
0.645,-0.24,7.856,3.593,-5.865,0.814,8.335,-3.161,-5.865,-0.863,8.34,-4.458,-5.865,17.595,11.73
0.65,-0.192,7.999,3.209,-5.865,0.575,8.622,-2.73,-5.865,-0.719,8.628,-3.883,-5.865,17.595,11.73
0.655,-0.096,8.239,2.778,-5.865,0.527,8.862,-2.395,-5.865,-0.288,8.916,-3.307,0.0,17.595,11.73
0.66,-0.192,8.622,2.443,-5.865,0.623,9.053,-2.06,-5.865,0.0,9.203,-3.02,0.0,11.73,11.73
0.665,-0.24,8.957,2.347,-5.865,0.575,9.149,-2.012,0.0,0.0,9.347,-2.588,17.595,5.865,11.73
0.67,-0.24,9.149,2.443,-5.865,0.623,9.197,-2.108,0.0,0.0,9.491,-2.445,23.46,0.0,5.865
0.675,-0.335,9.436,2.587,-0.0,0.719,9.197,-2.299,0.0,0.0,9.347,-2.445,29.326,-5.865,5.865
0.68,-0.287,9.724,2.778,5.865,0.719,9.197,-2.491,5.865,0.0,9.347,-2.588,35.191,-11.73,5.865
0.685,-0.383,10.059,3.018,5.865,0.814,9.293,-2.778,11.73,0.0,9.059,-2.732,35.191,-17.595,0.0
0.6900000000000001,-0.431,10.203,3.305,11.73,0.91,9.341,-3.066,11.73,-0.144,8.916,-2.876,29.326,-29.326,0.0
0.6950000000000001,-0.383,10.155,3.593,17.595,0.862,9.341,-3.353,17.595,-0.144,8.916,-3.164,23.46,-35.191,-5.865
0.7000000000000001,-0.335,9.915,3.88,23.46,0.862,9.293,-3.688,23.46,-0.288,8.916,-3.451,17.595,-41.056,-11.73
0.705,-0.144,9.484,4.263,29.326,0.719,9.101,-4.072,29.326,-0.288,8.916,-3.739,11.73,-46.921,-17.595
0.71,-0.048,9.053,4.694,29.326,0.671,8.909,-4.503,29.326,-0.288,9.059,-4.17,0.0,-52.786,-23.46
0.715,0.0,8.622,5.125,35.191,0.671,8.718,-4.982,35.191,-0.288,9.059,-4.458,0.0,-58.651,-23.46
0.72,0.096,8.143,5.7,29.326,0.719,8.43,-5.556,35.191,-0.288,9.059,-5.033,-5.865,-64.516,-29.326
0.725,0.096,7.904,6.371,29.326,0.766,8.239,-6.275,29.326,-0.288,9.059,-5.464,0.0,-64.516,-35.191
0.73,0.048,7.856,7.185,29.326,0.814,8.095,-7.137,29.326,-0.431,8.916,-6.04,0.0,-70.381,-29.326
0.735,0.0,7.808,8.143,23.46,0.766,7.856,-8.143,29.326,-0.431,8.628,-6.759,0.0,-70.381,-23.46
0.74,0.048,7.76,9.245,23.46,0.719,7.664,-9.293,23.46,-0.575,8.34,-7.765,11.73,-70.381,-23.46
0.745,0.192,7.664,10.394,23.46,0.766,7.377,-10.49,23.46,-0.431,8.197,-8.772,17.595,-70.381,-23.46
0.75,0.192,7.472,11.64,23.46,0.91,7.041,-11.783,23.46,-0.431,7.765,-9.922,17.595,-70.381,-23.46
0.755,0.287,7.233,12.933,23.46,1.102,6.61,-12.981,23.46,-0.719,7.478,-11.073,23.46,-70.381,-23.46
0.76,0.192,6.85,14.035,17.595,1.437,6.083,-14.083,17.595,-0.863,6.902,-12.367,23.46,-70.381,-17.595
0.765,0.144,6.275,15.041,17.595,1.629,5.556,-14.993,17.595,-1.294,6.327,-13.517,17.595,-70.381,-17.595
0.77,0.24,5.652,15.807,11.73,1.772,4.982,-15.711,11.73,-1.869,5.896,-14.524,11.73,-64.516,-17.595
0.775,0.192,5.125,16.334,11.73,1.964,4.551,-16.142,11.73,-2.157,5.321,-15.387,0.0,-52.786,-11.73
0.78,0.24,4.694,16.573,5.865,2.012,4.167,-16.334,5.865,-2.588,4.889,-16.106,0.0,-41.056,-11.73
0.785,0.192,4.024,16.573,5.865,2.012,3.688,-16.286,5.865,-2.876,4.458,-16.393,0.0,-29.326,-5.865
0.79,0.335,3.64,16.382,-5.865,1.868,3.449,-16.047,0.0,-2.876,4.17,-16.537,-5.865,-11.73,0.0
0.795,0.383,3.497,15.951,-5.865,1.629,3.449,-15.52,-5.865,-2.876,3.739,-16.393,-5.865,5.865,0.0
0.8,0.527,3.64,15.376,-11.73,1.437,3.64,-14.945,-17.595,-2.732,3.739,-16.106,-5.865,23.46,5.865
0.805,0.479,3.88,14.657,-17.595,1.389,3.832,-14.226,-17.595,-2.445,3.739,-15.674,-5.865,46.921,11.73
0.81,0.527,4.119,13.891,-23.46,1.198,4.119,-13.412,-23.46,-2.157,4.026,-14.955,-5.865,64.516,23.46
0.8150000000000001,0.575,4.407,13.029,-29.326,1.006,4.359,-12.55,-29.326,-2.013,4.17,-14.236,-5.865,82.111,23.46
0.8200000000000001,0.623,4.742,12.167,-35.191,0.91,4.742,-11.688,-29.326,-1.726,4.458,-13.517,-5.865,93.842,29.326
0.8250000000000001,0.719,5.269,11.257,-35.191,0.91,5.173,-10.778,-35.191,-1.438,4.745,-12.654,0.0,105.572,29.326
0.8300000000000001,0.527,5.796,10.299,-35.191,0.91,5.556,-9.82,-35.191,-1.438,5.033,-11.792,0.0,117.302,35.191
0.835,0.335,6.083,9.149,-41.056,0.766,5.94,-8.622,-35.191,-1.294,5.464,-10.929,0.0,129.032,35.191
0.84,0.335,6.179,7.76,-35.191,0.623,6.179,-7.185,-35.191,-1.007,5.752,-9.922,0.0,140.762,41.056
0.845,0.383,6.179,6.227,-35.191,0.383,6.514,-5.652,-35.191,-0.719,6.183,-8.772,0.0,146.628,41.056
0.85,0.479,6.371,4.646,-35.191,0.096,6.85,-4.119,-29.326,-0.575,6.615,-7.19,-5.865,152.493,35.191
0.855,0.575,6.562,3.209,-35.191,-0.192,7.233,-2.635,-35.191,-0.144,7.046,-5.752,0.0,158.358,35.191
0.86,0.671,6.85,1.82,-41.056,-0.383,7.76,-1.293,-41.056,0.288,7.478,-4.17,0.0,158.358,35.191
0.865,0.671,7.425,0.479,-46.921,-0.431,8.383,0.048,-46.921,0.719,8.053,-2.732,11.73,158.358,41.056
0.87,0.479,8.287,-0.719,-52.786,-0.335,9.101,1.198,-52.786,1.007,8.628,-1.438,17.595,152.493,46.921
0.875,0.0,9.58,-2.012,-58.651,-0.24,10.059,2.97,-58.651,1.15,9.203,-0.144,29.326,146.628,52.786
0.88,-1.724,14.035,-5.652,-58.651,-0.335,12.071,6.467,-58.651,1.15,9.778,1.007,35.191,140.762,58.651
0.885,0.719,13.029,-5.892,-52.786,-0.958,12.837,5.988,-52.786,2.157,9.778,3.595,46.921,129.032,64.516
0.89,0.144,12.502,-6.083,-46.921,-0.383,13.125,6.514,-41.056,2.732,11.073,6.327,41.056,111.437,58.651
0.895,-0.383,12.885,-6.61,-35.191,0.096,13.077,6.993,-35.191,1.726,13.373,5.608,23.46,82.111,52.786
0.9,-0.575,12.694,-6.419,-29.326,0.096,12.406,6.419,-23.46,1.582,13.517,6.471,23.46,64.516,46.921
0.905,0.24,10.634,-5.125,-11.73,-0.096,11.257,5.173,-5.865,1.438,12.798,6.759,23.46,46.921,35.191
0.91,-0.766,11.161,-4.455,-5.865,0.527,11.209,4.694,5.865,1.007,12.367,5.896,29.326,23.46,23.46
0.915,-1.102,12.789,-4.311,5.865,0.335,11.304,4.455,11.73,1.007,11.648,4.745,35.191,5.865,11.73
0.92,-0.479,12.215,-3.593,17.595,0.048,10.969,3.688,23.46,1.15,10.497,4.458,41.056,-5.865,-5.865
0.925,-0.575,11.688,-3.066,29.326,0.24,10.634,3.305,29.326,1.15,10.354,4.026,35.191,-23.46,-11.73
0.93,-0.623,11.736,-2.874,35.191,0.479,10.346,3.066,35.191,1.294,10.21,3.164,23.46,-46.921,-23.46
0.935,-0.719,11.544,-2.395,46.921,0.479,9.915,2.491,46.921,0.863,9.922,3.02,11.73,-64.516,-35.191
0.9400000000000001,-0.623,11.113,-1.677,52.786,0.431,9.58,1.724,58.651,0.719,9.347,2.588,0.0,-76.246,-41.056
0.9450000000000001,-0.335,10.538,-1.006,64.516,0.192,9.197,1.006,70.381,0.719,8.916,2.013,-11.73,-93.842,-46.921
0.9500000000000001,0.048,9.82,-0.144,76.246,-0.096,8.67,0.096,76.246,0.719,8.628,1.15,-29.326,-111.437,-58.651
0.9550000000000001,0.144,8.909,0.766,82.111,-0.192,8.335,-0.958,82.111,0.863,8.34,0.431,-41.056,-123.167,-70.381
0.96,0.383,8.047,1.82,82.111,-0.335,7.999,-2.012,82.111,1.007,8.197,-0.719,-52.786,-140.762,-76.246
0.965,0.623,7.137,2.97,82.111,-0.479,7.568,-3.305,82.111,1.007,8.197,-1.726,-58.651,-146.628,-82.111
0.97,0.862,6.083,4.503,82.111,-0.431,7.041,-4.934,76.246,1.15,8.34,-2.876,-64.516,-158.358,-82.111
0.975,0.958,5.269,6.323,76.246,-0.144,6.562,-6.754,70.381,1.007,8.197,-4.17,-58.651,-170.088,-82.111
0.98,1.006,4.886,8.335,70.381,0.096,6.227,-8.766,64.516,0.719,8.053,-5.896,-52.786,-175.953,-76.246
0.985,1.006,4.79,10.394,58.651,0.383,5.94,-10.873,52.786,0.144,7.765,-7.765,-41.056,-175.953,-70.381
0.99,0.958,4.79,12.454,46.921,0.766,5.652,-12.885,46.921,-0.288,7.334,-9.778,-23.46,-175.953,-64.516
0.995,1.006,4.886,14.466,41.056,1.198,5.317,-14.849,35.191,-0.719,7.046,-11.792,-5.865,-170.088,-52.786
1.0,0.862,4.934,16.382,29.326,1.677,5.077,-16.669,29.326,-1.438,6.327,-13.661,0.0,-164.223,-46.921
1.0050000000000001,0.766,5.077,18.154,23.46,2.012,4.886,-18.346,23.46,-2.157,5.752,-15.674,23.46,-152.493,-35.191
1.01,0.479,5.317,19.447,17.595,2.443,4.694,-19.495,17.595,-2.876,5.464,-17.4,29.326,-134.897,-23.46
1.0150000000000001,0.192,5.173,20.214,11.73,2.73,4.455,-20.118,11.73,-3.307,5.033,-18.982,35.191,-117.302,-17.595
1.02,0.192,4.886,20.597,11.73,2.826,4.215,-20.405,11.73,-3.739,4.458,-19.988,29.326,-93.842,-11.73
1.025,0.096,4.646,20.501,11.73,2.635,3.976,-20.214,11.73,-4.026,4.314,-20.42,29.326,-70.381,-11.73
1.03,0.431,4.359,20.31,11.73,2.395,3.736,-20.022,11.73,-4.17,4.026,-20.563,23.46,-46.921,-11.73
1.035,0.335,4.311,20.118,11.73,2.156,3.593,-19.783,11.73,-3.883,3.883,-20.42,17.595,-17.595,-11.73
1.04,0.335,4.263,19.495,5.865,1.964,3.449,-19.016,5.865,-3.595,3.595,-20.276,11.73,5.865,-11.73
1.045,0.383,4.024,18.537,-0.0,1.82,3.257,-18.058,5.865,-3.164,3.451,-19.844,0.0,35.191,-5.865
1.05,0.335,3.64,17.436,-0.0,1.533,3.066,-16.861,0.0,-3.02,3.307,-19.125,0.0,52.786,0.0
1.055,0.383,3.209,15.951,-5.865,1.15,2.97,-15.376,-5.865,-2.588,3.164,-18.119,0.0,76.246,0.0
1.06,0.479,2.922,14.322,-11.73,0.766,2.97,-13.652,-11.73,-2.013,3.164,-16.825,-5.865,93.842,5.865
1.065,0.623,2.73,12.598,-23.46,0.479,3.161,-11.975,-17.595,-1.438,3.307,-15.243,-11.73,111.437,11.73
1.07,0.527,3.161,11.017,-29.326,0.383,3.545,-10.442,-29.326,-1.007,3.451,-13.661,-11.73,123.167,23.46
1.075,0.671,3.64,9.484,-41.056,-0.048,4.024,-8.909,-41.056,-0.719,3.883,-12.079,-11.73,129.032,29.326
1.08,0.719,4.311,7.951,-46.921,-0.287,4.694,-7.425,-52.786,-0.431,4.026,-10.497,-5.865,134.897,35.191
1.085,0.719,5.173,6.419,-58.651,-0.383,5.413,-5.796,-58.651,0.288,4.602,-9.059,0.0,140.762,46.921
1.09,0.623,5.988,4.838,-58.651,-0.287,6.131,-4.263,-58.651,0.719,5.177,-7.478,0.0,146.628,58.651
1.095,0.527,6.754,3.449,-64.516,-0.383,6.85,-2.874,-58.651,0.863,5.896,-5.896,0.0,146.628,58.651
1.1,0.575,7.425,2.203,-58.651,-0.527,7.425,-1.677,-58.651,0.863,6.471,-4.314,11.73,140.762,64.516
1.105,0.479,8.047,1.198,-58.651,-0.527,7.904,-0.719,-52.786,1.15,7.046,-3.02,11.73,134.897,64.516
1.11,0.383,8.574,0.383,-52.786,-0.431,8.383,0.096,-52.786,1.294,7.621,-1.869,17.595,129.032,58.651
1.115,0.335,9.197,-0.287,-52.786,-0.383,8.862,0.719,-46.921,1.438,7.909,-1.007,11.73,123.167,58.651
1.12,0.192,9.676,-0.766,-46.921,-0.335,9.293,1.15,-46.921,1.438,8.34,-0.144,11.73,111.437,52.786
1.125,0.24,10.011,-1.054,-41.056,-0.287,9.676,1.389,-41.056,1.438,8.772,0.575,11.73,99.707,46.921
1.1300000000000001,0.192,10.346,-1.198,-41.056,-0.287,10.059,1.533,-41.056,1.294,9.203,0.863,0.0,87.977,46.921
1.135,0.096,10.586,-1.198,-35.191,-0.144,10.346,1.485,-35.191,1.294,9.491,1.15,0.0,76.246,46.921
1.1400000000000001,0.0,10.73,-1.054,-29.326,0.096,10.586,1.341,-29.326,1.294,9.922,1.294,-5.865,64.516,41.056
1.145,-0.048,10.825,-0.814,-23.46,0.192,10.538,1.054,-17.595,1.15,10.354,1.15,-5.865,52.786,35.191
1.1500000000000001,0.0,10.538,-0.383,-17.595,0.24,10.442,0.623,-11.73,0.863,10.497,1.007,-11.73,41.056,29.326
1.155,-0.096,10.346,0.048,-11.73,0.431,10.059,0.144,-5.865,0.719,10.497,0.575,-11.73,23.46,23.46
1.16,0.0,10.011,0.671,-5.865,0.383,9.772,-0.431,-5.865,0.575,10.354,0.288,-11.73,17.595,17.595
1.165,-0.096,9.724,1.102,-5.865,0.527,9.532,-0.814,0.0,0.288,9.922,-0.288,-11.73,5.865,11.73
1.17,-0.144,9.388,1.485,-0.0,0.575,9.245,-1.293,5.865,0.288,9.778,-0.863,-11.73,-5.865,5.865
1.175,-0.048,8.862,2.06,5.865,0.527,8.957,-1.868,5.865,0.144,9.491,-1.294,-17.595,-11.73,0.0
1.18,-0.048,8.383,2.539,5.865,0.719,8.622,-2.347,5.865,0.0,9.347,-1.869,-17.595,-17.595,0.0
1.185,-0.048,8.047,3.161,11.73,0.719,8.287,-2.97,11.73,-0.144,9.203,-2.301,-17.595,-23.46,-5.865
1.19,0.048,7.664,3.832,11.73,0.671,7.856,-3.688,17.595,-0.431,8.916,-2.876,-11.73,-29.326,-5.865
1.195,0.144,7.377,4.551,17.595,0.719,7.425,-4.359,17.595,-0.431,8.484,-3.451,-5.865,-29.326,-11.73
1.2,0.096,7.185,5.125,17.595,0.766,6.993,-4.982,17.595,-0.431,8.053,-4.17,0.0,-35.191,-11.73
1.205,0.144,7.089,5.748,11.73,0.814,6.754,-5.556,17.595,-0.575,7.478,-4.889,0.0,-35.191,-17.595
1.21,0.048,7.041,6.275,11.73,1.006,6.658,-5.94,11.73,-0.719,6.902,-5.464,0.0,-35.191,-11.73
1.215,-0.144,6.946,6.61,11.73,1.15,6.562,-6.371,11.73,-0.719,6.615,-6.04,0.0,-35.191,-11.73
1.22,-0.096,6.802,6.993,5.865,1.054,6.514,-6.754,5.865,-1.007,6.615,-6.471,0.0,-29.326,-11.73
1.225,0.048,6.706,7.52,5.865,0.958,6.419,-7.281,5.865,-1.15,6.471,-6.759,0.0,-29.326,-5.865
1.23,-0.335,6.993,7.856,5.865,1.198,6.658,-7.616,5.865,-0.863,6.471,-7.19,-5.865,-29.326,-5.865
1.235,0.048,6.898,8.287,-0.0,1.054,6.61,-8.095,5.865,-0.863,6.471,-7.765,-5.865,-23.46,-5.865
1.24,-0.144,6.993,8.718,-0.0,1.389,6.754,-8.526,5.865,-1.007,6.615,-8.053,-5.865,-23.46,0.0
1.245,-0.24,7.377,9.053,5.865,1.437,6.946,-8.766,5.865,-1.15,6.759,-8.484,-11.73,-23.46,0.0
1.25,-0.144,7.568,9.245,-0.0,1.245,6.993,-8.909,0.0,-1.438,6.759,-8.916,-11.73,-17.595,0.0
1.2550000000000001,-0.096,7.329,9.149,-5.865,1.15,6.898,-8.814,0.0,-1.438,6.759,-9.203,-11.73,-11.73,0.0
1.26,-0.144,7.041,8.909,-5.865,1.293,6.802,-8.478,0.0,-1.15,6.902,-9.203,-17.595,-11.73,5.865
1.2650000000000001,-0.144,6.706,8.574,-5.865,1.245,6.706,-8.191,0.0,-1.15,6.902,-9.059,-23.46,-5.865,5.865
1.27,-0.048,6.467,8.383,-5.865,1.054,6.562,-7.999,-5.865,-1.294,6.902,-8.628,-23.46,-5.865,5.865
1.2750000000000001,-0.048,6.227,8.191,-5.865,1.054,6.371,-7.856,-5.865,-1.15,6.902,-8.484,-23.46,0.0,5.865
1.28,-0.096,6.035,8.047,-5.865,1.054,6.275,-7.712,-5.865,-1.007,6.759,-8.34,-23.46,0.0,5.865
1.285,-0.048,5.988,7.951,-11.73,0.958,6.275,-7.568,-5.865,-1.007,6.615,-8.053,-23.46,5.865,11.73
1.29,-0.048,6.035,7.76,-11.73,0.958,6.371,-7.377,-11.73,-1.007,6.615,-7.909,-17.595,11.73,11.73
1.295,0.0,6.227,7.568,-17.595,0.958,6.371,-7.185,-17.595,-0.863,6.759,-7.909,-11.73,11.73,11.73
1.3,-0.096,6.323,7.377,-17.595,1.006,6.371,-6.993,-17.595,-0.863,6.759,-7.621,-11.73,17.595,17.595
1.305,-0.048,6.371,7.185,-17.595,0.91,6.371,-6.754,-17.595,-0.863,6.615,-7.478,-5.865,17.595,17.595
1.31,-0.144,8.335,6.658,-23.46,0.91,7.999,-6.179,-23.46,-0.863,6.615,-7.334,0.0,23.46,23.46
1.315,-0.479,13.364,6.083,-29.326,1.389,12.167,-5.365,-29.326,-0.719,6.615,-7.046,0.0,23.46,23.46
1.32,-1.389,13.747,4.79,-35.191,2.06,12.502,-4.359,-35.191,-0.431,8.053,-6.471,0.0,23.46,29.326
1.325,-1.293,12.502,4.263,-17.595,1.916,11.161,-3.88,-5.865,-0.863,11.792,-5.177,-11.73,23.46,35.191
1.33,-0.862,9.724,4.167,17.595,1.293,8.957,-3.928,29.326,-1.438,11.792,-4.602,-29.326,11.73,29.326
1.335,-0.287,7.951,4.311,41.056,0.814,7.951,-3.976,41.056,-1.294,10.21,-4.17,-35.191,5.865,0.0
1.34,-0.192,7.616,4.455,35.191,0.862,7.904,-4.263,35.191,-0.719,8.628,-4.314,-41.056,0.0,-35.191
1.345,-0.287,7.904,5.03,23.46,1.006,8.095,-4.886,23.46,-0.431,8.197,-4.458,-46.921,-5.865,-41.056
1.35,-0.192,7.664,5.461,11.73,1.198,7.999,-5.173,11.73,-0.575,8.34,-4.745,-41.056,-11.73,-23.46
1.355,-0.335,7.185,5.7,-0.0,1.293,7.76,-5.509,5.865,-0.719,8.484,-5.321,-35.191,-11.73,-11.73
1.36,-0.383,7.472,6.083,-0.0,1.389,7.904,-5.796,0.0,-1.15,8.484,-5.608,-35.191,-11.73,-5.865
1.365,-0.335,7.904,6.323,-5.865,1.293,8.191,-6.083,-11.73,-1.15,8.34,-5.896,-29.326,-11.73,0.0
1.37,-0.431,8.335,6.61,-11.73,1.341,8.335,-6.323,-11.73,-1.294,8.34,-6.183,-23.46,-11.73,5.865
1.375,-0.383,8.478,6.802,-17.595,1.341,8.335,-6.514,-11.73,-1.15,8.484,-6.471,-17.595,-11.73,11.73
1.3800000000000001,-0.431,8.43,6.946,-17.595,1.485,8.143,-6.658,-11.73,-1.007,8.484,-6.759,-11.73,-5.865,17.595
1.385,-0.527,8.143,7.089,-11.73,1.581,7.951,-6.802,-11.73,-1.15,8.34,-6.902,-11.73,-5.865,17.595
1.3900000000000001,-0.431,7.808,7.329,-11.73,1.437,7.712,-6.993,-5.865,-1.438,8.197,-7.046,-11.73,-5.865,17.595
1.395,-0.383,7.568,7.377,-5.865,1.341,7.425,-7.089,0.0,-1.438,8.053,-7.19,-11.73,-5.865,11.73
1.4000000000000001,-0.335,7.329,7.425,-0.0,1.293,7.281,-7.089,0.0,-1.294,7.765,-7.334,-11.73,-5.865,5.865
1.405,-0.287,7.233,7.377,-0.0,1.245,7.185,-7.041,5.865,-1.294,7.621,-7.334,-11.73,-5.865,5.865
1.41,-0.287,7.185,7.377,-0.0,1.245,7.137,-7.041,5.865,-1.15,7.478,-7.334,-11.73,0.0,5.865
1.415,-0.287,7.137,7.329,-0.0,1.245,7.089,-6.946,5.865,-1.15,7.334,-7.334,-11.73,0.0,0.0
1.42,-0.383,7.089,7.233,5.865,1.293,7.041,-6.85,5.865,-1.15,7.334,-7.334,-11.73,0.0,0.0
1.425,-0.431,7.089,7.089,5.865,1.245,6.993,-6.706,5.865,-1.15,7.334,-7.19,-5.865,5.865,0.0
1.43,-0.335,7.137,6.946,5.865,1.15,6.946,-6.562,5.865,-1.15,7.19,-7.19,-5.865,5.865,0.0
1.435,-0.287,7.185,6.754,5.865,1.054,6.946,-6.371,5.865,-1.007,7.046,-7.046,-5.865,5.865,0.0
1.44,-0.24,7.233,6.562,5.865,1.006,7.041,-6.179,11.73,-1.007,7.046,-6.759,-5.865,5.865,-5.865
1.445,-0.24,7.329,6.371,5.865,1.006,7.137,-6.035,5.865,-0.863,7.046,-6.615,-5.865,5.865,-5.865
1.45,-0.24,7.425,6.323,5.865,1.006,7.281,-5.94,5.865,-0.719,7.046,-6.471,-5.865,5.865,-5.865
1.455,-0.24,7.568,6.227,5.865,1.006,7.377,-5.892,5.865,-0.719,7.19,-6.327,-5.865,5.865,-5.865
1.46,-0.192,7.616,6.227,5.865,1.006,7.425,-5.892,5.865,-0.719,7.334,-6.327,-11.73,5.865,-5.865
1.465,-0.192,7.712,6.227,5.865,1.054,7.52,-5.892,5.865,-0.719,7.478,-6.183,-11.73,5.865,-5.865
1.47,-0.24,7.712,6.227,5.865,1.054,7.568,-5.892,5.865,-0.719,7.478,-6.183,-11.73,5.865,-5.865
1.475,-0.24,7.568,6.227,-0.0,1.054,7.52,-5.892,5.865,-0.863,7.621,-6.183,-11.73,5.865,0.0
1.48,-0.192,7.52,6.275,-0.0,1.102,7.52,-5.94,5.865,-0.863,7.765,-6.183,-11.73,5.865,0.0
1.485,-0.24,7.568,6.323,-0.0,1.102,7.568,-5.988,0.0,-0.863,7.765,-6.183,-11.73,5.865,0.0
1.49,-0.24,7.616,6.419,-0.0,1.102,7.568,-6.083,0.0,-0.863,7.765,-6.327,-11.73,5.865,0.0
1.495,-0.24,7.616,6.514,-0.0,1.102,7.52,-6.179,0.0,-0.863,7.765,-6.327,-11.73,5.865,0.0
1.5,-0.24,7.664,6.514,-0.0,1.102,7.52,-6.179,0.0,-0.863,7.765,-6.471,-5.865,5.865,5.865
1.5050000000000001,-0.24,7.664,6.562,-0.0,1.054,7.472,-6.227,0.0,-0.863,7.621,-6.471,-5.865,5.865,0.0
1.51,-0.24,7.616,6.562,-5.865,1.054,7.425,-6.227,0.0,-0.863,7.621,-6.615,-5.865,5.865,5.865
1.5150000000000001,-0.24,7.472,6.562,-5.865,1.102,7.281,-6.275,0.0,-0.863,7.478,-6.615,-5.865,5.865,5.865
1.52,-0.287,7.425,6.61,-5.865,1.15,7.233,-6.323,0.0,-0.863,7.478,-6.615,-5.865,5.865,5.865
1.5250000000000001,-0.287,7.425,6.658,-5.865,1.102,7.233,-6.323,0.0,-1.007,7.334,-6.615,-5.865,5.865,5.865
1.53,-0.287,7.425,6.658,-0.0,1.102,7.233,-6.371,0.0,-0.863,7.334,-6.615,-5.865,5.865,5.865
1.5350000000000001,-0.24,7.377,6.658,-5.865,1.102,7.281,-6.323,0.0,-0.863,7.334,-6.615,-5.865,5.865,5.865
1.54,-0.287,7.377,6.658,-5.865,1.054,7.233,-6.323,0.0,-0.863,7.334,-6.759,-5.865,5.865,5.865
1.545,-0.24,7.377,6.658,-0.0,1.054,7.233,-6.323,0.0,-0.863,7.334,-6.615,-5.865,5.865,5.865
1.55,-0.24,7.329,6.61,-0.0,1.006,7.185,-6.323,0.0,-0.863,7.334,-6.759,-11.73,5.865,5.865
1.555,-0.24,7.233,6.61,-0.0,1.006,7.137,-6.275,0.0,-0.719,7.334,-6.615,-11.73,5.865,5.865
1.56,-0.287,7.233,6.61,-0.0,1.054,7.089,-6.275,0.0,-0.719,7.334,-6.615,-11.73,5.865,0.0
1.565,-0.24,7.185,6.658,-0.0,1.054,7.137,-6.323,5.865,-0.719,7.19,-6.615,-5.865,0.0,0.0
1.57,-0.24,7.233,6.706,-0.0,1.054,7.185,-6.371,5.865,-0.863,7.334,-6.615,-5.865,0.0,0.0
1.575,-0.24,7.329,6.706,-0.0,1.054,7.185,-6.419,5.865,-0.863,7.334,-6.615,-5.865,0.0,0.0
1.58,-0.24,7.281,6.754,-0.0,1.054,7.185,-6.419,5.865,-0.863,7.334,-6.759,-5.865,0.0,0.0
1.585,-0.24,7.185,6.754,5.865,1.054,7.137,-6.419,5.865,-0.863,7.334,-6.759,-5.865,0.0,0.0
1.59,-0.24,7.137,6.706,5.865,1.054,7.041,-6.371,5.865,-0.863,7.334,-6.759,-5.865,0.0,0.0
1.595,-0.24,7.089,6.706,5.865,1.054,6.993,-6.419,5.865,-0.863,7.19,-6.759,-5.865,0.0,0.0
1.6,-0.24,7.089,6.754,-0.0,1.006,7.041,-6.419,5.865,-0.863,7.19,-6.759,-5.865,0.0,0.0
1.605,-0.24,7.185,6.706,-0.0,1.006,7.089,-6.419,5.865,-0.863,7.19,-6.759,-5.865,0.0,0.0
1.61,-0.24,7.281,6.754,-0.0,1.006,7.185,-6.419,5.865,-0.863,7.19,-6.759,-5.865,0.0,0.0
1.615,-0.192,7.377,6.754,-0.0,1.006,7.281,-6.419,5.865,-0.863,7.19,-6.759,-5.865,0.0,0.0
1.62,-0.192,7.472,6.754,-0.0,1.006,7.329,-6.467,5.865,-0.863,7.334,-6.759,0.0,0.0,0.0
1.625,-0.192,7.472,6.802,5.865,1.006,7.377,-6.467,5.865,-0.719,7.478,-6.759,0.0,0.0,0.0
1.6300000000000001,-0.144,7.568,6.802,5.865,1.006,7.472,-6.467,5.865,-0.719,7.478,-6.759,0.0,0.0,0.0
1.635,-0.144,7.712,6.85,5.865,1.006,7.616,-6.514,5.865,-0.719,7.478,-6.759,0.0,0.0,0.0
1.6400000000000001,-0.192,7.808,6.946,-0.0,1.054,7.712,-6.61,5.865,-0.719,7.621,-6.759,0.0,0.0,0.0
1.645,-0.192,7.904,6.993,-0.0,1.15,7.856,-6.706,5.865,-0.719,7.765,-6.902,0.0,0.0,0.0
1.6500000000000001,-0.24,7.999,7.041,5.865,1.245,7.951,-6.706,5.865,-0.863,7.909,-6.902,0.0,0.0,0.0
1.655,-0.287,8.095,7.089,5.865,1.293,8.143,-6.754,5.865,-1.007,8.053,-7.046,0.0,0.0,0.0
1.6600000000000001,-0.287,8.335,7.089,-0.0,1.293,8.287,-6.754,5.865,-1.15,8.197,-7.046,0.0,0.0,0.0
1.665,-0.335,8.478,7.089,-0.0,1.389,8.526,-6.802,5.865,-1.15,8.34,-7.046,0.0,0.0,0.0
1.67,-0.383,8.67,7.137,-0.0,1.389,8.814,-6.85,5.865,-1.15,8.484,-7.046,0.0,0.0,0.0
1.675,-0.383,9.101,7.137,-0.0,1.389,9.293,-6.85,0.0,-1.15,8.772,-7.046,0.0,5.865,0.0
1.68,-0.431,9.628,7.089,-0.0,1.15,9.628,-6.802,0.0,-1.15,9.203,-7.19,0.0,5.865,0.0
1.685,-0.144,9.867,6.993,-0.0,1.102,9.867,-6.61,0.0,-1.15,9.635,-7.19,0.0,5.865,0.0
1.69,-0.527,10.203,6.85,-5.865,1.533,10.394,-6.562,0.0,-0.719,9.778,-7.046,0.0,5.865,0.0
1.695,-0.719,10.73,6.85,-5.865,1.868,11.017,-6.562,-5.865,-0.719,10.21,-6.902,0.0,0.0,5.865
1.7,-0.91,11.448,6.898,-0.0,2.06,11.592,-6.658,0.0,-1.294,10.785,-6.902,0.0,0.0,5.865
1.705,-0.958,12.071,7.089,5.865,2.156,11.927,-6.85,11.73,-1.582,11.36,-6.902,0.0,0.0,5.865
1.71,-0.91,12.215,7.137,23.46,2.156,11.927,-6.85,23.46,-1.726,11.792,-7.046,11.73,0.0,0.0
1.715,-0.91,12.119,7.089,29.326,2.108,11.736,-6.754,35.191,-1.869,11.935,-7.19,17.595,0.0,-11.73
1.72,-0.862,11.783,6.946,41.056,2.012,11.4,-6.61,41.056,-1.869,11.792,-7.19,17.595,-5.865,-23.46
1.725,-0.862,11.304,6.802,46.921,1.964,11.065,-6.467,46.921,-1.726,11.504,-7.046,17.595,-5.865,-35.191
1.73,-0.862,10.969,6.658,46.921,1.964,10.825,-6.323,52.786,-1.726,11.36,-6.902,11.73,-5.865,-41.056
1.735,-0.862,10.634,6.467,52.786,1.964,10.634,-6.131,52.786,-1.726,11.073,-6.759,11.73,-5.865,-46.921
1.74,-0.862,10.394,6.323,52.786,1.964,10.49,-5.988,58.651,-1.726,10.929,-6.615,11.73,-5.865,-46.921
1.745,-0.91,10.155,6.227,58.651,1.964,10.251,-5.892,58.651,-1.726,10.785,-6.471,11.73,-5.865,-52.786
1.75,-0.862,9.82,6.131,58.651,1.916,9.915,-5.796,58.651,-1.726,10.641,-6.327,17.595,-5.865,-52.786
1.7550000000000001,-0.91,9.532,6.083,58.651,1.868,9.628,-5.748,64.516,-1.726,10.497,-6.183,17.595,-5.865,-58.651
1.76,-0.91,9.245,6.035,64.516,1.82,9.197,-5.7,64.516,-1.726,10.066,-6.04,23.46,-5.865,-58.651
1.7650000000000001,-0.862,8.814,6.035,64.516,1.724,8.766,-5.7,70.381,-1.582,9.778,-6.04,23.46,-5.865,-64.516
1.77,-0.862,8.478,6.035,70.381,1.629,8.335,-5.748,70.381,-1.582,9.347,-6.04,29.326,-5.865,-64.516
1.7750000000000001,-0.814,8.095,5.94,70.381,1.629,7.999,-5.652,70.381,-1.438,8.772,-6.04,29.326,-5.865,-64.516
1.78,-0.862,7.712,5.988,70.381,1.533,7.568,-5.652,70.381,-1.294,8.484,-6.04,35.191,-5.865,-70.381
1.7850000000000001,-0.719,7.425,6.083,70.381,1.389,7.041,-5.796,70.381,-1.438,8.053,-6.04,35.191,-11.73,-70.381
1.79,-0.719,6.993,6.227,70.381,1.293,6.61,-5.94,70.381,-1.15,7.478,-6.04,35.191,-11.73,-70.381
1.795,-0.527,6.467,6.371,70.381,1.198,6.035,-6.083,70.381,-1.15,6.902,-6.183,35.191,-11.73,-70.381
1.8,-0.479,5.94,6.514,70.381,1.102,5.556,-6.227,70.381,-1.007,6.471,-6.327,35.191,-11.73,-70.381
1.805,-0.383,5.509,6.658,70.381,1.054,5.125,-6.371,70.381,-1.007,5.896,-6.471,35.191,-17.595,-70.381
1.81,-0.383,5.173,6.802,64.516,1.054,4.742,-6.467,64.516,-0.863,5.464,-6.615,35.191,-17.595,-70.381
1.815,-0.335,4.838,6.898,64.516,0.91,4.455,-6.61,64.516,-0.863,5.033,-6.759,29.326,-17.595,-64.516
1.82,-0.144,4.503,7.041,58.651,0.766,4.167,-6.706,58.651,-0.863,4.745,-6.759,29.326,-11.73,-64.516
1.825,-0.048,4.263,7.137,58.651,0.671,3.928,-6.754,58.651,-0.719,4.458,-6.902,29.326,-11.73,-64.516
1.83,-0.048,4.072,7.137,52.786,0.671,3.688,-6.802,52.786,-0.575,4.17,-7.046,23.46,-11.73,-58.651
1.835,0.0,3.784,7.185,46.921,0.671,3.497,-6.85,46.921,-0.575,3.883,-7.19,23.46,-11.73,-52.786
1.84,0.0,3.545,7.233,41.056,0.671,3.257,-6.898,41.056,-0.575,3.739,-7.19,23.46,-11.73,-46.921
1.845,0.0,3.353,7.329,41.056,0.671,3.066,-6.993,35.191,-0.575,3.451,-7.19,23.46,-11.73,-46.921
1.85,0.0,3.114,7.377,35.191,0.671,2.778,-6.993,35.191,-0.575,3.307,-7.334,17.595,-5.865,-41.056
1.855,0.048,2.73,7.377,29.326,0.575,2.443,-6.993,29.326,-0.719,3.02,-7.334,17.595,-5.865,-35.191
1.86,0.096,2.443,7.377,29.326,0.527,2.156,-6.946,29.326,-0.719,2.732,-7.334,17.595,-5.865,-35.191
1.865,0.048,2.156,7.329,17.595,0.527,1.82,-6.946,23.46,-0.575,2.445,-7.334,17.595,0.0,-23.46
1.87,0.048,1.82,7.281,11.73,0.527,1.485,-6.85,11.73,-0.575,2.157,-7.334,11.73,0.0,-23.46
1.875,0.0,1.437,7.185,5.865,0.527,1.15,-6.754,5.865,-0.575,1.869,-7.334,11.73,5.865,-11.73
1.8800000000000001,0.0,1.054,7.041,-5.865,0.527,0.719,-6.61,-5.865,-0.575,1.438,-7.19,11.73,5.865,-5.865
1.885,0.0,0.671,6.946,-11.73,0.431,0.479,-6.467,-11.73,-0.575,1.15,-7.046,0.0,11.73,0.0
1.8900000000000001,0.096,0.431,6.802,-17.595,0.335,0.287,-6.371,-23.46,-0.575,0.719,-6.902,0.0,11.73,11.73
1.895,0.24,0.383,6.706,-29.326,0.192,0.431,-6.275,-29.326,-0.431,0.575,-6.759,0.0,17.595,17.595
1.9000000000000001,0.287,0.623,6.562,-41.056,0.144,0.623,-6.131,-41.056,-0.431,0.431,-6.759,0.0,17.595,29.326
1.905,0.287,0.91,6.371,-46.921,0.096,0.862,-5.94,-52.786,-0.288,0.719,-6.615,0.0,23.46,35.191
1.9100000000000001,0.287,1.006,6.227,-58.651,0.048,1.006,-5.748,-58.651,-0.144,0.863,-6.471,0.0,23.46,46.921
1.915,0.383,1.15,6.083,-64.516,-0.048,1.293,-5.652,-64.516,0.0,1.007,-6.327,0.0,29.326,52.786
1.92,0.527,1.629,5.892,-64.516,-0.24,1.82,-5.461,-70.381,0.0,1.294,-6.183,0.0,29.326,58.651
1.925,0.575,2.443,5.652,-70.381,-0.383,2.443,-5.269,-70.381,0.288,1.726,-6.04,0.0,29.326,70.381
1.93,0.527,3.066,5.556,-70.381,-0.431,2.778,-5.125,-76.246,0.431,2.157,-5.752,11.73,35.191,70.381
1.935,0.479,3.353,5.461,-76.246,-0.287,3.018,-5.125,-76.246,0.719,2.588,-5.608,11.73,35.191,76.246
1.94,0.383,3.593,5.556,-76.246,-0.24,3.209,-5.221,-76.246,0.719,2.876,-5.464,11.73,35.191,76.246
1.945,0.431,3.928,5.7,-76.246,-0.24,3.353,-5.413,-76.246,0.575,3.02,-5.464,0.0,29.326,76.246
1.95,0.431,4.119,5.94,-76.246,-0.192,3.545,-5.604,-76.246,0.575,3.164,-5.608,0.0,23.46,76.246
1.955,0.479,4.072,6.083,-82.111,-0.144,3.593,-5.748,-82.111,0.719,3.164,-5.896,0.0,23.46,76.246
1.96,0.479,4.072,6.227,-82.111,0.0,3.784,-5.892,-82.111,0.575,3.451,-6.04,0.0,17.595,82.111
1.965,0.479,4.311,6.419,-87.977,0.144,4.167,-6.131,-87.977,0.431,3.595,-6.183,-5.865,17.595,82.111
1.97,0.623,4.551,6.946,-93.842,0.0,4.646,-6.706,-93.842,0.144,3.883,-6.327,-11.73,11.73,87.977
1.975,0.862,4.982,7.329,-99.707,0.048,5.173,-7.041,-99.707,0.0,4.458,-6.615,-17.595,11.73,87.977
1.98,0.958,8.862,7.329,-99.707,10.538,21.555,-8.335,-105.572,0.144,5.033,-7.19,-17.595,11.73,93.842
1.985,-10.49,23.519,0.91,-111.437,4.934,15.855,-2.347,-99.707,-0.144,5.608,-7.334,-17.595,17.595,105.572
1.99,-3.114,24.285,7.041,-11.73,3.209,23.567,-6.658,35.191,-16.825,61.546,-2.445,-11.73,17.595,105.572
1.995,-2.203,24.285,6.419,140.762,4.215,21.411,-6.083,164.223,3.164,8.484,-5.177,23.46,46.921,87.977
2.0,1.15,16.573,4.646,158.358,-0.048,14.514,-3.88,140.762,-3.739,22.145,-6.615,-23.46,5.865,-76.246
2.005,-0.192,9.245,2.012,87.977,1.581,10.299,-1.389,76.246,-2.588,17.544,-6.04,-93.842,-23.46,-170.088
2.0100000000000002,-1.724,7.281,1.581,41.056,2.97,9.772,-1.677,29.326,0.575,14.092,-3.595,-134.897,-35.191,-123.167
2.015,-1.054,7.472,3.688,5.865,2.443,10.203,-4.167,-5.865,-1.869,11.504,-1.582,-140.762,-35.191,-58.651
2.02,-0.671,7.904,6.514,-35.191,2.06,10.155,-6.754,-46.921,-3.02,11.648,-2.588,-129.032,-41.056,-17.595
2.025,-0.862,8.335,7.472,-70.381,2.299,10.203,-7.089,-76.246,-2.445,12.223,-5.321,-99.707,-35.191,17.595
2.0300000000000002,-0.958,8.718,7.377,-87.977,2.635,10.394,-7.233,-99.707,-2.301,11.648,-7.334,-76.246,-29.326,52.786
2.035,-1.341,9.484,7.999,-99.707,3.114,10.682,-7.904,-105.572,-2.445,11.504,-7.334,-52.786,-23.46,82.111
2.04,-1.293,9.963,8.43,-99.707,3.066,10.73,-8.191,-93.842,-2.876,11.504,-7.621,-29.326,-17.595,99.707
2.045,-1.102,9.963,8.43,-82.111,2.635,10.251,-8.047,-76.246,-3.307,11.504,-8.34,-11.73,-11.73,105.572
2.05,-1.006,9.293,7.999,-58.651,2.108,9.341,-7.664,-52.786,-3.164,11.216,-8.484,0.0,0.0,93.842
2.055,-0.671,8.574,7.904,-35.191,1.533,8.287,-7.568,-29.326,-2.588,10.354,-8.197,17.595,5.865,70.381
2.06,-0.431,7.377,7.808,-11.73,1.437,7.377,-7.472,-5.865,-1.726,9.347,-7.909,23.46,11.73,46.921
2.065,-0.383,6.706,7.999,5.865,1.15,6.61,-7.76,11.73,-1.294,8.34,-7.765,29.326,17.595,23.46
2.07,-0.096,6.419,8.239,17.595,0.814,5.94,-7.951,23.46,-1.294,7.621,-7.909,35.191,17.595,5.865
2.075,-0.048,6.371,8.383,23.46,0.671,5.652,-8.095,23.46,-1.007,6.615,-8.197,35.191,17.595,-11.73
2.08,0.048,6.467,8.335,23.46,0.671,5.748,-7.999,23.46,-0.575,5.752,-8.34,35.191,17.595,-17.595
2.085,-0.192,6.562,7.951,17.595,0.91,6.035,-7.377,17.595,-0.431,5.464,-8.34,35.191,23.46,-17.595
2.09,-0.431,6.658,7.041,11.73,1.198,6.61,-6.562,17.595,-0.431,5.464,-8.197,29.326,23.46,-17.595
2.095,-0.431,7.089,6.658,17.595,0.958,6.946,-6.323,23.46,-0.719,6.183,-7.478,23.46,23.46,-11.73
2.1,-0.192,7.329,6.419,23.46,0.766,7.041,-5.988,29.326,-0.863,6.902,-6.759,17.595,17.595,-11.73
2.105,-0.24,7.425,6.083,29.326,0.862,7.185,-5.7,29.326,-0.575,7.046,-6.615,17.595,17.595,-17.595
2.11,-0.24,7.329,5.844,29.326,0.958,7.281,-5.509,29.326,-0.431,7.046,-6.327,17.595,17.595,-23.46
2.115,-0.24,7.52,5.748,23.46,1.006,7.377,-5.413,23.46,-0.575,7.334,-6.04,17.595,11.73,-23.46
2.12,-0.24,7.616,5.652,23.46,0.958,7.568,-5.269,23.46,-0.719,7.478,-5.752,17.595,11.73,-23.46
2.125,-0.144,7.76,5.556,17.595,0.958,7.712,-5.269,17.595,-0.719,7.478,-5.752,17.595,11.73,-23.46
2.13,-0.192,7.904,5.509,11.73,1.006,7.856,-5.173,11.73,-0.719,7.765,-5.608,17.595,5.865,-17.595
2.1350000000000002,-0.192,8.143,5.509,11.73,1.006,7.951,-5.221,11.73,-0.719,7.909,-5.608,17.595,5.865,-17.595
2.14,-0.24,8.287,5.509,5.865,1.006,8.047,-5.221,5.865,-0.719,7.909,-5.464,17.595,5.865,-11.73
2.145,-0.192,8.191,5.604,5.865,1.006,7.999,-5.317,5.865,-0.719,8.053,-5.608,17.595,5.865,-5.865
2.15,-0.144,8.047,5.748,-0.0,1.006,7.856,-5.461,5.865,-0.719,8.053,-5.608,11.73,5.865,-5.865
2.1550000000000002,-0.144,7.856,5.94,-0.0,1.006,7.712,-5.652,5.865,-0.719,8.053,-5.608,11.73,0.0,0.0
2.16,-0.144,7.712,6.035,-0.0,1.006,7.664,-5.7,0.0,-0.719,7.909,-5.896,11.73,0.0,0.0
2.165,-0.144,7.76,6.131,-0.0,1.006,7.616,-5.844,0.0,-0.863,7.765,-6.04,11.73,0.0,0.0
2.17,-0.096,7.808,6.179,-0.0,0.958,7.664,-5.844,0.0,-0.863,7.765,-6.04,11.73,0.0,0.0
2.1750000000000003,-0.096,7.808,6.179,-0.0,0.91,7.712,-5.892,5.865,-0.719,7.765,-6.183,11.73,0.0,0.0
2.18,-0.096,7.856,6.227,-0.0,0.862,7.76,-5.892,5.865,-0.719,7.909,-6.183,11.73,0.0,0.0
2.185,-0.048,7.951,6.227,5.865,0.862,7.808,-5.94,5.865,-0.719,7.909,-6.183,11.73,0.0,0.0
2.19,-0.048,8.143,6.275,5.865,0.91,7.904,-5.94,11.73,-0.575,7.909,-6.183,11.73,0.0,0.0
2.195,-0.048,8.143,6.227,5.865,0.91,7.951,-5.892,11.73,-0.575,7.909,-6.327,11.73,0.0,-5.865
2.2,-0.096,8.239,6.275,5.865,0.958,7.999,-5.94,11.73,-0.575,7.909,-6.183,11.73,0.0,-5.865
2.205,-0.096,8.335,6.323,11.73,0.91,8.143,-5.94,11.73,-0.719,8.053,-6.183,11.73,0.0,-5.865
2.21,-0.048,8.43,6.275,11.73,0.91,8.287,-5.94,17.595,-0.719,8.053,-6.327,11.73,0.0,-5.865
2.215,-0.048,8.622,6.275,17.595,0.91,8.43,-5.94,17.595,-0.719,8.197,-6.327,0.0,0.0,-11.73
2.22,-0.048,8.622,6.227,17.595,0.91,8.43,-5.892,23.46,-0.719,8.34,-6.327,0.0,0.0,-11.73
2.225,0.0,8.622,6.323,23.46,0.91,8.478,-5.988,23.46,-0.575,8.484,-6.183,0.0,0.0,-17.595
2.23,0.048,8.67,6.371,23.46,0.91,8.478,-6.035,29.326,-0.575,8.484,-6.327,0.0,0.0,-17.595
2.235,-0.096,8.718,6.371,29.326,0.958,8.478,-6.035,29.326,-0.575,8.484,-6.327,0.0,-5.865,-23.46
2.24,-0.144,8.67,6.371,29.326,1.054,8.478,-6.035,29.326,-0.575,8.484,-6.327,0.0,-5.865,-23.46
2.245,-0.144,8.526,6.371,29.326,1.054,8.43,-5.988,35.191,-0.719,8.484,-6.327,0.0,-5.865,-23.46
2.25,-0.144,8.287,6.179,35.191,1.102,8.335,-5.844,35.191,-0.863,8.484,-6.327,0.0,-5.865,-23.46
2.255,-0.192,7.904,5.652,35.191,0.91,8.239,-5.173,35.191,-0.863,8.628,-6.327,0.0,-5.865,-29.326
2.2600000000000002,-0.048,7.76,5.269,35.191,0.671,8.143,-4.934,35.191,-0.863,8.484,-6.183,0.0,-5.865,-35.191
2.265,0.0,7.904,5.173,35.191,0.431,8.095,-4.79,35.191,-0.575,8.628,-5.464,0.0,-5.865,-35.191
2.27,0.144,7.999,5.077,29.326,0.383,8.095,-4.742,29.326,-0.144,8.484,-5.177,11.73,-5.865,-35.191
2.275,0.192,7.999,4.982,23.46,0.479,8.095,-4.646,23.46,0.144,8.34,-5.177,17.595,-11.73,-29.326
2.2800000000000002,0.096,7.999,4.838,23.46,0.671,8.095,-4.455,17.595,0.0,8.34,-5.033,17.595,-11.73,-23.46
2.285,0.0,7.904,4.742,17.595,0.766,8.047,-4.407,17.595,-0.144,8.34,-4.889,23.46,-17.595,-17.595
2.29,0.0,7.904,4.742,11.73,0.766,8.047,-4.407,17.595,-0.431,8.34,-4.745,23.46,-17.595,-17.595
2.295,0.0,7.904,4.742,17.595,0.719,7.951,-4.407,17.595,-0.575,8.34,-4.745,23.46,-23.46,-11.73
2.3000000000000003,0.048,7.856,4.742,17.595,0.623,7.856,-4.407,23.46,-0.431,8.197,-4.745,23.46,-23.46,-17.595
2.305,0.048,7.76,4.646,17.595,0.575,7.808,-4.311,17.595,-0.431,8.197,-4.745,29.326,-23.46,-17.595
2.31,0.096,7.664,4.503,17.595,0.575,7.76,-4.167,17.595,-0.288,8.053,-4.745,29.326,-23.46,-17.595
2.315,0.096,7.616,4.503,17.595,0.479,7.76,-4.215,17.595,-0.288,8.053,-4.602,29.326,-29.326,-17.595
2.32,0.144,7.712,4.742,11.73,0.479,7.904,-4.598,17.595,-0.144,8.053,-4.458,35.191,-29.326,-11.73
2.325,0.096,8.239,5.221,11.73,0.671,8.143,-5.077,17.595,-0.144,8.053,-4.602,35.191,-35.191,-11.73
2.33,0.048,8.622,5.7,11.73,0.814,8.335,-5.509,17.595,-0.144,8.197,-5.033,41.056,-35.191,-11.73
2.335,0.048,8.766,5.94,17.595,0.862,8.335,-5.7,17.595,-0.288,8.197,-5.464,41.056,-35.191,-11.73
2.34,-0.048,8.718,6.179,17.595,0.862,8.287,-5.94,17.595,-0.575,8.34,-5.896,41.056,-41.056,-11.73
2.345,0.048,8.622,6.562,23.46,0.862,8.239,-6.275,23.46,-0.575,8.197,-6.04,41.056,-41.056,-11.73
2.35,0.048,8.478,6.754,23.46,0.862,8.095,-6.562,23.46,-0.575,8.197,-6.471,35.191,-41.056,-17.595
2.355,0.096,8.287,6.993,23.46,0.862,8.047,-6.802,29.326,-0.575,8.053,-6.615,29.326,-41.056,-17.595
2.36,0.144,8.095,7.281,23.46,0.862,7.999,-7.041,29.326,-0.719,8.053,-6.902,29.326,-41.056,-23.46
2.365,0.192,8.287,7.664,23.46,0.862,8.191,-7.472,23.46,-0.719,8.197,-7.19,23.46,-41.056,-23.46
2.37,0.144,8.67,8.047,23.46,0.91,8.335,-7.76,23.46,-0.719,8.197,-7.478,23.46,-41.056,-23.46
2.375,0.144,8.622,8.239,23.46,0.958,8.287,-7.999,23.46,-0.719,8.34,-7.909,23.46,-41.056,-23.46
2.38,0.096,8.478,8.383,23.46,1.15,8.191,-8.095,23.46,-0.719,8.34,-8.197,23.46,-41.056,-23.46
2.3850000000000002,0.0,8.43,8.478,23.46,1.245,8.143,-8.191,23.46,-0.863,8.34,-8.34,23.46,-35.191,-23.46
2.39,-0.048,8.622,8.574,23.46,1.15,8.239,-8.335,23.46,-1.15,8.197,-8.484,23.46,-35.191,-17.595
2.395,0.096,8.909,8.67,23.46,1.15,8.383,-8.383,23.46,-1.15,8.053,-8.484,17.595,-35.191,-17.595
2.4,0.0,8.909,8.67,23.46,1.198,8.478,-8.335,23.46,-1.007,8.197,-8.628,17.595,-29.326,-17.595
2.4050000000000002,0.0,8.574,8.095,23.46,1.389,8.67,-7.52,23.46,-1.007,8.34,-8.628,11.73,-29.326,-17.595
2.41,-0.144,8.335,7.185,23.46,1.341,8.814,-6.802,23.46,-1.15,8.484,-8.484,0.0,-23.46,-17.595
2.415,-0.048,8.67,7.041,29.326,1.054,8.862,-6.754,29.326,-1.438,9.203,-7.621,0.0,-23.46,-17.595
2.42,0.048,9.053,6.898,35.191,1.006,9.101,-6.467,35.191,-1.15,9.203,-7.046,0.0,-17.595,-23.46
2.4250000000000003,-0.096,9.388,6.419,41.056,1.198,9.388,-5.988,41.056,-0.863,9.059,-7.046,17.595,-17.595,-29.326
2.43,-0.144,9.628,6.083,41.056,1.15,9.58,-5.7,46.921,-0.863,9.347,-6.615,17.595,-11.73,-35.191
2.435,-0.096,9.82,5.844,46.921,1.006,9.676,-5.461,52.786,-1.007,9.635,-6.183,17.595,-11.73,-41.056
2.44,-0.048,9.915,5.556,52.786,0.958,9.724,-5.173,52.786,-0.863,9.778,-5.896,23.46,-11.73,-46.921
2.445,-0.096,9.963,5.317,52.786,0.958,9.676,-4.934,52.786,-0.575,9.635,-5.752,23.46,-11.73,-46.921
2.45,-0.096,10.011,5.221,52.786,0.91,9.628,-4.934,52.786,-0.575,9.635,-5.464,17.595,-11.73,-52.786
2.455,0.0,9.915,5.125,52.786,0.91,9.58,-4.742,52.786,-0.575,9.635,-5.321,17.595,-11.73,-52.786
2.46,0.0,9.772,5.03,52.786,0.862,9.58,-4.694,52.786,-0.575,9.491,-5.177,17.595,-17.595,-52.786
2.465,0.096,9.58,5.077,52.786,0.766,9.58,-4.742,52.786,-0.575,9.491,-5.033,11.73,-17.595,-52.786
2.47,0.192,9.58,5.077,46.921,0.814,9.532,-4.79,46.921,-0.575,9.635,-5.033,11.73,-17.595,-52.786
2.475,0.096,9.676,5.173,41.056,0.862,9.58,-4.838,41.056,-0.431,9.778,-5.033,11.73,-23.46,-46.921
2.48,0.048,9.772,5.221,41.056,0.91,9.58,-4.934,41.056,-0.431,9.635,-5.177,11.73,-23.46,-41.056
2.485,0.0,9.82,5.221,35.191,0.958,9.628,-4.886,41.056,-0.575,9.635,-5.177,11.73,-23.46,-41.056
2.49,0.0,9.867,5.221,41.056,0.958,9.628,-4.886,41.056,-0.719,9.635,-5.177,11.73,-23.46,-35.191
2.495,0.0,9.867,5.221,41.056,0.958,9.628,-4.934,41.056,-0.719,9.635,-5.177,11.73,-29.326,-35.191
2.5,0.096,9.82,5.269,41.056,0.862,9.628,-4.982,46.921,-0.719,9.635,-5.177,0.0,-29.326,-41.056
2.505,0.096,9.82,5.269,46.921,0.862,9.58,-4.982,46.921,-0.575,9.635,-5.321,0.0,-29.326,-41.056
2.5100000000000002,0.096,9.676,5.317,46.921,0.862,9.484,-5.03,46.921,-0.575,9.635,-5.321,0.0,-29.326,-41.056
2.515,0.096,9.436,5.413,52.786,0.91,9.293,-5.125,52.786,-0.575,9.635,-5.321,0.0,-29.326,-46.921
2.52,0.048,9.245,5.556,52.786,0.958,9.197,-5.317,52.786,-0.575,9.491,-5.321,0.0,-29.326,-46.921
2.525,0.0,9.245,5.796,52.786,1.102,9.149,-5.556,52.786,-0.719,9.347,-5.464,0.0,-29.326,-52.786
2.5300000000000002,-0.144,9.245,5.988,52.786,1.245,9.053,-5.7,58.651,-0.719,9.347,-5.752,0.0,-29.326,-52.786
2.535,-0.192,9.101,6.083,58.651,1.293,8.957,-5.748,58.651,-1.007,9.203,-5.896,0.0,-29.326,-52.786
2.54,-0.144,8.957,6.083,58.651,1.245,8.862,-5.7,58.651,-1.15,9.059,-6.04,0.0,-29.326,-52.786
2.545,-0.24,8.909,5.94,58.651,1.293,8.814,-5.604,58.651,-1.15,9.059,-6.04,0.0,-29.326,-58.651
2.5500000000000003,-0.335,8.909,5.988,58.651,1.293,8.814,-5.7,58.651,-1.15,8.916,-6.04,0.0,-29.326,-58.651
2.555,-0.287,8.909,6.035,58.651,1.245,8.862,-5.7,58.651,-1.15,8.916,-5.896,0.0,-29.326,-58.651
2.56,-0.335,9.005,6.035,58.651,1.293,8.957,-5.7,58.651,-1.007,8.916,-6.04,0.0,-23.46,-58.651
2.565,-0.383,9.149,5.892,58.651,1.341,9.005,-5.556,58.651,-1.007,9.059,-6.04,0.0,-23.46,-58.651
2.57,-0.431,9.245,5.796,52.786,1.341,9.101,-5.461,58.651,-1.15,9.059,-6.04,0.0,-23.46,-58.651
2.575,-0.383,9.245,5.748,52.786,1.341,9.149,-5.413,52.786,-1.15,9.059,-5.896,0.0,-23.46,-52.786
2.58,-0.383,9.293,5.652,52.786,1.389,9.245,-5.269,58.651,-1.15,9.203,-5.752,0.0,-23.46,-52.786
2.585,-0.335,9.341,5.509,52.786,1.389,9.341,-5.221,52.786,-1.15,9.347,-5.752,0.0,-29.326,-52.786
2.59,-0.335,9.436,5.365,52.786,1.389,9.436,-5.03,52.786,-1.15,9.491,-5.608,0.0,-29.326,-52.786
2.595,-0.335,9.436,5.317,52.786,1.389,9.484,-4.982,52.786,-1.15,9.491,-5.464,0.0,-23.46,-52.786
2.6,-0.287,9.484,5.269,52.786,1.341,9.628,-4.934,52.786,-1.15,9.635,-5.321,0.0,-23.46,-52.786
2.605,-0.335,9.676,5.221,52.786,1.389,9.628,-4.886,52.786,-1.15,9.778,-5.321,11.73,-23.46,-52.786
2.61,-0.431,9.676,5.173,52.786,1.389,9.58,-4.886,58.651,-1.15,9.778,-5.177,11.73,-23.46,-52.786
2.615,-0.479,9.724,5.173,58.651,1.437,9.484,-4.886,58.651,-1.15,9.778,-5.177,17.595,-23.46,-52.786
2.62,-0.479,9.772,5.173,58.651,1.437,9.388,-4.838,58.651,-1.15,9.635,-5.177,17.595,-23.46,-52.786
2.625,-0.479,9.724,5.125,64.516,1.437,9.341,-4.838,64.516,-1.15,9.347,-5.177,17.595,-23.46,-58.651
2.63,-0.479,9.58,5.173,64.516,1.437,9.245,-4.886,70.381,-1.15,9.203,-5.177,17.595,-29.326,-58.651
2.6350000000000002,-0.479,9.484,5.221,64.516,1.389,9.197,-4.886,70.381,-1.15,9.203,-5.177,11.73,-29.326,-64.516
2.64,-0.479,9.532,5.317,70.381,1.437,9.197,-4.982,70.381,-1.15,9.203,-5.177,11.73,-29.326,-64.516
2.645,-0.479,9.388,5.365,70.381,1.437,9.197,-5.03,70.381,-1.15,9.059,-5.321,0.0,-29.326,-64.516
2.65,-0.383,9.149,5.317,70.381,1.389,9.149,-4.982,70.381,-1.15,9.203,-5.321,0.0,-29.326,-70.381
2.6550000000000002,-0.431,9.101,5.173,70.381,1.389,9.101,-4.838,64.516,-1.294,9.203,-5.321,0.0,-29.326,-70.381
2.66,-0.479,9.149,5.03,64.516,1.389,9.101,-4.694,64.516,-1.15,9.347,-5.321,0.0,-29.326,-70.381
2.665,-0.431,9.101,5.03,58.651,1.389,9.053,-4.694,64.516,-1.15,9.203,-5.177,0.0,-29.326,-64.516
2.67,-0.431,8.957,5.03,58.651,1.341,8.957,-4.742,58.651,-1.15,9.203,-5.033,0.0,-29.326,-64.516
2.6750000000000003,-0.383,8.766,5.03,58.651,1.293,8.862,-4.742,58.651,-1.15,9.203,-5.033,0.0,-29.326,-58.651
2.68,-0.335,8.622,5.125,58.651,1.293,8.766,-4.838,52.786,-1.15,9.203,-5.033,0.0,-29.326,-58.651
2.685,-0.431,8.67,5.173,52.786,1.341,8.718,-4.886,52.786,-1.007,9.059,-5.033,0.0,-29.326,-52.786
2.69,-0.479,8.67,5.269,52.786,1.437,8.67,-4.982,52.786,-1.007,8.916,-5.177,11.73,-35.191,-52.786
2.695,-0.479,8.622,5.269,52.786,1.389,8.622,-4.934,58.651,-1.15,8.916,-5.177,17.595,-35.191,-52.786
2.7,-0.383,8.67,5.173,58.651,1.341,8.622,-4.838,58.651,-1.15,8.772,-5.321,17.595,-35.191,-52.786
2.705,-0.431,8.622,5.125,58.651,1.293,8.526,-4.742,58.651,-1.15,8.772,-5.321,17.595,-35.191,-52.786
2.71,-0.383,8.526,5.077,58.651,1.293,8.43,-4.742,58.651,-1.15,8.628,-5.177,23.46,-35.191,-58.651
2.715,-0.431,8.526,5.077,58.651,1.293,8.43,-4.79,58.651,-1.007,8.628,-5.033,23.46,-35.191,-58.651
2.72,-0.335,8.526,5.125,58.651,1.245,8.43,-4.79,58.651,-1.007,8.628,-5.033,23.46,-35.191,-58.651
2.725,-0.335,8.383,5.125,58.651,1.245,8.335,-4.838,58.651,-1.007,8.628,-5.033,23.46,-35.191,-58.651
2.73,-0.383,8.335,5.125,58.651,1.245,8.287,-4.838,58.651,-1.007,8.484,-5.177,23.46,-35.191,-58.651
2.735,-0.335,8.239,5.173,58.651,1.198,8.239,-4.838,58.651,-1.007,8.484,-5.177,23.46,-35.191,-58.651
2.74,-0.287,8.047,5.173,58.651,1.102,8.095,-4.886,58.651,-1.007,8.484,-5.177,23.46,-35.191,-58.651
2.745,-0.24,7.856,5.221,58.651,1.054,7.951,-4.934,58.651,-0.863,8.34,-5.177,29.326,-35.191,-58.651
2.75,-0.144,7.76,5.221,52.786,1.006,7.951,-4.934,52.786,-0.863,8.34,-5.177,29.326,-35.191,-58.651
2.755,-0.192,7.904,5.221,52.786,1.006,8.095,-4.886,52.786,-0.863,8.197,-5.321,29.326,-35.191,-52.786
2.7600000000000002,-0.192,8.143,5.173,46.921,1.054,8.287,-4.838,46.921,-0.719,8.34,-5.321,35.191,-35.191,-52.786
2.765,-0.287,8.335,5.125,46.921,1.15,8.43,-4.838,46.921,-0.719,8.484,-5.177,35.191,-35.191,-46.921
2.77,-0.287,8.622,5.173,46.921,1.15,8.574,-4.838,46.921,-0.863,8.628,-5.177,41.056,-35.191,-46.921
2.775,-0.383,8.862,5.173,52.786,1.245,8.622,-4.934,52.786,-0.863,8.628,-5.177,41.056,-35.191,-46.921
2.7800000000000002,-0.287,8.766,5.365,52.786,1.15,8.574,-5.125,52.786,-0.863,8.628,-5.177,46.921,-35.191,-46.921
2.785,-0.192,8.478,5.509,52.786,1.102,8.383,-5.221,52.786,-1.007,8.628,-5.321,46.921,-35.191,-46.921
2.79,-0.144,8.191,5.604,52.786,1.054,8.239,-5.269,52.786,-0.863,8.628,-5.464,41.056,-35.191,-52.786
2.795,-0.096,7.856,5.652,52.786,1.054,8.095,-5.413,52.786,-0.863,8.484,-5.608,41.056,-41.056,-52.786
2.8000000000000003,-0.192,7.664,5.844,46.921,1.15,8.047,-5.556,46.921,-0.719,8.484,-5.608,46.921,-41.056,-52.786
2.805,-0.144,7.52,5.94,46.921,0.91,8.047,-5.7,52.786,-0.575,8.34,-5.752,46.921,-35.191,-46.921
2.81,-0.048,7.616,6.131,46.921,1.102,8.191,-5.892,46.921,-0.288,8.34,-5.896,52.786,-35.191,-41.056
2.815,-0.096,7.808,6.275,46.921,1.245,8.335,-5.988,46.921,-0.863,8.628,-6.04,58.651,-35.191,-35.191
2.82,-0.144,7.808,6.179,46.921,1.389,8.43,-5.892,46.921,-1.007,8.772,-6.327,64.516,-35.191,-23.46
2.825,-0.144,7.76,5.604,46.921,1.293,8.67,-5.7,46.921,-1.294,8.916,-6.327,70.381,-29.326,-23.46
2.83,-0.287,8.478,6.227,46.921,1.15,8.383,-5.94,46.921,-1.726,9.203,-5.896,76.246,-29.326,-23.46
2.835,-0.287,8.478,5.892,46.921,1.245,8.478,-5.556,46.921,-1.294,9.059,-6.327,87.977,-29.326,-35.191
2.84,-0.383,8.478,5.365,41.056,1.245,8.478,-4.934,46.921,-0.863,8.484,-6.327,93.842,-23.46,-41.056
2.845,-0.527,8.526,4.934,41.056,1.15,8.526,-4.646,46.921,-0.863,8.628,-5.752,93.842,-23.46,-41.056
2.85,-0.431,8.526,4.79,46.921,1.15,8.526,-4.503,46.921,-0.719,8.628,-5.177,93.842,-23.46,-41.056
2.855,-0.479,8.622,4.598,46.921,1.198,8.622,-4.263,46.921,-0.719,8.628,-5.033,99.707,-23.46,-41.056
2.86,-0.575,8.862,4.407,41.056,1.389,8.718,-4.119,46.921,-0.863,8.628,-4.889,99.707,-29.326,-41.056
2.865,-0.671,9.149,4.263,41.056,1.485,8.862,-4.024,46.921,-0.863,8.772,-4.602,99.707,-29.326,-41.056
2.87,-0.623,9.149,4.167,46.921,1.485,8.814,-3.832,46.921,-1.007,8.772,-4.458,99.707,-29.326,-41.056
2.875,-0.623,9.005,3.928,46.921,1.437,8.814,-3.593,46.921,-1.007,8.772,-4.314,99.707,-35.191,-41.056
2.88,-0.623,9.005,3.593,46.921,1.389,8.814,-3.209,46.921,-1.15,8.772,-4.17,99.707,-35.191,-46.921
2.8850000000000002,-0.575,8.957,3.305,46.921,1.341,8.814,-2.97,46.921,-1.007,8.772,-3.883,93.842,-35.191,-46.921
2.89,-0.623,9.005,3.114,46.921,1.341,8.862,-2.826,46.921,-0.863,8.772,-3.595,93.842,-35.191,-46.921
2.895,-0.575,9.053,3.018,46.921,1.341,9.053,-2.73,46.921,-0.863,8.916,-3.307,93.842,-41.056,-46.921
2.9,-0.575,9.197,2.97,41.056,1.437,9.245,-2.73,41.056,-0.863,9.059,-3.164,93.842,-41.056,-46.921
2.9050000000000002,-0.623,9.436,2.97,41.056,1.533,9.436,-2.73,41.056,-0.863,9.203,-3.164,93.842,-41.056,-46.921
2.91,-0.575,9.532,2.874,41.056,1.485,9.628,-2.587,41.056,-1.15,9.491,-3.164,93.842,-46.921,-41.056
2.915,-0.575,9.58,2.682,35.191,1.437,9.676,-2.347,41.056,-1.15,9.635,-3.02,93.842,-46.921,-41.056
2.92,-0.623,9.628,2.395,35.191,1.437,9.724,-2.108,35.191,-1.007,9.778,-2.876,93.842,-46.921,-35.191
2.9250000000000003,-0.623,9.772,2.347,35.191,1.437,9.82,-2.108,35.191,-1.007,9.778,-2.732,99.707,-46.921,-35.191
2.93,-0.527,10.059,2.347,35.191,1.437,9.915,-2.06,35.191,-1.007,9.922,-2.445,99.707,-52.786,-35.191
2.935,-0.575,10.107,2.251,35.191,1.389,9.867,-1.964,41.056,-1.007,9.922,-2.588,105.572,-52.786,-35.191
2.94,-0.479,10.011,2.156,35.191,1.341,9.628,-1.916,41.056,-1.007,9.922,-2.445,105.572,-52.786,-35.191
2.945,-0.479,9.867,2.156,35.191,1.245,9.436,-1.916,41.056,-1.007,9.778,-2.301,105.572,-52.786,-35.191
2.95,-0.383,9.82,2.251,35.191,1.198,9.341,-2.012,35.191,-0.863,9.491,-2.301,99.707,-58.651,-41.056
2.955,-0.383,9.867,2.347,35.191,1.15,9.388,-2.108,35.191,-0.719,9.203,-2.301,99.707,-58.651,-35.191
2.96,-0.335,9.867,2.491,35.191,1.293,9.388,-2.251,35.191,-0.719,9.203,-2.445,93.842,-58.651,-35.191
2.965,-0.527,9.867,2.587,29.326,1.485,9.436,-2.347,29.326,-0.719,9.203,-2.588,93.842,-64.516,-35.191
2.97,-0.479,9.915,2.73,29.326,1.437,9.484,-2.491,35.191,-1.007,9.203,-2.732,87.977,-64.516,-29.326
2.975,-0.383,9.915,2.874,35.191,1.341,9.436,-2.635,35.191,-1.15,9.203,-2.732,82.111,-70.381,-23.46
2.98,-0.335,9.676,2.97,35.191,1.341,9.293,-2.73,35.191,-1.007,9.203,-2.876,82.111,-70.381,-29.326
2.985,-0.287,9.436,3.066,35.191,1.245,9.197,-2.778,35.191,-1.007,9.203,-3.02,76.246,-70.381,-35.191
2.99,-0.287,9.341,3.066,35.191,1.245,9.149,-2.826,35.191,-1.007,9.203,-3.164,70.381,-70.381,-35.191
2.995,-0.287,9.245,3.209,35.191,1.245,9.101,-2.97,35.191,-0.863,9.059,-3.164,70.381,-70.381,-35.191
3.0,-0.287,9.388,3.305,35.191,1.293,9.245,-3.066,35.191,-0.863,9.059,-3.307,64.516,-70.381,-29.326
3.005,-0.287,9.58,3.449,35.191,1.293,9.436,-3.209,35.191,-1.007,9.203,-3.307,64.516,-70.381,-35.191
3.0100000000000002,-0.24,9.724,3.449,35.191,1.293,9.58,-3.161,35.191,-1.007,9.347,-3.451,64.516,-70.381,-35.191
3.015,-0.287,9.724,3.401,35.191,1.389,9.58,-3.114,35.191,-1.007,9.491,-3.595,64.516,-70.381,-35.191
3.02,-0.335,9.628,3.257,35.191,1.437,9.484,-2.97,41.056,-1.007,9.635,-3.451,64.516,-70.381,-35.191
3.025,-0.383,9.58,3.161,41.056,1.437,9.293,-2.826,41.056,-1.15,9.635,-3.451,64.516,-70.381,-35.191
3.0300000000000002,-0.431,9.484,3.114,46.921,1.485,9.149,-2.73,46.921,-1.15,9.347,-3.307,64.516,-70.381,-41.056
3.035,-0.479,9.436,2.97,46.921,1.581,9.005,-2.635,46.921,-1.15,9.059,-3.164,58.651,-70.381,-41.056
3.04,-0.527,9.293,2.826,46.921,1.581,8.862,-2.443,46.921,-1.294,8.916,-3.02,58.651,-70.381,-46.921
3.045,-0.575,9.101,2.635,46.921,1.533,8.766,-2.299,52.786,-1.294,8.772,-3.02,58.651,-70.381,-46.921
3.0500000000000003,-0.479,9.005,2.587,46.921,1.485,8.718,-2.251,46.921,-1.294,8.628,-2.732,52.786,-70.381,-46.921
3.055,-0.479,8.814,2.587,46.921,1.485,8.718,-2.251,46.921,-1.294,8.628,-2.732,46.921,-64.516,-46.921
3.06,-0.479,8.862,2.587,46.921,1.533,8.814,-2.251,46.921,-1.294,8.628,-2.588,46.921,-64.516,-46.921
3.065,-0.479,8.862,2.539,41.056,1.485,8.814,-2.203,41.056,-1.294,8.772,-2.588,46.921,-64.516,-46.921
3.0700000000000003,-0.479,8.67,2.539,41.056,1.437,8.67,-2.203,41.056,-1.294,8.916,-2.588,46.921,-64.516,-46.921
3.075,-0.527,8.718,2.491,41.056,1.533,8.622,-2.203,41.056,-1.15,8.916,-2.588,46.921,-64.516,-41.056
3.08,-0.671,8.766,2.587,35.191,1.629,8.526,-2.299,35.191,-1.15,8.772,-2.588,46.921,-64.516,-41.056
3.085,-1.437,9.293,2.922,35.191,0.766,7.329,-2.635,35.191,-1.294,8.628,-2.588,46.921,-64.516,-35.191
3.09,-0.431,7.999,2.97,41.056,1.916,8.43,-2.587,23.46,-1.438,8.484,-2.732,46.921,-64.516,-35.191
3.095,-0.719,8.383,2.97,46.921,2.156,8.574,-2.682,23.46,-0.863,7.909,-3.02,46.921,-58.651,-29.326
3.1,-1.102,8.909,3.114,41.056,2.251,8.766,-2.778,23.46,-1.726,8.34,-2.876,46.921,-58.651,-23.46
3.105,-1.054,9.101,3.161,41.056,2.156,8.862,-2.826,23.46,-1.869,8.484,-3.164,46.921,-58.651,-23.46
3.11,-1.341,9.436,3.066,35.191,2.347,9.053,-2.73,29.326,-2.013,8.628,-3.164,46.921,-58.651,-23.46
3.115,-1.533,9.724,2.97,41.056,2.347,9.005,-2.635,29.326,-2.013,8.772,-3.164,41.056,-58.651,-23.46
3.12,-1.533,9.58,2.874,46.921,2.395,9.149,-2.539,35.191,-2.157,8.916,-3.02,41.056,-52.786,-23.46
3.125,-1.533,9.484,2.826,52.786,2.395,9.101,-2.491,41.056,-2.157,8.916,-3.02,35.191,-52.786,-29.326
3.13,-1.677,9.436,2.778,52.786,2.299,8.909,-2.443,41.056,-2.157,8.916,-2.876,35.191,-52.786,-35.191
3.1350000000000002,-1.581,9.197,2.778,58.651,2.443,9.005,-2.443,46.921,-2.013,9.059,-2.732,35.191,-52.786,-41.056
3.14,-1.82,9.149,2.73,58.651,2.539,9.101,-2.395,41.056,-2.013,9.059,-2.732,29.326,-52.786,-41.056
3.145,-2.012,9.436,2.587,64.516,2.635,9.197,-2.203,46.921,-2.301,9.203,-2.732,29.326,-52.786,-46.921
3.15,-2.012,9.293,2.539,64.516,2.635,9.101,-2.251,41.056,-2.301,9.203,-2.732,29.326,-52.786,-41.056
3.1550000000000002,-1.629,8.862,2.539,70.381,2.874,9.532,-2.156,41.056,-2.445,9.347,-2.588,35.191,-52.786,-41.056
3.16,-1.724,9.005,2.395,70.381,2.587,9.341,-2.06,41.056,-2.445,9.491,-2.588,35.191,-52.786,-41.056
3.165,-1.677,8.957,2.395,64.516,2.539,9.436,-2.012,35.191,-2.445,9.635,-2.445,35.191,-52.786,-41.056
3.17,-1.533,9.005,2.251,58.651,2.251,9.341,-1.868,29.326,-2.301,9.635,-2.445,41.056,-52.786,-35.191
3.1750000000000003,-1.485,9.053,2.108,46.921,2.299,9.436,-1.82,29.326,-2.157,9.778,-2.301,46.921,-52.786,-35.191
3.18,-1.533,9.149,2.108,41.056,2.251,9.58,-1.772,23.46,-2.013,9.778,-2.157,46.921,-52.786,-29.326
3.185,-1.389,9.293,2.108,35.191,2.299,9.772,-1.772,23.46,-2.013,9.778,-2.157,52.786,-52.786,-23.46
3.19,-1.724,9.676,2.06,29.326,2.299,9.724,-1.772,17.595,-1.869,9.778,-2.157,58.651,-52.786,-17.595
3.1950000000000003,-1.724,9.82,2.108,23.46,2.395,9.82,-1.82,17.595,-2.013,9.778,-2.157,58.651,-52.786,-17.595
3.2,-1.485,9.915,2.251,29.326,2.395,9.867,-2.012,17.595,-2.013,9.778,-2.157,58.651,-52.786,-17.595
3.205,-1.724,10.011,2.395,23.46,2.395,9.724,-2.156,23.46,-2.013,9.778,-2.157,64.516,-58.651,-17.595
3.21,-1.677,9.963,2.443,29.326,2.395,9.58,-2.156,23.46,-2.013,9.635,-2.445,58.651,-58.651,-17.595
3.215,-1.772,9.82,2.395,29.326,2.395,9.436,-2.012,29.326,-2.013,9.491,-2.445,58.651,-58.651,-17.595
3.22,-1.724,9.724,2.203,29.326,2.299,9.436,-1.868,29.326,-2.013,9.347,-2.445,58.651,-58.651,-23.46
3.225,-1.724,9.628,2.012,35.191,2.299,9.484,-1.677,35.191,-2.013,9.203,-2.301,52.786,-64.516,-23.46
3.23,-1.677,9.436,1.916,35.191,2.299,9.436,-1.533,35.191,-1.869,9.347,-2.157,46.921,-64.516,-29.326
3.235,-1.724,9.341,1.82,35.191,2.299,9.388,-1.485,35.191,-1.869,9.491,-2.013,46.921,-64.516,-35.191
3.24,-1.724,9.197,1.724,35.191,2.299,9.245,-1.437,35.191,-1.869,9.491,-1.869,46.921,-64.516,-35.191
3.245,-1.868,9.005,1.772,35.191,2.443,9.053,-1.437,29.326,-1.869,9.491,-1.869,46.921,-70.381,-35.191
3.25,-1.916,8.909,1.868,29.326,2.539,9.005,-1.533,29.326,-2.013,9.347,-1.869,46.921,-70.381,-29.326
3.255,-2.012,8.862,1.964,29.326,2.635,8.909,-1.677,29.326,-2.157,9.203,-1.869,46.921,-70.381,-29.326
3.2600000000000002,-2.06,8.814,1.916,23.46,2.826,8.909,-1.581,29.326,-2.157,9.059,-2.013,46.921,-70.381,-23.46
3.265,-2.347,8.766,1.916,23.46,2.97,8.862,-1.629,23.46,-2.301,9.059,-2.013,52.786,-76.246,-23.46
3.27,-2.347,8.718,1.964,23.46,3.018,8.814,-1.629,29.326,-2.588,9.059,-2.013,52.786,-76.246,-23.46
3.275,-2.491,8.718,1.868,29.326,3.114,8.766,-1.485,29.326,-2.732,8.916,-2.013,52.786,-76.246,-23.46
3.2800000000000002,-2.635,8.526,1.772,29.326,3.257,8.67,-1.485,29.326,-2.732,8.772,-2.013,58.651,-76.246,-23.46
3.285,-2.778,8.383,1.868,29.326,3.353,8.526,-1.533,35.191,-2.876,8.772,-1.869,58.651,-76.246,-23.46
3.29,-2.778,8.239,1.916,35.191,3.497,8.383,-1.629,35.191,-3.02,8.628,-1.869,58.651,-76.246,-23.46
3.295,-2.922,8.191,1.964,35.191,3.64,8.335,-1.677,41.056,-3.02,8.628,-2.013,64.516,-76.246,-35.191
3.3000000000000003,-3.018,8.143,1.964,41.056,3.688,8.239,-1.677,41.056,-3.307,8.484,-2.013,64.516,-76.246,-35.191
3.305,-3.018,8.095,2.012,41.056,3.64,8.095,-1.724,41.056,-3.451,8.34,-2.013,64.516,-76.246,-35.191
3.31,-3.018,8.047,2.012,41.056,3.593,7.951,-1.724,41.056,-3.451,8.197,-2.013,70.381,-76.246,-41.056
3.315,-3.114,8.095,2.012,35.191,3.64,7.856,-1.677,41.056,-3.451,8.053,-2.157,70.381,-76.246,-41.056
3.3200000000000003,-3.161,8.287,2.012,35.191,3.593,7.856,-1.724,35.191,-3.451,7.765,-2.157,70.381,-76.246,-41.056
3.325,-3.114,8.478,2.06,35.191,3.497,7.951,-1.724,35.191,-3.307,7.621,-2.157,70.381,-76.246,-35.191
3.33,-3.305,9.101,1.341,29.326,3.497,8.047,-1.054,29.326,-3.164,7.478,-2.157,70.381,-82.111,-35.191
3.335,-2.874,9.005,1.724,23.46,3.161,8.191,-1.485,23.46,-3.164,7.478,-2.013,64.516,-82.111,-29.326
3.34,-2.73,9.101,1.724,23.46,3.305,8.43,-1.437,23.46,-2.876,7.478,-1.582,58.651,-82.111,-23.46
3.345,-2.922,9.245,1.677,17.595,3.353,8.574,-1.389,17.595,-2.732,7.765,-1.869,46.921,-87.977,-17.595
3.35,-2.826,9.053,1.82,11.73,3.305,8.622,-1.629,11.73,-2.876,7.909,-1.869,41.056,-93.842,-17.595
3.355,-2.635,9.341,2.539,11.73,3.305,8.862,-2.395,11.73,-3.02,8.197,-1.726,35.191,-93.842,-11.73
3.36,-2.73,9.101,2.635,11.73,3.401,8.909,-2.347,11.73,-2.876,8.484,-2.157,23.46,-99.707,-11.73
3.365,-2.395,8.383,2.539,11.73,3.353,8.862,-2.251,11.73,-2.876,8.628,-2.876,23.46,-99.707,-11.73
3.37,-2.347,8.335,2.539,11.73,3.161,8.957,-2.251,11.73,-3.307,9.059,-2.732,17.595,-99.707,-11.73
3.375,-2.203,8.526,2.587,11.73,2.922,9.005,-2.347,11.73,-3.307,9.347,-2.588,17.595,-99.707,-11.73
3.38,-2.203,8.862,2.635,11.73,2.874,9.245,-2.395,11.73,-2.876,9.347,-2.588,23.46,-99.707,-11.73
3.3850000000000002,-2.203,9.245,2.73,5.865,2.874,9.436,-2.491,5.865,-2.732,9.347,-2.732,29.326,-99.707,-11.73
3.39,-2.203,9.293,2.874,5.865,2.778,9.293,-2.682,5.865,-2.588,9.635,-2.876,35.191,-93.842,-5.865
3.395,-2.203,9.149,3.114,5.865,2.922,9.053,-2.874,5.865,-2.445,9.491,-2.876,35.191,-99.707,-5.865
3.4,-2.299,8.814,3.066,5.865,3.161,8.766,-2.778,5.865,-2.445,9.203,-3.164,41.056,-93.842,0.0
3.4050000000000002,-2.443,8.526,3.066,5.865,3.257,8.526,-2.778,5.865,-2.732,8.916,-3.164,41.056,-99.707,0.0
3.41,-2.395,8.383,3.161,5.865,3.257,8.383,-2.874,11.73,-3.02,8.628,-3.164,41.056,-99.707,0.0
3.415,-2.395,8.335,3.161,11.73,3.161,8.239,-2.826,11.73,-3.164,8.628,-3.164,41.056,-99.707,-5.865
3.42,-2.443,8.287,3.066,11.73,3.066,8.095,-2.73,17.595,-3.02,8.34,-3.307,41.056,-93.842,-5.865
3.4250000000000003,-2.443,8.239,2.922,17.595,3.066,7.999,-2.635,23.46,-2.876,8.197,-3.164,46.921,-93.842,-11.73
3.43,-2.491,8.287,2.874,23.46,3.066,7.999,-2.539,23.46,-2.876,7.909,-3.164,41.056,-93.842,-17.595
3.435,-2.539,8.287,2.682,23.46,3.114,7.951,-2.395,29.326,-2.732,7.909,-3.02,41.056,-93.842,-17.595
3.44,-2.539,8.191,2.587,29.326,3.066,7.76,-2.251,29.326,-2.876,7.765,-2.876,41.056,-93.842,-23.46
3.4450000000000003,-2.491,8.047,2.443,35.191,2.97,7.472,-2.156,35.191,-2.876,7.765,-2.732,41.056,-93.842,-23.46
3.45,-2.443,7.856,2.347,35.191,2.874,7.329,-2.06,35.191,-2.732,7.478,-2.588,35.191,-93.842,-29.326
3.455,-2.395,7.616,2.347,35.191,2.874,7.281,-2.06,35.191,-2.588,7.19,-2.445,35.191,-93.842,-35.191
3.46,-2.491,7.568,2.491,35.191,3.066,7.233,-2.299,35.191,-2.588,7.046,-2.445,29.326,-99.707,-35.191
3.465,-2.539,7.472,2.778,35.191,3.257,7.281,-2.491,35.191,-2.588,7.046,-2.588,23.46,-99.707,-35.191
3.47,-2.539,7.616,2.874,41.056,3.305,7.568,-2.539,41.056,-2.876,7.046,-2.732,23.46,-99.707,-35.191
3.475,-2.635,7.904,2.826,41.056,3.353,7.808,-2.491,41.056,-3.164,7.334,-2.876,23.46,-99.707,-35.191
3.48,-2.682,8.095,2.682,46.921,3.401,7.951,-2.347,46.921,-3.164,7.478,-3.02,17.595,-99.707,-41.056
3.485,-2.778,8.191,2.491,46.921,3.449,8.143,-2.156,46.921,-3.164,7.765,-2.876,17.595,-99.707,-41.056
3.49,-2.73,8.191,2.299,52.786,3.353,8.143,-1.916,52.786,-3.164,7.909,-2.732,17.595,-99.707,-46.921
3.495,-2.73,8.095,2.108,52.786,3.353,8.095,-1.82,52.786,-3.164,8.053,-2.445,17.595,-99.707,-46.921
3.5,-2.73,7.999,2.012,52.786,3.305,7.999,-1.677,58.651,-3.02,8.197,-2.301,17.595,-99.707,-52.786
3.505,-2.73,7.856,1.916,58.651,3.401,7.951,-1.533,52.786,-3.02,8.053,-2.157,17.595,-99.707,-52.786
3.5100000000000002,-2.826,7.856,1.82,52.786,3.497,7.951,-1.437,52.786,-3.02,8.053,-2.013,17.595,-99.707,-52.786
3.515,-2.922,7.999,1.724,52.786,3.593,7.951,-1.389,52.786,-3.164,8.053,-1.869,23.46,-99.707,-52.786
3.52,-2.97,7.999,1.724,52.786,3.593,7.999,-1.437,52.786,-3.307,7.909,-1.869,23.46,-99.707,-52.786
3.525,-2.97,8.287,1.724,52.786,3.593,8.191,-1.389,52.786,-3.307,7.909,-1.726,23.46,-99.707,-52.786
3.5300000000000002,-3.066,8.526,1.533,46.921,3.784,8.335,-1.198,46.921,-3.307,8.053,-1.869,23.46,-99.707,-46.921
3.535,-3.257,8.814,1.389,46.921,3.832,8.43,-1.054,46.921,-3.307,8.053,-1.726,23.46,-99.707,-46.921
3.54,-3.257,8.862,1.293,41.056,3.832,8.43,-1.006,46.921,-3.451,8.053,-1.582,23.46,-99.707,-46.921
3.545,-3.305,9.005,1.293,46.921,3.832,8.335,-1.054,46.921,-3.451,8.053,-1.438,23.46,-99.707,-46.921
3.5500000000000003,-3.401,9.053,1.389,41.056,3.928,8.335,-1.054,41.056,-3.451,8.053,-1.438,17.595,-99.707,-46.921
3.555,-3.497,9.197,1.389,41.056,4.072,8.43,-1.102,41.056,-3.451,7.765,-1.438,11.73,-105.572,-41.056
3.56,-3.593,9.436,1.389,41.056,4.167,8.67,-1.102,35.191,-3.595,7.765,-1.438,0.0,-105.572,-41.056
3.565,-3.64,9.724,1.341,41.056,4.263,8.862,-1.102,35.191,-3.739,7.909,-1.438,0.0,-105.572,-41.056
3.5700000000000003,-3.688,10.011,1.341,41.056,4.263,9.149,-1.054,35.191,-3.883,8.053,-1.438,-11.73,-111.437,-35.191
3.575,-3.688,10.346,1.341,41.056,4.311,9.436,-1.102,41.056,-3.883,8.34,-1.438,-17.595,-111.437,-35.191
3.58,-3.64,10.538,1.437,41.056,4.263,9.676,-1.245,41.056,-3.883,8.484,-1.438,-29.326,-111.437,-35.191
3.585,-3.593,10.49,1.629,46.921,4.359,9.915,-1.437,46.921,-3.883,8.772,-1.582,-35.191,-117.302,-41.056
3.59,-3.449,10.251,1.772,46.921,4.359,9.963,-1.533,46.921,-3.883,9.203,-1.726,-46.921,-117.302,-41.056
3.595,-3.305,9.915,1.772,46.921,4.311,10.059,-1.533,46.921,-4.17,9.491,-1.869,-58.651,-117.302,-46.921
3.6,-3.161,9.82,1.82,46.921,4.263,10.251,-1.581,46.921,-4.17,9.922,-1.869,-58.651,-117.302,-46.921
3.605,-3.161,9.82,1.916,46.921,4.311,10.586,-1.677,46.921,-4.17,10.21,-2.013,-64.516,-117.302,-46.921
3.61,-2.922,9.58,1.677,46.921,3.928,10.921,-1.293,46.921,-4.314,10.641,-2.013,-58.651,-117.302,-46.921
3.615,-2.778,9.724,1.389,41.056,4.215,11.257,-0.958,41.056,-4.314,11.216,-2.157,-58.651,-111.437,-46.921
3.62,-3.066,9.676,0.766,35.191,4.407,11.64,-0.383,35.191,-4.026,11.935,-1.582,-46.921,-111.437,-41.056
3.625,-3.018,10.203,0.479,35.191,4.167,11.927,-0.096,35.191,-4.458,12.654,-1.007,-35.191,-105.572,-35.191
3.63,-2.97,10.682,0.24,41.056,3.976,12.167,0.144,41.056,-4.314,12.798,-0.575,-17.595,-99.707,-35.191
3.6350000000000002,-2.97,11.065,-0.096,46.921,3.88,12.31,0.479,46.921,-4.026,12.942,-0.431,0.0,-93.842,-41.056
3.64,-3.018,11.4,-0.479,46.921,3.832,12.358,0.862,46.921,-3.739,13.086,-0.144,23.46,-87.977,-41.056
3.645,-3.114,11.688,-0.91,46.921,3.832,12.31,1.341,46.921,-3.595,12.942,0.288,41.056,-87.977,-41.056
3.65,-3.209,11.879,-1.341,52.786,3.784,12.215,1.677,52.786,-3.451,12.798,0.719,52.786,-82.111,-46.921
3.6550000000000002,-3.161,11.831,-1.629,52.786,3.64,11.975,1.916,52.786,-3.307,12.511,1.15,64.516,-82.111,-46.921
3.66,-3.161,11.736,-1.868,58.651,3.497,11.736,2.156,58.651,-3.164,12.223,1.438,70.381,-87.977,-52.786
3.665,-3.066,11.736,-2.06,64.516,3.257,11.448,2.299,70.381,-3.02,11.935,1.726,76.246,-87.977,-58.651
3.67,-3.114,11.592,-2.108,70.381,3.114,11.017,2.347,70.381,-2.732,11.504,1.869,76.246,-93.842,-64.516
3.6750000000000003,-3.018,11.352,-2.156,76.246,3.018,10.73,2.395,76.246,-2.445,10.929,2.013,76.246,-99.707,-70.381
3.68,-2.922,11.209,-2.203,76.246,2.874,10.49,2.395,76.246,-2.301,10.497,2.013,76.246,-105.572,-70.381
3.685,-3.018,11.065,-2.156,76.246,2.826,10.251,2.299,76.246,-2.013,10.21,2.013,70.381,-111.437,-70.381
3.69,-2.874,10.921,-1.916,76.246,2.73,10.107,1.964,76.246,-2.013,9.922,2.013,64.516,-123.167,-70.381
3.6950000000000003,-2.778,10.969,-1.677,76.246,2.682,10.011,1.724,76.246,-1.869,9.635,1.869,58.651,-129.032,-70.381
3.7,-2.682,10.921,-1.341,76.246,2.539,9.867,1.341,76.246,-1.869,9.491,1.582,52.786,-140.762,-76.246
3.705,-2.587,10.73,-0.862,82.111,2.443,9.676,0.814,82.111,-1.726,9.203,1.15,46.921,-152.493,-76.246
3.71,-2.443,10.394,-0.335,82.111,2.347,9.484,0.287,82.111,-1.582,9.059,0.719,35.191,-164.223,-82.111
3.715,-2.251,9.963,0.192,87.977,2.299,9.293,-0.287,87.977,-1.582,8.916,0.144,23.46,-175.953,-82.111
3.72,-2.012,9.436,0.766,87.977,2.251,9.053,-0.862,87.977,-1.582,8.916,-0.431,17.595,-181.818,-82.111
3.725,-1.916,8.957,1.389,87.977,2.108,8.718,-1.533,87.977,-1.582,8.916,-1.007,0.0,-193.548,-87.977
3.73,-1.724,8.43,2.108,87.977,2.012,8.335,-2.251,87.977,-1.582,8.916,-1.582,0.0,-199.413,-87.977
3.735,-1.437,7.808,2.826,87.977,1.868,7.951,-3.018,87.977,-1.582,8.628,-2.301,0.0,-205.279,-87.977
3.74,-1.245,7.185,3.593,87.977,1.724,7.472,-3.832,82.111,-1.582,8.484,-3.02,0.0,-211.144,-87.977
3.745,-1.102,6.754,4.503,82.111,1.533,6.993,-4.742,82.111,-1.438,8.197,-3.739,0.0,-211.144,-87.977
3.75,-0.91,6.419,5.556,76.246,1.389,6.61,-5.892,76.246,-1.438,7.765,-4.602,11.73,-217.009,-82.111
3.755,-0.814,6.131,6.85,76.246,1.245,6.179,-7.281,70.381,-1.15,7.334,-5.608,17.595,-217.009,-76.246
3.7600000000000002,-0.575,5.844,8.383,64.516,1.198,5.796,-8.862,64.516,-1.007,6.759,-6.759,23.46,-217.009,-70.381
3.765,-0.527,5.652,10.107,64.516,1.245,5.509,-10.586,58.651,-1.007,6.327,-8.197,29.326,-217.009,-70.381
3.77,-0.431,5.604,11.879,52.786,1.581,5.173,-12.358,52.786,-1.007,6.04,-9.778,35.191,-217.009,-64.516
3.775,-0.623,5.604,13.604,46.921,2.012,4.934,-13.987,41.056,-1.294,5.608,-11.648,35.191,-217.009,-58.651
3.7800000000000002,-0.719,5.652,15.089,41.056,2.347,4.742,-15.424,35.191,-1.869,5.177,-13.373,35.191,-217.009,-52.786
3.785,-0.862,5.461,16.43,35.191,2.826,4.551,-16.669,29.326,-2.445,4.745,-14.811,35.191,-211.144,-41.056
3.79,-0.91,5.125,17.579,29.326,3.209,4.311,-17.723,23.46,-3.02,4.458,-16.249,29.326,-199.413,-35.191
3.795,-1.006,4.742,18.489,23.46,3.497,4.119,-18.489,23.46,-3.739,4.314,-17.4,23.46,-187.683,-29.326
3.8000000000000003,-1.006,4.311,19.112,17.595,3.688,4.072,-18.968,11.73,-4.314,4.17,-18.263,17.595,-175.953,-23.46
3.805,-1.006,3.688,19.352,11.73,3.976,4.072,-19.112,5.865,-4.745,4.17,-18.982,0.0,-158.358,-17.595
3.81,-1.054,3.449,19.304,-0.0,4.024,4.263,-18.921,0.0,-5.177,4.458,-19.269,0.0,-134.897,-11.73
3.815,-1.054,3.688,18.921,-5.865,3.928,4.646,-18.489,-5.865,-5.464,4.889,-19.269,0.0,-111.437,0.0
3.8200000000000003,-1.054,4.119,18.298,-11.73,3.784,5.125,-17.819,-11.73,-5.464,5.177,-19.125,11.73,-82.111,5.865
3.825,-0.958,4.598,17.723,-17.595,3.832,5.365,-17.244,-17.595,-5.177,5.752,-18.55,23.46,-52.786,11.73
3.83,-1.245,5.413,17.1,-23.46,3.88,5.7,-16.573,-17.595,-5.033,6.183,-17.831,35.191,-23.46,17.595
3.835,-1.437,6.035,16.19,-23.46,3.976,5.796,-15.615,-17.595,-5.177,6.04,-17.256,46.921,0.0,23.46
3.84,-1.629,5.988,15.184,-17.595,3.928,5.748,-14.657,-17.595,-5.033,6.04,-16.537,58.651,29.326,23.46
3.845,-1.485,6.131,14.322,-11.73,3.688,5.796,-13.843,-11.73,-5.033,5.896,-15.53,58.651,52.786,23.46
3.85,-1.437,6.754,13.508,-5.865,3.401,6.131,-13.077,-5.865,-4.889,5.752,-14.668,58.651,70.381,17.595
3.855,-1.533,7.425,12.502,-5.865,3.114,6.419,-11.927,0.0,-4.458,5.752,-13.949,58.651,93.842,11.73
3.86,-1.437,7.76,11.161,-5.865,2.682,6.658,-10.634,0.0,-3.883,5.896,-13.086,58.651,111.437,11.73
3.865,-1.533,7.616,9.963,-0.0,2.443,6.802,-9.436,5.865,-3.307,5.896,-11.935,52.786,129.032,5.865
3.87,-1.581,7.281,8.43,5.865,2.203,6.658,-7.856,5.865,-2.732,6.183,-10.785,41.056,134.897,5.865
3.875,-1.724,6.754,6.706,5.865,1.82,6.419,-6.083,11.73,-2.301,6.471,-9.491,35.191,146.628,0.0
3.88,-1.533,5.892,5.03,5.865,1.437,6.131,-4.455,11.73,-1.726,6.471,-7.909,23.46,146.628,0.0
3.8850000000000002,-1.293,5.365,3.64,-0.0,1.15,6.131,-3.066,5.865,-1.15,6.471,-6.183,17.595,146.628,0.0
3.89,-1.341,5.556,2.251,-5.865,1.15,6.467,-1.629,-5.865,-0.719,6.615,-4.602,17.595,146.628,0.0
3.895,-1.485,6.083,0.862,-17.595,1.341,7.089,-0.287,-17.595,-0.431,6.902,-3.164,23.46,140.762,5.865
3.9,-1.677,6.658,-0.335,-29.326,1.677,7.712,0.91,-35.191,-0.575,7.334,-1.726,29.326,134.897,17.595
3.9050000000000002,-1.964,7.233,-1.629,-41.056,2.156,8.335,2.251,-41.056,-0.575,8.053,-0.431,41.056,123.167,29.326
3.91,-2.251,7.951,-3.018,-46.921,2.251,8.909,3.593,-46.921,-1.007,8.484,0.863,46.921,117.302,41.056
3.915,-2.395,8.622,-4.311,-46.921,2.251,9.484,4.838,-46.921,-1.582,9.059,2.157,58.651,111.437,46.921
3.92,-2.587,9.532,-5.509,-46.921,2.06,9.963,6.083,-41.056,-1.582,9.491,3.595,70.381,105.572,46.921
3.9250000000000003,-2.635,10.251,-6.754,-41.056,2.012,10.346,7.281,-41.056,-1.294,9.922,4.745,82.111,93.842,46.921
3.93,-2.97,10.634,-7.856,-35.191,2.06,10.586,8.335,-35.191,-0.863,10.066,6.04,87.977,87.977,46.921
3.935,-2.97,10.873,-8.718,-29.326,1.916,10.778,9.197,-23.46,-0.719,10.354,7.19,87.977,70.381,41.056
3.94,-3.018,11.304,-9.484,-23.46,1.868,11.017,9.82,-17.595,-0.575,10.354,8.197,87.977,58.651,35.191
3.9450000000000003,-3.066,11.688,-9.867,-11.73,1.772,11.209,10.059,-11.73,-0.431,10.497,9.059,87.977,35.191,29.326
3.95,-3.018,12.071,-9.867,-5.865,1.82,11.448,10.011,0.0,-0.144,10.497,9.635,87.977,17.595,17.595
3.955,-3.161,12.598,-9.724,5.865,2.012,11.496,9.867,11.73,-0.144,10.641,9.778,82.111,-11.73,11.73
3.96,-3.209,12.885,-9.484,17.595,1.868,11.352,9.532,23.46,-0.144,10.785,9.635,76.246,-29.326,0.0
3.9650000000000003,-2.826,12.789,-8.957,29.326,1.82,11.065,8.909,35.191,-0.288,10.354,9.491,70.381,-52.786,-11.73
3.97,-3.353,13.173,-8.526,46.921,2.108,11.065,8.574,46.921,-0.144,10.066,9.059,58.651,-76.246,-23.46
3.975,-2.491,12.55,-7.999,58.651,1.677,10.778,7.904,58.651,-0.288,9.635,8.484,41.056,-99.707,-35.191
3.98,-2.73,12.215,-7.329,64.516,2.06,10.73,7.233,70.381,-0.431,9.635,8.053,23.46,-123.167,-46.921
3.985,-2.491,12.262,-6.802,82.111,1.82,10.586,6.61,82.111,-0.288,9.635,7.334,0.0,-146.628,-58.651
3.99,-2.012,11.448,-5.892,87.977,1.485,10.155,5.556,87.977,-0.719,9.491,6.615,-17.595,-164.223,-70.381
3.995,-1.916,10.73,-4.79,93.842,1.677,9.772,4.407,93.842,-0.575,9.491,5.896,-35.191,-181.818,-82.111
4.0,-1.677,10.011,-3.449,99.707,1.581,9.388,2.922,93.842,-0.431,9.347,4.745,-46.921,-199.413,-87.977
4.005,-1.485,9.053,-1.724,105.572,1.724,8.862,1.102,99.707,-0.719,9.203,3.451,-58.651,-217.009,-93.842
4.01,-1.198,8.047,0.287,111.437,1.916,8.335,-0.862,111.437,-0.863,9.059,1.869,-64.516,-228.739,-99.707
4.015,-0.91,7.233,2.347,117.302,2.012,7.856,-2.97,117.302,-1.294,8.916,-0.0,-70.381,-234.604,-105.572
4.0200000000000005,-0.671,6.467,4.551,117.302,2.06,7.233,-5.077,111.437,-1.869,8.628,-2.013,-64.516,-240.469,-111.437
4.025,-0.766,5.796,6.419,111.437,2.539,6.658,-6.802,111.437,-2.301,8.34,-4.17,-58.651,-240.469,-117.302
4.03,-1.006,5.221,8.095,105.572,3.161,6.131,-8.335,105.572,-2.445,7.909,-6.183,-46.921,-240.469,-111.437
4.035,-1.198,4.694,9.58,99.707,3.497,5.652,-9.772,93.842,-3.307,7.334,-7.765,-35.191,-228.739,-105.572
4.04,-1.389,4.503,10.873,87.977,3.832,5.317,-10.921,87.977,-4.17,6.759,-9.203,-23.46,-217.009,-105.572
4.045,-1.724,4.407,11.783,82.111,4.359,5.125,-11.736,76.246,-4.602,6.471,-10.497,-11.73,-199.413,-93.842
4.05,-2.108,4.407,12.502,70.381,4.694,4.934,-12.31,70.381,-5.033,6.04,-11.504,0.0,-181.818,-82.111
4.055,-2.443,4.694,12.837,64.516,4.742,4.934,-12.55,58.651,-5.608,5.752,-12.223,17.595,-158.358,-76.246
4.0600000000000005,-2.539,5.221,12.885,52.786,4.79,5.221,-12.55,52.786,-5.896,5.321,-12.654,29.326,-140.762,-64.516
4.065,-2.778,5.796,12.741,46.921,4.838,5.652,-12.262,41.056,-5.752,5.177,-12.798,35.191,-117.302,-58.651
4.07,-2.97,6.562,12.262,35.191,4.79,6.179,-11.783,35.191,-5.752,5.321,-12.798,35.191,-93.842,-46.921
4.075,-3.257,7.233,11.736,35.191,4.982,6.514,-11.304,35.191,-5.464,5.608,-12.511,41.056,-76.246,-41.056
4.08,-3.545,7.377,11.257,29.326,5.173,6.514,-10.778,29.326,-5.321,6.04,-11.935,35.191,-58.651,-35.191
4.085,-3.688,7.329,10.73,29.326,5.173,6.323,-10.251,29.326,-5.464,6.183,-11.504,35.191,-46.921,-29.326
4.09,-3.688,7.089,10.155,29.326,5.125,6.131,-9.628,35.191,-5.608,6.04,-10.929,23.46,-35.191,-23.46
4.095,-3.928,6.802,9.388,35.191,5.125,5.892,-8.814,29.326,-5.608,5.752,-10.354,17.595,-23.46,-29.326
4.1,-3.88,6.323,8.478,29.326,4.934,5.652,-7.904,29.326,-5.464,5.464,-9.778,0.0,-11.73,-23.46
4.105,-3.976,5.748,7.52,29.326,4.934,5.461,-6.85,23.46,-5.177,5.464,-8.916,0.0,-5.865,-23.46
4.11,-4.119,5.413,6.419,23.46,4.886,5.461,-5.748,23.46,-5.033,5.464,-7.909,-11.73,0.0,-23.46
4.115,-4.119,5.269,5.413,17.595,4.79,5.652,-4.838,17.595,-4.889,5.464,-6.902,-11.73,5.865,-17.595
4.12,-4.263,5.365,4.551,11.73,4.79,5.94,-3.976,11.73,-4.745,5.752,-5.896,-17.595,11.73,-17.595
4.125,-4.311,5.748,3.928,5.865,4.79,6.323,-3.401,5.865,-4.602,6.04,-4.889,-11.73,17.595,-11.73
4.13,-4.503,6.275,3.401,-0.0,4.934,6.658,-2.922,0.0,-4.602,6.327,-4.17,-11.73,17.595,-5.865
4.135,-4.646,6.85,3.114,-5.865,5.077,6.946,-2.635,-5.865,-4.458,6.759,-3.739,-5.865,17.595,0.0
4.14,-4.79,7.425,2.826,-5.865,5.173,7.233,-2.395,0.0,-4.602,6.902,-3.307,0.0,17.595,5.865
4.1450000000000005,-4.838,7.76,2.635,-5.865,5.173,7.377,-2.251,-5.865,-4.745,6.902,-3.02,0.0,11.73,5.865
4.15,-4.886,7.999,2.443,-5.865,5.173,7.52,-2.06,0.0,-4.745,6.902,-2.732,0.0,5.865,5.865
4.155,-4.886,8.095,2.299,-5.865,5.221,7.664,-1.868,0.0,-4.745,7.046,-2.588,0.0,5.865,5.865
4.16,-4.886,8.143,2.156,-0.0,5.269,7.808,-1.82,0.0,-4.745,7.19,-2.445,0.0,0.0,5.865
4.165,-4.838,8.143,2.203,5.865,5.269,7.856,-1.82,5.865,-4.745,7.334,-2.157,-5.865,0.0,5.865
4.17,-4.838,8.239,2.203,5.865,5.221,7.904,-1.82,5.865,-4.889,7.478,-2.157,-11.73,-5.865,0.0
4.175,-4.886,8.191,2.251,5.865,5.269,7.904,-1.916,11.73,-4.889,7.621,-2.157,-11.73,-11.73,0.0
4.18,-4.838,8.095,2.395,11.73,5.269,7.856,-2.108,11.73,-4.745,7.621,-2.157,-17.595,-11.73,-5.865
4.1850000000000005,-4.838,7.999,2.587,11.73,5.269,7.76,-2.299,11.73,-4.889,7.621,-2.301,-17.595,-17.595,-5.865
4.19,-4.79,7.904,2.826,11.73,5.269,7.664,-2.491,11.73,-4.889,7.621,-2.588,-23.46,-23.46,-11.73
4.195,-4.742,7.808,3.066,17.595,5.269,7.568,-2.778,17.595,-4.889,7.478,-2.732,-23.46,-23.46,-11.73
4.2,-4.694,7.616,3.401,17.595,5.173,7.377,-3.161,17.595,-4.889,7.478,-3.02,-23.46,-29.326,-11.73
4.205,-4.551,7.472,3.736,17.595,5.077,7.281,-3.497,17.595,-4.889,7.334,-3.307,-23.46,-29.326,-11.73
4.21,-4.407,7.377,4.072,17.595,5.03,7.185,-3.784,17.595,-4.889,7.19,-3.595,-29.326,-29.326,-11.73
4.215,-6.419,18.873,2.443,11.73,6.419,14.178,-2.203,17.595,-4.889,7.046,-3.883,-29.326,-35.191,-11.73
4.22,-5.604,15.52,2.156,29.326,7.089,15.615,-1.82,35.191,-4.745,7.046,-4.17,-29.326,-35.191,-11.73
4.225,-3.401,8.622,3.401,58.651,4.119,9.341,-3.161,58.651,-5.464,12.654,-2.732,-41.056,-35.191,-17.595
4.23,-3.736,8.287,3.066,52.786,3.353,6.898,-2.97,46.921,-6.902,14.955,-2.445,-64.516,-46.921,-46.921
4.235,-4.407,8.67,3.545,41.056,4.646,7.664,-3.257,41.056,-3.451,9.203,-3.451,-58.651,-46.921,-58.651
4.24,-4.263,7.712,3.497,35.191,5.796,8.766,-3.257,35.191,-2.013,5.464,-3.595,-52.786,-41.056,-46.921
4.245,-3.784,6.85,4.119,29.326,5.413,8.622,-3.784,29.326,-4.889,8.053,-3.595,-58.651,-52.786,-35.191
4.25,-4.024,8.143,4.359,23.46,5.221,9.197,-4.072,23.46,-6.327,9.778,-3.739,-64.516,-58.651,-29.326
4.255,-4.072,9.101,4.694,23.46,4.79,9.436,-4.503,23.46,-5.608,9.635,-4.17,-58.651,-52.786,-23.46
4.26,-3.736,9.149,5.173,29.326,4.503,9.293,-4.934,29.326,-5.033,9.635,-4.458,-41.056,-41.056,-23.46
4.265,-3.736,8.862,5.221,29.326,4.694,9.245,-4.886,29.326,-4.314,9.491,-5.033,-29.326,-35.191,-23.46
4.2700000000000005,-3.688,8.526,5.173,23.46,4.742,9.149,-4.838,23.46,-4.314,9.491,-5.321,-23.46,-35.191,-23.46
4.275,-3.736,8.239,5.365,17.595,4.694,8.718,-5.125,17.595,-4.602,9.635,-5.177,-23.46,-35.191,-23.46
4.28,-3.688,7.951,5.7,17.595,4.646,8.239,-5.413,17.595,-4.745,9.635,-5.177,-17.595,-35.191,-17.595
4.285,-3.688,7.76,5.94,11.73,4.646,7.808,-5.652,11.73,-4.602,8.916,-5.608,-11.73,-29.326,-11.73
4.29,-3.64,7.472,6.083,11.73,4.646,7.52,-5.7,11.73,-4.602,8.34,-5.752,0.0,-29.326,-11.73
4.295,-3.688,7.425,6.131,11.73,4.646,7.377,-5.796,11.73,-4.602,7.909,-6.04,0.0,-23.46,-11.73
4.3,-3.64,7.425,6.323,11.73,4.503,7.329,-5.94,11.73,-4.745,7.478,-6.04,0.0,-23.46,-11.73
4.305,-3.545,7.52,6.323,5.865,4.551,7.377,-5.94,5.865,-4.602,7.334,-6.183,0.0,-17.595,-5.865
4.3100000000000005,-3.736,7.712,6.179,5.865,4.551,7.377,-5.796,11.73,-4.458,7.334,-6.327,0.0,-11.73,-5.865
4.315,-3.688,7.76,6.083,5.865,4.359,7.425,-5.7,11.73,-4.602,7.334,-6.183,0.0,-11.73,-5.865
4.32,-3.64,7.76,5.892,11.73,4.263,7.472,-5.556,11.73,-4.314,7.19,-6.183,0.0,-5.865,-5.865
4.325,-3.64,7.712,5.748,11.73,4.167,7.472,-5.413,11.73,-4.026,7.19,-6.04,0.0,-5.865,-5.865
4.33,-3.593,7.712,5.652,11.73,4.072,7.472,-5.317,11.73,-4.026,7.334,-5.896,0.0,-5.865,-11.73
4.335,-3.593,7.664,5.556,11.73,4.119,7.425,-5.221,11.73,-3.739,7.334,-5.752,0.0,-5.865,-11.73
4.34,-3.64,7.616,5.509,11.73,4.167,7.281,-5.125,11.73,-3.739,7.334,-5.608,0.0,-5.865,-11.73
4.345,-3.688,7.52,5.413,11.73,4.167,7.233,-5.03,11.73,-3.739,7.19,-5.464,0.0,-5.865,-11.73
4.3500000000000005,-3.64,7.52,5.221,5.865,4.119,7.281,-4.79,5.865,-3.739,7.19,-5.464,-5.865,-5.865,-5.865
4.355,-3.688,7.616,5.077,5.865,4.072,7.377,-4.742,5.865,-3.739,7.046,-5.321,-5.865,-11.73,-5.865
4.36,-3.688,7.76,5.077,5.865,4.119,7.52,-4.742,5.865,-3.739,7.19,-5.177,-11.73,-11.73,-5.865
4.365,-3.784,7.904,5.125,-0.0,4.263,7.664,-4.79,5.865,-3.595,7.19,-5.177,-11.73,-17.595,0.0
4.37,-3.784,7.951,5.173,-0.0,4.311,7.664,-4.886,0.0,-3.739,7.478,-5.177,-11.73,-17.595,0.0
4.375,-3.832,7.904,5.269,-0.0,4.455,7.664,-4.934,5.865,-3.883,7.478,-5.177,-17.595,-23.46,0.0
4.38,-3.88,7.808,5.317,-0.0,4.598,7.616,-5.03,5.865,-4.026,7.478,-5.321,-17.595,-23.46,0.0
4.385,-3.88,7.664,5.461,5.865,4.551,7.52,-5.173,5.865,-4.17,7.478,-5.321,-17.595,-23.46,0.0
4.39,-3.784,7.472,5.556,5.865,4.646,7.472,-5.221,5.865,-4.314,7.478,-5.464,-23.46,-23.46,0.0
4.3950000000000005,-3.832,7.329,5.604,11.73,4.694,7.425,-5.221,11.73,-4.314,7.478,-5.608,-23.46,-23.46,-5.865
4.4,-3.784,7.089,5.652,11.73,4.646,7.377,-5.269,11.73,-4.602,7.478,-5.608,-23.46,-23.46,-5.865
4.405,-3.736,7.137,5.556,11.73,4.598,7.425,-5.173,11.73,-4.602,7.478,-5.608,-23.46,-23.46,-11.73
4.41,-3.784,7.185,5.413,5.865,4.646,7.472,-5.03,11.73,-4.458,7.621,-5.608,-17.595,-23.46,-5.865
4.415,-3.736,7.185,5.317,5.865,4.598,7.568,-4.886,5.865,-4.602,7.621,-5.464,-17.595,-17.595,-5.865
4.42,-3.784,7.281,5.221,5.865,4.646,7.712,-4.838,5.865,-4.602,7.765,-5.321,-11.73,-17.595,-5.865
4.425,-3.784,7.425,5.077,-0.0,4.694,7.808,-4.646,0.0,-4.458,7.909,-5.177,-5.865,-11.73,0.0
4.43,-3.832,7.568,4.838,-0.0,4.694,7.856,-4.407,0.0,-4.602,8.053,-5.177,0.0,-11.73,0.0
4.4350000000000005,-3.832,7.76,4.598,-0.0,4.742,7.904,-4.167,0.0,-4.602,8.053,-4.889,0.0,-5.865,0.0
4.44,-3.88,7.904,4.359,-5.865,4.694,8.047,-3.928,0.0,-4.602,8.053,-4.745,0.0,-5.865,5.865
4.445,-3.88,8.143,4.167,-5.865,4.79,8.239,-3.736,-5.865,-4.602,8.053,-4.458,11.73,0.0,5.865
4.45,-4.024,8.383,3.976,-5.865,4.838,8.43,-3.593,-5.865,-4.602,8.197,-4.314,17.595,0.0,5.865
4.455,-3.976,8.574,3.784,-5.865,4.79,8.622,-3.401,-5.865,-4.602,8.197,-4.026,17.595,0.0,5.865
4.46,-3.976,8.814,3.545,-5.865,4.79,8.766,-3.161,-5.865,-4.602,8.484,-3.883,17.595,0.0,11.73
4.465,-4.072,9.005,3.401,-5.865,4.79,8.862,-3.018,-5.865,-4.602,8.628,-3.595,17.595,5.865,5.865
4.47,-4.024,9.053,3.401,-11.73,4.79,9.005,-3.066,-11.73,-4.602,8.628,-3.451,17.595,5.865,11.73
4.4750000000000005,-4.024,9.293,3.401,-11.73,4.886,9.245,-3.066,-5.865,-4.602,8.772,-3.451,17.595,5.865,11.73
4.48,-4.024,9.58,3.497,-11.73,4.886,9.628,-3.161,-11.73,-4.602,8.916,-3.451,17.595,5.865,11.73
4.485,-4.024,10.011,3.593,-11.73,4.838,9.963,-3.257,-11.73,-4.602,9.203,-3.451,17.595,5.865,11.73
4.49,-4.072,10.442,3.688,-11.73,4.79,10.394,-3.353,-11.73,-4.602,9.635,-3.451,17.595,5.865,17.595
4.495,-4.072,10.969,3.64,-11.73,4.838,10.921,-3.305,-11.73,-4.602,9.922,-3.595,17.595,5.865,11.73
4.5,-4.167,11.64,3.593,-11.73,4.886,11.64,-3.305,-5.865,-4.458,10.354,-3.739,17.595,5.865,11.73
4.505,-4.407,12.31,3.401,-5.865,5.125,12.454,-2.97,0.0,-4.458,10.929,-3.595,17.595,5.865,11.73
4.51,-4.311,12.885,3.161,5.865,5.077,13.173,-2.778,5.865,-4.458,11.648,-3.595,11.73,5.865,11.73
4.515,-4.263,12.933,2.491,17.595,5.173,13.699,-2.347,23.46,-4.602,12.654,-3.164,11.73,0.0,5.865
4.5200000000000005,-4.359,13.604,2.922,29.326,4.79,13.747,-2.778,35.191,-4.745,13.661,-2.732,11.73,0.0,-11.73
4.525,-4.119,13.795,3.353,46.921,4.742,13.652,-3.209,46.921,-4.458,13.949,-2.732,17.595,0.0,-23.46
4.53,-4.119,13.508,3.688,52.786,4.934,13.46,-3.449,52.786,-4.026,13.661,-3.164,23.46,-5.865,-35.191
4.535,-4.167,13.125,3.928,58.651,5.125,13.268,-3.688,58.651,-4.17,13.517,-3.595,23.46,-11.73,-46.921
4.54,-4.167,12.741,4.119,64.516,5.221,13.077,-3.88,64.516,-4.458,13.517,-3.883,23.46,-11.73,-52.786
4.545,-4.119,12.454,4.263,64.516,5.221,12.885,-3.976,70.381,-4.745,13.373,-4.026,29.326,-17.595,-58.651
4.55,-4.024,11.975,4.311,70.381,5.125,12.55,-3.928,70.381,-4.889,13.23,-4.17,29.326,-17.595,-64.516
4.555,-3.928,11.544,4.167,76.246,4.934,12.119,-3.832,76.246,-4.889,13.23,-4.314,35.191,-17.595,-64.516
4.5600000000000005,-3.832,11.161,4.072,76.246,4.694,11.64,-3.736,82.111,-4.889,12.798,-4.314,41.056,-17.595,-70.381
4.565,-3.736,10.825,4.024,82.111,4.503,11.209,-3.688,82.111,-4.602,12.367,-4.17,46.921,-11.73,-76.246
4.57,-3.64,10.634,3.928,82.111,4.311,10.921,-3.64,82.111,-4.314,11.935,-4.026,58.651,-11.73,-76.246
4.575,-3.545,10.442,3.832,82.111,4.167,10.634,-3.545,82.111,-4.026,11.36,-4.026,64.516,-11.73,-76.246
4.58,-3.497,10.203,3.784,82.111,4.072,10.251,-3.497,82.111,-3.883,11.073,-3.883,70.381,-11.73,-82.111
4.585,-3.449,9.867,3.832,82.111,3.976,9.772,-3.545,87.977,-3.739,10.641,-3.883,76.246,-11.73,-82.111
4.59,-3.401,9.484,3.88,87.977,3.784,9.149,-3.64,87.977,-3.595,10.21,-3.883,82.111,-11.73,-82.111
4.595,-3.257,9.005,3.976,87.977,3.688,8.478,-3.736,93.842,-3.451,9.635,-3.883,82.111,-17.595,-87.977
4.6000000000000005,-3.209,8.287,4.167,93.842,3.64,7.664,-3.88,93.842,-3.307,8.916,-4.026,82.111,-17.595,-87.977
4.605,-3.161,7.616,4.263,93.842,3.545,6.946,-3.976,93.842,-3.164,8.053,-4.17,82.111,-23.46,-93.842
4.61,-3.066,6.802,4.311,93.842,3.497,6.179,-4.024,93.842,-3.164,7.19,-4.314,76.246,-23.46,-93.842
4.615,-2.97,5.988,4.407,93.842,3.449,5.556,-4.024,93.842,-3.164,6.471,-4.314,76.246,-23.46,-93.842
4.62,-2.97,5.317,4.359,87.977,3.401,4.934,-3.976,87.977,-3.164,5.896,-4.458,70.381,-29.326,-93.842
4.625,-2.97,4.694,4.359,82.111,3.401,4.311,-4.024,82.111,-3.164,5.321,-4.458,64.516,-29.326,-87.977
4.63,-2.922,3.928,4.455,76.246,3.401,3.64,-4.072,76.246,-3.164,4.745,-4.458,64.516,-29.326,-87.977
4.635,-2.97,3.353,4.551,76.246,3.449,3.161,-4.167,70.381,-3.164,4.026,-4.458,64.516,-29.326,-82.111
4.64,-3.018,3.066,4.646,64.516,3.449,2.778,-4.311,64.516,-3.307,3.595,-4.458,58.651,-29.326,-76.246
4.6450000000000005,-3.114,2.73,4.79,58.651,3.545,2.443,-4.407,58.651,-3.307,3.02,-4.602,58.651,-29.326,-70.381
4.65,-3.209,2.587,4.934,52.786,3.736,2.299,-4.551,46.921,-3.451,2.588,-4.745,58.651,-29.326,-58.651
4.655,-3.449,2.539,5.03,41.056,3.832,2.108,-4.694,41.056,-3.595,2.301,-4.889,58.651,-23.46,-52.786
4.66,-3.545,2.251,5.125,35.191,3.928,1.724,-4.694,35.191,-3.739,2.157,-5.033,58.651,-23.46,-46.921
4.665,-3.64,1.724,5.125,29.326,4.024,1.198,-4.694,29.326,-3.739,1.869,-5.177,52.786,-23.46,-35.191
4.67,-3.736,0.91,5.173,29.326,4.024,0.527,-4.742,29.326,-3.883,1.438,-5.177,52.786,-23.46,-35.191
4.675,-3.688,0.335,5.221,23.46,3.88,0.0,-4.79,23.46,-4.026,0.863,-5.177,46.921,-23.46,-29.326
4.68,-3.688,-0.048,5.221,17.595,3.832,-0.479,-4.79,11.73,-4.026,0.288,-5.177,46.921,-23.46,-23.46
4.6850000000000005,-3.64,-0.719,5.269,5.865,3.736,-1.054,-4.886,5.865,-3.739,-0.288,-5.321,46.921,-23.46,-17.595
4.69,-3.545,-1.437,5.413,-0.0,3.64,-1.724,-5.03,-5.865,-3.739,-0.719,-5.321,41.056,-23.46,-11.73
4.695,-3.401,-1.868,5.604,-11.73,3.497,-2.299,-5.269,-17.595,-3.739,-1.294,-5.321,41.056,-23.46,0.0
4.7,-3.209,-1.964,5.988,-23.46,3.257,-2.491,-5.652,-29.326,-3.595,-2.013,-5.608,41.056,-23.46,11.73
4.705,-2.826,-1.581,6.419,-41.056,2.922,-2.108,-6.083,-41.056,-3.451,-2.588,-5.752,35.191,-17.595,23.46
4.71,-2.539,-0.527,6.85,-52.786,2.682,-1.198,-6.514,-58.651,-3.307,-2.732,-6.183,35.191,-17.595,35.191
4.715,-2.395,0.766,7.089,-70.381,2.682,-0.096,-6.754,-76.246,-2.876,-2.301,-6.615,29.326,-17.595,52.786
4.72,-2.347,1.868,7.233,-82.111,2.682,1.006,-6.898,-87.977,-2.588,-1.582,-7.046,23.46,-17.595,64.516
4.7250000000000005,-2.251,2.635,7.472,-87.977,2.682,1.82,-7.089,-93.842,-2.588,-0.431,-7.19,11.73,-17.595,82.111
4.73,-2.108,3.305,7.616,-87.977,2.587,2.635,-7.233,-93.842,-2.588,0.575,-7.334,0.0,-17.595,87.977
4.735,-2.012,3.832,7.52,-87.977,2.682,2.97,-7.089,-87.977,-2.588,1.582,-7.621,-11.73,-17.595,93.842
4.74,-2.108,3.545,7.472,-87.977,2.73,2.874,-7.089,-87.977,-2.588,2.301,-7.621,-23.46,-17.595,93.842
4.745,-1.82,2.874,7.425,-87.977,2.587,2.682,-7.041,-87.977,-2.732,2.588,-7.478,-29.326,-11.73,93.842
4.75,-1.581,2.539,7.233,-82.111,2.299,2.635,-6.754,-82.111,-2.732,2.732,-7.478,-35.191,-11.73,93.842
4.755,-1.437,2.491,6.802,-87.977,2.251,2.778,-6.275,-87.977,-2.732,2.732,-7.334,-41.056,-5.865,87.977
4.76,-1.533,2.539,6.179,-87.977,2.347,2.97,-5.604,-93.842,-2.445,3.02,-7.046,-41.056,0.0,87.977
4.765,-1.581,2.682,5.509,-93.842,2.347,3.353,-4.934,-99.707,-2.445,3.164,-6.471,-41.056,5.865,93.842
4.7700000000000005,-1.581,3.114,4.982,-99.707,2.251,3.976,-4.503,-105.572,-2.588,3.595,-5.752,-35.191,11.73,99.707
4.775,1.102,-3.209,-6.514,-105.572,20.118,23.758,20.453,-105.572,-2.445,4.026,-5.177,-29.326,17.595,99.707
4.78,-22.848,22.944,-4.119,-58.651,-1.389,17.196,-1.485,-17.595,-2.157,4.745,-4.745,-23.46,23.46,105.572
4.785,8.957,24.142,6.227,64.516,-7.616,13.699,-4.072,82.111,-22.289,44.434,19.988,41.056,41.056,99.707
4.79,-2.395,18.633,-0.91,64.516,2.874,15.136,1.772,46.921,13.949,9.059,-5.896,129.032,70.381,-17.595
4.795,-4.359,11.783,-3.305,-35.191,6.85,12.837,3.545,-58.651,5.752,10.641,-2.301,52.786,-11.73,-87.977
4.8,-6.658,9.867,-0.527,-76.246,8.047,9.963,0.24,-70.381,-2.876,15.099,2.301,-46.921,-52.786,-11.73
4.805,-4.886,11.4,0.096,-41.056,7.425,12.454,0.719,-35.191,-7.765,12.654,2.732,-76.246,-76.246,76.246
4.8100000000000005,-4.646,14.083,-0.575,-11.73,5.604,15.903,0.719,-5.865,-8.484,9.778,-0.431,-70.381,-70.381,64.516
4.815,-3.497,16.669,-0.24,5.865,3.401,17.867,0.431,11.73,-7.765,13.805,0.719,-64.516,-64.516,29.326
4.82,-2.97,16.909,-0.192,17.595,2.922,17.867,0.335,17.595,-4.17,16.968,0.288,-58.651,-46.921,5.865
4.825,-2.97,15.28,0.24,11.73,3.353,16.142,-0.383,11.73,-1.869,18.694,0.144,-46.921,-46.921,-11.73
4.83,-3.018,13.891,1.964,11.73,3.497,14.514,-2.347,5.865,-1.726,18.406,-0.144,-35.191,-52.786,-11.73
4.835,-2.587,13.077,4.119,-0.0,3.736,13.173,-4.359,0.0,-2.445,16.537,-1.15,-23.46,-70.381,-11.73
4.84,-2.73,12.31,6.035,-5.865,4.072,11.975,-6.179,-11.73,-2.876,14.668,-3.307,-11.73,-76.246,-5.865
4.845,-2.682,11.4,7.425,-11.73,4.359,10.921,-7.329,-17.595,-3.595,13.086,-5.177,0.0,-82.111,5.865
4.8500000000000005,-2.826,10.299,8.287,-17.595,4.551,10.011,-8.047,-17.595,-4.17,11.648,-6.759,0.0,-82.111,11.73
4.855,-2.778,9.341,8.574,-11.73,4.215,9.293,-8.335,-11.73,-4.745,10.641,-7.909,0.0,-76.246,17.595
4.86,-2.539,8.814,8.766,-5.865,3.832,8.718,-8.478,-5.865,-4.889,9.778,-8.484,0.0,-70.381,17.595
4.865,-2.635,8.191,8.909,-0.0,3.976,8.143,-8.574,0.0,-4.17,9.347,-8.628,0.0,-58.651,11.73
4.87,-2.778,7.856,8.862,-0.0,4.024,7.76,-8.478,5.865,-3.883,8.772,-8.772,0.0,-52.786,5.865
4.875,-2.826,7.568,8.67,5.865,3.976,7.329,-8.335,5.865,-4.17,8.197,-8.916,0.0,-46.921,0.0
4.88,-3.018,7.568,8.478,5.865,4.167,7.233,-8.047,11.73,-4.17,7.765,-8.772,0.0,-35.191,0.0
4.885,-3.161,7.664,8.143,11.73,4.311,7.425,-7.664,17.595,-4.026,7.19,-8.628,11.73,-29.326,-5.865
4.89,-3.305,7.808,7.329,23.46,4.455,7.712,-6.61,23.46,-4.314,7.19,-8.34,11.73,-23.46,-11.73
4.8950000000000005,-3.449,7.664,6.083,29.326,4.311,7.856,-5.461,35.191,-4.458,7.334,-7.765,0.0,-17.595,-17.595
4.9,-3.161,7.664,5.173,41.056,3.928,7.808,-4.598,46.921,-4.458,7.909,-6.615,0.0,-17.595,-23.46
4.905,-3.209,7.329,4.359,46.921,3.736,7.52,-3.832,52.786,-4.17,8.053,-5.608,0.0,-11.73,-35.191
4.91,-3.161,6.993,3.64,52.786,3.688,7.281,-3.066,52.786,-3.595,7.909,-4.745,11.73,-5.865,-46.921
4.915,-3.257,6.946,3.018,52.786,3.736,7.185,-2.539,52.786,-3.451,7.765,-4.026,17.595,-5.865,-52.786
4.92,-3.401,7.089,2.587,46.921,3.88,7.281,-2.108,46.921,-3.307,7.478,-3.307,17.595,-5.865,-52.786
4.925,-3.497,7.233,2.347,41.056,3.976,7.281,-1.916,41.056,-3.451,7.334,-2.732,23.46,-5.865,-46.921
4.93,-3.545,7.377,2.251,35.191,4.024,7.329,-1.868,41.056,-3.595,7.334,-2.445,29.326,-11.73,-41.056
4.9350000000000005,-3.545,7.616,2.203,35.191,4.024,7.425,-1.868,35.191,-3.739,7.334,-2.301,29.326,-11.73,-41.056
4.94,-3.593,7.904,2.251,29.326,4.072,7.472,-1.916,29.326,-3.739,7.19,-2.157,29.326,-11.73,-35.191
4.945,-3.593,8.143,2.395,29.326,4.215,7.568,-2.108,29.326,-3.739,7.19,-2.301,29.326,-11.73,-29.326
4.95,-3.64,8.143,2.635,29.326,4.311,7.568,-2.299,29.326,-3.739,7.19,-2.301,23.46,-11.73,-23.46
4.955,-3.593,8.095,2.922,29.326,4.311,7.52,-2.682,29.326,-3.883,7.19,-2.588,23.46,-17.595,-23.46
4.96,-3.593,7.951,3.305,29.326,4.359,7.52,-2.97,29.326,-4.026,7.19,-2.732,17.595,-17.595,-23.46
4.965,-3.545,7.951,3.449,29.326,4.359,7.712,-3.161,29.326,-4.17,7.19,-3.164,11.73,-17.595,-23.46
4.97,-3.545,7.999,3.688,29.326,4.359,7.808,-3.401,29.326,-4.17,7.334,-3.307,0.0,-17.595,-23.46
4.9750000000000005,-3.401,7.951,3.976,29.326,4.263,7.808,-3.64,29.326,-4.314,7.621,-3.595,0.0,-17.595,-23.46
4.98,-3.257,7.904,4.072,29.326,4.215,7.808,-3.688,29.326,-4.17,7.765,-3.739,0.0,-11.73,-23.46
4.985,-3.257,7.76,4.072,23.46,4.263,7.808,-3.64,29.326,-4.17,7.765,-4.026,-5.865,-11.73,-23.46
4.99,-3.209,7.664,3.928,23.46,4.167,7.76,-3.449,23.46,-4.17,7.765,-4.026,-5.865,-11.73,-23.46
4.995,-3.161,7.712,3.593,23.46,4.072,7.951,-3.066,23.46,-4.17,7.765,-4.026,-5.865,-5.865,-23.46
5.0,-3.114,7.808,3.209,17.595,4.072,8.287,-2.682,23.46,-4.026,7.909,-3.739,-5.865,0.0,-17.595
5.005,-3.305,8.239,2.682,23.46,4.455,8.814,-1.868,23.46,-4.026,8.197,-3.307,-5.865,0.0,-17.595
5.01,-3.593,8.526,1.82,23.46,4.359,9.245,-1.293,29.326,-4.026,8.772,-2.876,0.0,5.865,-17.595
5.015,-3.545,8.526,0.814,29.326,4.119,9.484,-0.383,35.191,-4.458,9.491,-1.869,0.0,5.865,-17.595
5.0200000000000005,-3.353,9.149,0.287,41.056,3.64,9.484,0.192,41.056,-4.458,10.066,-1.15,11.73,11.73,-23.46
5.025,-3.305,9.197,-0.287,46.921,3.545,9.484,0.766,46.921,-3.451,9.778,-0.575,23.46,11.73,-35.191
5.03,-3.353,9.197,-0.958,46.921,3.593,9.436,1.485,46.921,-3.02,9.635,-0.0,29.326,11.73,-41.056
5.035,-3.545,9.149,-1.629,46.921,3.64,9.293,2.06,46.921,-2.876,9.635,0.575,35.191,11.73,-46.921
5.04,-3.593,9.101,-2.156,46.921,3.688,9.197,2.587,46.921,-3.02,9.491,1.294,41.056,0.0,-46.921
5.045,-3.593,9.005,-2.539,46.921,3.64,9.245,2.97,46.921,-3.02,9.347,1.869,41.056,0.0,-46.921
5.05,-3.64,9.341,-2.826,46.921,3.545,9.436,3.257,46.921,-3.02,9.203,2.445,46.921,-11.73,-46.921
5.055,-3.688,9.772,-3.114,52.786,3.545,9.628,3.449,52.786,-2.876,9.203,2.732,46.921,-17.595,-46.921
5.0600000000000005,-3.784,10.059,-3.305,52.786,3.545,9.82,3.64,52.786,-2.732,9.347,3.02,46.921,-23.46,-46.921
5.065,-3.832,10.346,-3.449,52.786,3.545,9.963,3.784,52.786,-2.588,9.347,3.164,46.921,-35.191,-46.921
5.07,-3.832,10.634,-3.545,58.651,3.497,10.155,3.784,58.651,-2.588,9.491,3.307,46.921,-41.056,-52.786
5.075,-3.688,10.778,-3.305,64.516,3.305,10.251,3.497,64.516,-2.445,9.635,3.451,41.056,-52.786,-52.786
5.08,-3.593,10.73,-2.922,70.381,3.257,10.155,2.97,70.381,-2.445,9.635,3.307,41.056,-64.516,-58.651
5.085,-3.545,10.73,-2.299,76.246,3.209,9.82,2.347,76.246,-2.301,9.778,3.02,35.191,-76.246,-64.516
5.09,-3.449,10.634,-1.629,82.111,3.114,9.341,1.677,87.977,-2.301,9.635,2.445,29.326,-93.842,-70.381
5.095,-3.353,10.107,-1.006,87.977,3.114,8.814,1.006,93.842,-2.157,8.916,1.869,23.46,-105.572,-82.111
5.1000000000000005,-3.114,9.293,-0.383,93.842,3.114,8.239,0.431,93.842,-2.157,8.34,1.15,11.73,-117.302,-87.977
5.105,-3.018,8.43,0.048,93.842,3.161,7.616,0.048,99.707,-2.301,7.909,0.431,0.0,-129.032,-93.842
5.11,-2.874,7.472,0.575,99.707,2.97,7.041,-0.527,99.707,-2.445,7.478,-0.144,-11.73,-140.762,-93.842
5.115,-2.491,6.179,1.341,99.707,2.635,6.275,-1.437,99.707,-2.588,7.046,-0.575,-17.595,-146.628,-93.842
5.12,-2.203,5.03,2.443,99.707,2.491,5.365,-2.587,99.707,-2.445,6.902,-1.294,-23.46,-152.493,-99.707
5.125,-2.012,4.119,3.784,99.707,2.347,4.551,-3.976,93.842,-2.157,6.471,-2.157,-23.46,-158.358,-93.842
5.13,-1.916,3.401,5.413,93.842,2.347,3.784,-5.748,87.977,-2.157,5.752,-3.451,-17.595,-164.223,-99.707
5.135,-1.916,2.97,7.377,82.111,2.395,3.209,-7.76,82.111,-2.157,4.889,-4.889,-11.73,-164.223,-93.842
5.14,-1.964,2.826,9.532,76.246,2.347,2.73,-10.011,70.381,-2.301,4.17,-6.759,0.0,-164.223,-87.977
5.1450000000000005,-1.724,2.778,11.879,64.516,2.299,2.251,-12.406,58.651,-2.301,3.451,-8.772,0.0,-164.223,-76.246
5.15,-1.724,2.73,14.562,52.786,2.539,1.916,-15.136,46.921,-2.157,2.732,-11.073,11.73,-164.223,-64.516
5.155,-1.581,2.682,17.148,41.056,2.874,1.533,-17.723,35.191,-2.301,2.013,-13.517,11.73,-164.223,-52.786
5.16,-1.533,2.347,19.735,23.46,3.401,1.102,-20.214,23.46,-2.732,1.582,-16.249,11.73,-164.223,-41.056
5.165,-1.485,1.581,22.034,11.73,3.928,0.719,-22.513,5.865,-3.595,1.007,-18.838,0.0,-158.358,-29.326
5.17,-1.341,0.766,23.854,-0.0,4.359,0.575,-24.477,-5.865,-4.458,0.575,-21.139,-5.865,-146.628,-17.595
5.175,-1.293,0.24,24.381,-11.73,4.742,0.479,-24.573,-11.73,-5.464,0.719,-23.152,-17.595,-129.032,-5.865
5.18,-1.245,0.048,24.381,-23.46,5.03,0.527,-24.573,-29.326,-6.327,1.007,-24.734,-23.46,-105.572,5.865
5.1850000000000005,-1.245,0.24,24.381,-35.191,4.934,0.814,-24.573,-41.056,-6.902,1.15,-25.74,-23.46,-76.246,23.46
5.19,-1.054,0.814,24.381,-52.786,4.646,1.437,-24.573,-52.786,-7.19,1.294,-26.315,-17.595,-41.056,35.191
5.195,-0.91,1.916,24.381,-64.516,4.119,2.156,-24.573,-70.381,-7.046,1.726,-26.603,-11.73,-5.865,46.921
5.2,-0.479,2.97,24.381,-76.246,3.688,2.874,-24.573,-82.111,-6.615,2.157,-26.172,0.0,35.191,58.651
5.205,-0.479,4.119,23.854,-87.977,3.449,3.64,-24.573,-87.977,-5.752,2.732,-25.309,0.0,76.246,76.246
5.21,-0.527,5.413,22.465,-93.842,3.401,4.503,-24.573,-99.707,-5.321,3.164,-24.59,0.0,111.437,87.977
5.215,-0.862,6.083,20.98,-99.707,3.305,5.173,-20.741,-99.707,-4.745,3.739,-23.439,0.0,140.762,93.842
5.22,-0.671,6.467,19.639,-99.707,3.257,5.988,-19.4,-93.842,-4.602,4.314,-22.145,0.0,170.088,105.572
5.2250000000000005,-0.575,7.233,18.442,-93.842,3.114,6.754,-18.25,-87.977,-4.314,5.177,-20.851,-5.865,193.548,105.572
5.23,-0.479,8.239,17.148,-87.977,2.682,7.425,-17.1,-82.111,-4.314,6.183,-19.557,-11.73,217.009,99.707
5.235,-0.335,8.862,15.807,-82.111,2.347,7.904,-15.663,-76.246,-3.883,6.615,-18.55,-11.73,240.469,93.842
5.24,-0.671,9.245,13.652,-76.246,2.156,8.335,-13.316,-76.246,-3.164,7.19,-17.256,-17.595,258.064,87.977
5.245,-0.862,9.245,10.682,-82.111,1.581,8.526,-10.203,-76.246,-2.732,7.621,-15.818,-23.46,275.66,82.111
5.25,-0.719,8.478,7.568,-82.111,1.006,8.574,-7.089,-76.246,-2.013,8.053,-13.23,-29.326,293.255,82.111
5.255,-0.719,7.999,4.359,-82.111,0.719,8.766,-3.784,-82.111,-1.007,8.628,-10.21,-35.191,299.12,82.111
5.26,-0.91,8.143,1.245,-93.842,0.623,9.341,-0.766,-93.842,-0.288,9.203,-7.046,-41.056,299.12,82.111
5.265,-1.102,8.957,-1.437,-99.707,0.575,10.394,1.82,-105.572,0.288,9.635,-3.739,-35.191,299.12,87.977
5.2700000000000005,-1.341,10.299,-3.64,-111.437,0.766,11.64,3.976,-117.302,0.431,10.354,-0.863,-23.46,293.255,99.707
5.275,-1.724,11.927,-5.556,-123.167,1.15,13.173,5.844,-123.167,0.719,11.504,1.726,-11.73,281.525,111.437
5.28,-2.299,13.556,-7.377,-129.032,1.677,14.514,7.712,-129.032,0.719,12.654,3.883,0.0,263.93,123.167
5.285,-2.874,14.945,-9.149,-129.032,2.06,15.615,9.532,-123.167,0.288,13.949,5.752,17.595,246.334,129.032
5.29,-3.401,15.951,-10.873,-117.302,2.299,16.238,11.257,-111.437,-0.144,15.099,7.765,29.326,228.739,129.032
5.295,-3.784,16.43,-12.31,-99.707,2.395,16.43,12.646,-93.842,-0.288,15.818,9.491,35.191,211.144,123.167
5.3,-4.024,16.669,-13.412,-76.246,2.251,16.286,13.652,-70.381,-0.288,16.106,11.216,46.921,187.683,111.437
5.305,-4.119,16.813,-14.178,-58.651,2.108,15.951,14.466,-46.921,-0.144,15.962,12.654,46.921,158.358,87.977
5.3100000000000005,-4.263,16.621,-14.753,-41.056,2.299,15.52,14.993,-29.326,0.288,15.53,13.517,46.921,129.032,70.381
5.315,-4.311,16.047,-15.089,-17.595,2.539,14.849,15.232,-11.73,0.431,14.811,14.38,46.921,99.707,46.921
5.32,-4.311,15.376,-14.897,-0.0,2.587,14.274,14.945,5.865,0.144,14.38,14.811,35.191,64.516,29.326
5.325,-4.119,14.705,-14.514,17.595,2.682,13.556,14.514,23.46,-0.288,13.661,14.955,23.46,29.326,11.73
5.33,-4.263,14.131,-13.987,35.191,2.826,13.029,14.083,35.191,-0.575,13.086,14.668,11.73,-5.865,-5.865
5.335,-3.832,13.316,-13.556,46.921,2.539,12.31,13.508,52.786,-0.863,12.367,14.236,0.0,-35.191,-23.46
5.34,-3.736,12.502,-12.885,64.516,2.587,11.64,12.837,64.516,-1.007,11.792,13.661,-11.73,-64.516,-41.056
5.345,-3.401,11.927,-12.215,76.246,2.347,11.065,12.071,82.111,-0.863,11.36,13.086,-23.46,-93.842,-58.651
5.3500000000000005,-3.305,11.352,-11.4,87.977,2.203,10.49,11.161,87.977,-1.007,10.785,12.367,-29.326,-117.302,-70.381
5.355,-3.114,10.682,-10.394,99.707,2.06,9.82,10.107,99.707,-0.719,10.21,11.504,-41.056,-134.897,-82.111
5.36,-2.491,9.724,-9.245,111.437,1.485,9.101,8.814,111.437,-0.719,9.635,10.497,-46.921,-158.358,-93.842
5.365,-2.012,8.478,-7.808,117.302,1.245,8.287,7.281,111.437,-0.575,9.059,9.347,-52.786,-181.818,-105.572
5.37,-1.581,7.233,-6.131,117.302,1.054,7.425,5.556,117.302,-0.144,8.628,7.909,-58.651,-199.413,-111.437
5.375,-1.293,6.083,-4.167,117.302,1.006,6.562,3.545,117.302,-0.144,8.197,6.327,-58.651,-217.009,-117.302
5.38,-0.91,5.077,-1.964,117.302,0.91,5.7,1.198,117.302,-0.288,7.621,4.458,-58.651,-234.604,-117.302
5.385,-0.431,4.119,0.671,117.302,0.671,4.838,-1.485,111.437,-0.431,6.902,2.301,-52.786,-246.334,-117.302
5.39,0.048,3.449,3.449,111.437,0.671,4.167,-4.263,111.437,-0.431,6.183,-0.144,-41.056,-258.064,-117.302
5.3950000000000005,0.24,3.114,6.227,105.572,0.91,3.736,-6.993,99.707,-0.575,5.321,-2.876,-29.326,-263.93,-117.302
5.4,0.575,2.874,9.053,93.842,0.958,3.305,-9.82,87.977,-0.863,4.889,-5.608,-17.595,-263.93,-111.437
5.405,0.814,2.635,12.023,82.111,1.102,3.066,-12.741,76.246,-1.438,4.314,-8.34,-5.865,-258.064,-99.707
5.41,0.766,2.874,14.801,64.516,1.724,2.97,-15.424,58.651,-1.726,3.883,-11.216,0.0,-252.199,-87.977
5.415,0.287,3.353,17.1,46.921,2.443,3.353,-17.436,41.056,-2.157,3.739,-13.949,17.595,-234.604,-70.381
5.42,0.048,4.215,18.968,29.326,3.018,3.736,-19.304,23.46,-3.164,3.307,-16.393,23.46,-217.009,-52.786
5.425,-0.192,4.742,20.693,23.46,3.401,4.407,-20.837,17.595,-3.883,3.595,-18.263,23.46,-199.413,-35.191
5.43,-0.144,5.365,21.795,17.595,3.593,4.982,-21.89,11.73,-4.602,3.883,-20.132,23.46,-175.953,-23.46
5.4350000000000005,-0.096,5.796,22.561,11.73,3.593,5.413,-22.8,11.73,-5.177,4.602,-21.426,23.46,-146.628,-17.595
5.44,-0.144,5.988,22.609,5.865,3.545,5.748,-22.705,5.865,-5.464,5.033,-22.289,17.595,-117.302,-11.73
5.445,0.0,5.94,21.986,5.865,3.401,5.556,-21.555,5.865,-5.177,5.608,-22.577,11.73,-82.111,-5.865
5.45,-0.048,5.461,21.028,5.865,3.257,5.509,-20.597,5.865,-4.889,6.04,-22.289,11.73,-52.786,-5.865
5.455,0.096,5.413,20.118,-0.0,2.73,5.461,-19.495,0.0,-5.177,5.896,-21.282,11.73,-17.595,0.0
5.46,-0.096,5.269,18.633,-5.865,3.353,5.413,-17.915,-5.865,-4.602,6.04,-20.563,11.73,11.73,0.0
5.465,-0.91,4.934,17.005,-5.865,3.64,4.982,-16.334,-5.865,-4.026,6.04,-19.413,11.73,46.921,5.865
5.47,-0.814,4.551,15.184,-5.865,3.066,4.311,-14.418,0.0,-4.889,5.752,-17.831,17.595,70.381,11.73
5.4750000000000005,-0.862,4.072,12.837,-5.865,2.587,3.928,-11.975,0.0,-4.745,5.177,-16.106,23.46,99.707,11.73
5.48,-0.91,3.688,10.107,-5.865,1.82,3.832,-9.293,0.0,-3.883,4.458,-14.236,23.46,123.167,5.865
5.485,-0.91,3.545,7.568,-11.73,1.245,3.832,-6.802,-11.73,-3.02,4.17,-11.648,29.326,146.628,5.865
5.49,-1.245,3.545,5.125,-23.46,1.15,4.072,-4.407,-23.46,-1.726,4.17,-9.059,29.326,158.358,11.73
5.495,-1.389,3.64,3.018,-35.191,1.006,4.119,-2.347,-35.191,-0.863,4.458,-6.759,35.191,170.088,23.46
5.5,-1.868,3.736,1.341,-41.056,1.102,4.072,-0.766,-41.056,-0.575,4.602,-4.458,35.191,170.088,35.191
5.505,-2.156,3.976,0.0,-41.056,1.198,4.072,0.479,-41.056,-0.144,4.602,-2.445,46.921,164.223,41.056
5.51,-2.395,4.119,-0.91,-41.056,1.245,4.024,1.245,-41.056,-0.144,4.314,-1.007,46.921,152.493,46.921
5.515,-2.587,4.455,-1.341,-46.921,1.437,4.072,1.581,-46.921,0.0,4.17,0.144,52.786,140.762,46.921
5.5200000000000005,-2.874,5.077,-1.245,-46.921,1.772,4.311,1.389,-46.921,0.0,4.026,0.863,58.651,129.032,46.921
5.525,-2.97,6.083,-0.671,-52.786,2.06,4.742,0.766,-52.786,-0.144,3.739,1.15,58.651,105.572,52.786
5.53,-3.114,7.281,-0.096,-58.651,2.251,5.461,0.335,-58.651,-0.575,3.595,0.863,52.786,87.977,52.786
5.535,-3.114,8.478,0.144,-64.516,2.491,6.467,0.096,-64.516,-1.007,3.739,0.288,41.056,70.381,58.651
5.54,-3.257,9.053,0.383,-64.516,2.97,7.664,-0.048,-64.516,-1.15,4.17,-0.144,23.46,52.786,64.516
5.545,-3.257,9.676,0.383,-64.516,3.257,8.862,-0.096,-64.516,-1.582,5.321,-0.431,0.0,35.191,70.381
5.55,-3.161,10.299,0.719,-58.651,3.066,9.628,-0.479,-52.786,-2.301,7.046,-0.431,-23.46,23.46,70.381
5.555,-2.826,10.442,1.054,-46.921,2.874,10.059,-0.814,-46.921,-2.445,8.34,-0.575,-35.191,11.73,64.516
5.5600000000000005,-2.73,10.442,1.245,-41.056,2.826,10.299,-1.006,-35.191,-2.301,9.347,-1.007,-46.921,0.0,52.786
5.565,-2.539,9.963,1.485,-29.326,2.874,10.299,-1.198,-29.326,-2.013,9.778,-1.15,-58.651,-5.865,46.921
5.57,-2.347,9.197,1.772,-23.46,2.73,10.107,-1.533,-23.46,-2.157,10.497,-1.438,-58.651,-17.595,35.191
5.575,-2.874,13.604,1.341,-23.46,4.167,20.31,0.671,-23.46,-2.445,10.641,-1.582,-58.651,-23.46,29.326
5.58,-5.509,23.854,-2.922,-0.0,7.185,22.513,1.533,11.73,-2.301,10.929,-2.013,-52.786,-29.326,23.46
5.585,-0.431,10.49,2.203,41.056,0.862,13.364,-2.395,46.921,-3.02,23.439,1.582,-46.921,-29.326,23.46
5.59,-2.395,13.747,2.491,46.921,1.916,12.406,-1.916,46.921,-5.464,20.995,-0.431,-52.786,-41.056,-23.46
5.595,-3.736,14.131,1.341,46.921,5.317,15.376,-1.006,46.921,1.15,12.079,-3.02,-23.46,-41.056,-41.056
5.6000000000000005,-2.97,10.155,2.203,41.056,4.742,12.981,-2.156,35.191,-1.582,12.511,-1.869,-5.865,-46.921,-41.056
5.605,-3.018,11.065,2.874,35.191,4.694,12.694,-2.539,35.191,-5.752,16.825,-1.438,-11.73,-58.651,-46.921
5.61,-3.88,11.975,2.922,41.056,4.838,12.215,-2.778,46.921,-4.889,14.524,-2.732,0.0,-58.651,-35.191
5.615,-3.401,12.167,3.64,46.921,4.024,11.975,-3.545,46.921,-4.602,13.086,-2.876,35.191,-46.921,-35.191
5.62,-3.161,12.358,3.784,35.191,3.497,11.688,-3.449,35.191,-4.458,12.079,-3.307,52.786,-41.056,-46.921
5.625,-3.305,11.927,3.64,23.46,3.545,11.065,-3.497,23.46,-3.307,11.648,-4.026,58.651,-41.056,-41.056
5.63,-3.449,11.352,4.167,11.73,3.688,10.251,-4.072,5.865,-2.732,11.216,-3.739,52.786,-41.056,-35.191
5.635,-3.305,10.73,4.79,-0.0,3.688,9.628,-4.646,0.0,-2.876,10.354,-4.026,46.921,-46.921,-11.73
5.64,-3.353,10.011,5.221,-5.865,3.928,9.101,-5.077,-5.865,-2.876,9.347,-4.602,41.056,-52.786,-5.865
5.6450000000000005,-3.497,9.197,5.7,-5.865,4.215,8.718,-5.509,-5.865,-3.164,8.916,-5.177,29.326,-58.651,5.865
5.65,-3.161,8.718,6.275,-5.865,4.024,8.095,-6.083,-5.865,-3.739,8.628,-5.464,23.46,-64.516,5.865
5.655,-3.161,8.287,6.514,-0.0,3.976,7.76,-6.275,0.0,-3.883,8.34,-5.896,17.595,-70.381,11.73
5.66,-3.209,7.712,6.61,5.865,4.072,7.377,-6.323,5.865,-3.739,7.765,-6.471,11.73,-70.381,5.865
5.665,-2.97,7.233,6.802,11.73,3.88,7.137,-6.514,11.73,-4.026,7.478,-6.615,0.0,-70.381,0.0
5.67,-2.826,7.041,6.898,17.595,3.88,7.041,-6.514,17.595,-4.026,7.334,-6.759,0.0,-64.516,-5.865
5.675,-2.826,7.041,6.85,23.46,3.832,6.946,-6.514,23.46,-3.883,7.19,-6.902,0.0,-64.516,-17.595
5.68,-2.826,7.041,6.754,23.46,3.832,6.85,-6.323,23.46,-3.883,7.19,-6.902,0.0,-58.651,-17.595
5.6850000000000005,-3.018,6.898,6.227,23.46,3.976,6.754,-5.652,23.46,-3.883,6.902,-6.759,0.0,-52.786,-23.46
5.69,-3.209,6.802,5.413,23.46,4.072,6.754,-4.934,23.46,-3.883,6.759,-6.615,0.0,-52.786,-23.46
5.695,-3.209,7.041,5.03,29.326,3.88,6.898,-4.598,29.326,-4.026,6.759,-5.752,0.0,-46.921,-17.595
5.7,-3.161,7.329,4.646,35.191,3.736,7.185,-4.215,35.191,-3.883,6.759,-5.177,0.0,-41.056,-23.46
5.705,-3.161,7.568,4.311,35.191,3.736,7.472,-3.928,35.191,-3.595,6.902,-4.889,0.0,-41.056,-23.46
5.71,-3.305,7.808,4.167,35.191,3.976,7.712,-3.832,35.191,-3.451,7.19,-4.458,0.0,-41.056,-35.191
5.715,-3.305,7.999,4.215,35.191,4.072,7.999,-3.784,35.191,-3.451,7.478,-4.314,0.0,-41.056,-35.191
5.72,-3.305,8.287,3.976,35.191,3.88,8.191,-3.593,29.326,-3.883,7.765,-4.17,0.0,-41.056,-35.191
5.7250000000000005,-3.257,8.526,3.832,29.326,3.88,8.43,-3.449,29.326,-3.883,8.053,-4.17,0.0,-41.056,-35.191
5.73,-3.257,8.766,3.832,23.46,4.072,8.67,-3.497,23.46,-3.595,8.197,-3.883,0.0,-41.056,-23.46
5.735,-3.353,8.862,3.928,23.46,4.119,8.766,-3.64,23.46,-3.595,8.484,-3.883,0.0,-41.056,-23.46
5.74,-3.209,8.909,4.024,17.595,4.024,8.957,-3.736,17.595,-3.883,8.628,-3.883,0.0,-41.056,-17.595
5.745,-3.161,9.053,4.024,17.595,4.024,9.245,-3.736,17.595,-3.883,8.772,-4.026,0.0,-41.056,-17.595
5.75,-3.161,9.053,4.072,11.73,4.072,9.436,-3.688,11.73,-3.739,9.059,-4.17,0.0,-41.056,-11.73
5.755,-3.257,8.143,2.922,11.73,4.119,9.867,-2.443,11.73,-3.883,9.491,-4.026,0.0,-35.191,-11.73
5.76,-3.018,9.005,2.778,11.73,3.736,10.73,-2.491,17.595,-3.883,9.922,-3.883,0.0,-35.191,-11.73
5.765,-2.826,10.586,2.97,23.46,3.497,11.736,-2.826,23.46,-3.883,11.073,-2.732,11.73,-35.191,-11.73
5.7700000000000005,-2.73,11.879,2.922,23.46,3.593,12.789,-2.874,29.326,-3.307,11.792,-2.876,23.46,-35.191,-17.595
5.775,-3.066,13.268,3.497,23.46,3.832,13.412,-3.305,29.326,-3.164,12.511,-3.164,41.056,-29.326,-23.46
5.78,-3.257,13.987,3.928,35.191,4.215,13.747,-3.832,35.191,-3.02,13.23,-3.307,52.786,-29.326,-23.46
5.785,-3.353,14.226,4.311,41.056,4.359,13.939,-4.072,46.921,-3.451,13.23,-3.739,58.651,-35.191,-23.46
5.79,-3.257,14.083,4.407,52.786,4.407,13.843,-4.119,58.651,-3.883,13.517,-4.314,58.651,-35.191,-35.191
5.795,-3.257,13.699,4.359,64.516,4.263,13.508,-4.024,70.381,-4.026,13.661,-4.458,58.651,-41.056,-46.921
5.8,-3.066,13.125,4.215,76.246,4.024,12.981,-3.88,82.111,-4.026,13.661,-4.458,52.786,-41.056,-58.651
5.805,-2.874,12.55,4.024,82.111,3.736,12.55,-3.736,87.977,-3.883,13.373,-4.314,52.786,-35.191,-70.381
5.8100000000000005,-2.778,11.927,3.88,87.977,3.593,12.119,-3.545,87.977,-3.595,12.942,-4.17,52.786,-35.191,-82.111
5.815,-2.874,11.448,3.688,93.842,3.593,11.64,-3.353,93.842,-3.307,12.511,-4.026,58.651,-35.191,-87.977
5.82,-2.778,10.825,3.593,93.842,3.497,10.969,-3.305,93.842,-3.164,12.223,-3.883,58.651,-35.191,-87.977
5.825,-2.682,10.203,3.64,99.707,3.353,10.299,-3.401,99.707,-3.164,11.648,-3.739,64.516,-35.191,-93.842
5.83,-2.73,9.676,3.736,99.707,3.209,9.484,-3.497,99.707,-3.02,11.073,-3.739,64.516,-35.191,-93.842
5.835,-2.635,9.053,3.928,99.707,3.114,8.718,-3.64,105.572,-2.876,10.21,-3.739,70.381,-35.191,-99.707
5.84,-2.682,8.43,4.024,105.572,3.114,8.095,-3.784,105.572,-2.732,9.347,-3.883,76.246,-35.191,-99.707
5.845,-2.635,7.904,4.215,105.572,3.114,7.377,-3.928,105.572,-2.732,8.484,-4.026,76.246,-41.056,-99.707
5.8500000000000005,-2.682,7.281,4.407,105.572,3.114,6.658,-4.167,111.437,-2.732,7.765,-4.17,76.246,-41.056,-105.572
5.855,-2.778,6.658,4.646,105.572,3.209,5.94,-4.407,105.572,-2.732,7.046,-4.314,76.246,-46.921,-105.572
5.86,-2.826,5.796,4.886,105.572,3.257,5.077,-4.598,105.572,-2.876,6.183,-4.602,70.381,-46.921,-105.572
5.865,-2.874,5.03,5.077,105.572,3.353,4.311,-4.742,105.572,-2.876,5.464,-4.889,70.381,-46.921,-105.572
5.87,-2.922,4.167,5.269,105.572,3.449,3.497,-4.982,99.707,-3.02,4.602,-5.033,64.516,-46.921,-105.572
5.875,-2.922,3.209,5.461,99.707,3.449,2.635,-5.125,99.707,-3.164,3.883,-5.321,58.651,-52.786,-99.707
5.88,-2.97,2.347,5.604,93.842,3.545,1.916,-5.221,93.842,-3.307,3.164,-5.464,58.651,-46.921,-99.707
5.885,-2.97,1.485,5.748,93.842,3.593,1.15,-5.365,87.977,-3.451,2.301,-5.608,52.786,-46.921,-93.842
5.89,-3.066,0.766,5.892,82.111,3.593,0.527,-5.509,82.111,-3.595,1.726,-5.752,46.921,-46.921,-93.842
5.8950000000000005,-3.018,0.24,6.083,70.381,3.545,0.048,-5.7,70.381,-3.739,1.007,-5.896,46.921,-41.056,-87.977
5.9,-3.018,0.096,6.227,64.516,3.497,-0.048,-5.844,58.651,-3.739,0.288,-6.04,46.921,-41.056,-76.246
5.905,-3.018,0.096,6.227,46.921,3.545,0.048,-5.748,46.921,-3.595,0.0,-6.183,46.921,-35.191,-64.516
5.91,-3.018,0.048,6.227,41.056,3.593,0.096,-5.844,35.191,-3.595,0.0,-6.183,46.921,-29.326,-52.786
5.915,-3.018,0.048,6.419,29.326,3.449,0.048,-6.083,23.46,-3.739,0.144,-6.183,46.921,-29.326,-41.056
5.92,-2.826,0.144,6.754,17.595,3.305,0.0,-6.419,17.595,-3.739,0.144,-6.327,46.921,-23.46,-29.326
5.925,-2.778,0.431,7.089,11.73,3.305,-0.096,-6.802,5.865,-3.595,0.0,-6.615,46.921,-17.595,-17.595
5.93,-2.778,0.623,7.52,-0.0,3.257,-0.192,-7.185,-5.865,-3.451,-0.144,-6.902,46.921,-17.595,-11.73
5.9350000000000005,-2.778,0.862,7.76,-11.73,3.257,-0.144,-7.377,-11.73,-3.451,-0.431,-7.334,46.921,-11.73,0.0
5.94,-2.778,0.91,7.76,-17.595,3.209,-0.144,-7.329,-17.595,-3.451,-0.575,-7.765,41.056,-11.73,5.865
5.945,-2.682,0.527,7.664,-23.46,3.161,-0.335,-7.233,-29.326,-3.451,-0.719,-7.765,35.191,-5.865,17.595
5.95,-2.635,0.144,7.664,-29.326,2.922,-0.527,-7.281,-35.191,-3.307,-0.719,-7.621,23.46,0.0,23.46
5.955,-2.491,0.144,7.568,-35.191,2.778,-0.575,-7.137,-35.191,-3.164,-0.719,-7.621,11.73,0.0,29.326
5.96,-2.491,0.048,7.568,-41.056,2.73,-0.575,-7.185,-41.056,-2.876,-0.863,-7.621,0.0,5.865,35.191
5.965,-2.299,-0.24,7.616,-46.921,2.635,-0.671,-7.233,-52.786,-2.876,-1.007,-7.478,0.0,5.865,41.056
5.97,-2.251,-0.383,7.616,-58.651,2.73,-0.623,-7.137,-58.651,-2.732,-0.863,-7.621,-5.865,5.865,46.921
5.9750000000000005,-2.347,-0.431,7.616,-64.516,2.73,-0.719,-7.233,-70.381,-2.732,-0.719,-7.621,-11.73,11.73,52.786
5.98,-2.251,-0.24,7.76,-70.381,2.587,-0.623,-7.377,-76.246,-2.876,-0.719,-7.478,-11.73,11.73,64.516
5.985,-2.108,0.287,7.951,-76.246,2.587,-0.192,-7.568,-82.111,-2.732,-0.863,-7.621,-17.595,17.595,70.381
5.99,-2.108,1.006,8.143,-82.111,2.443,0.431,-7.76,-87.977,-2.588,-0.863,-7.909,-17.595,17.595,76.246
5.995,-2.012,1.533,8.239,-93.842,2.347,0.958,-7.904,-99.707,-2.588,-0.288,-8.053,-23.46,23.46,82.111
6.0,-1.964,2.156,8.239,-105.572,2.347,1.629,-7.808,-105.572,-2.445,0.144,-8.197,-29.326,23.46,93.842
6.005,-1.964,2.587,8.239,-111.437,2.347,2.108,-7.904,-111.437,-2.301,0.863,-8.34,-35.191,23.46,99.707
6.01,-1.772,2.682,8.287,-117.302,2.299,2.491,-7.904,-117.302,-2.301,1.582,-8.197,-41.056,29.326,111.437
6.015000000000001,-1.82,2.922,8.191,-117.302,2.443,2.73,-7.856,-117.302,-2.157,2.157,-8.34,-46.921,29.326,117.302
6.0200000000000005,-1.82,3.066,8.095,-117.302,2.347,2.874,-7.664,-123.167,-2.301,2.588,-8.197,-46.921,29.326,117.302
6.025,-1.677,3.161,8.047,-123.167,2.203,3.066,-7.712,-123.167,-2.301,2.876,-8.197,-52.786,29.326,123.167
6.03,-1.485,3.449,8.143,-123.167,1.964,3.257,-7.76,-129.032,-2.301,3.02,-8.053,-52.786,35.191,123.167
6.035,-1.389,4.024,7.951,-129.032,1.916,3.593,-7.568,-129.032,-2.013,3.164,-8.053,-52.786,41.056,129.032
6.04,-13.46,22.513,-9.772,-129.032,21.89,23.854,20.022,-129.032,-1.869,3.307,-8.197,-52.786,41.056,129.032
6.045,-7.616,20.118,2.251,-129.032,-11.736,7.472,-10.251,-123.167,-1.869,3.595,-7.909,-52.786,41.056,129.032
6.05,10.825,21.172,1.868,-35.191,-6.083,19.783,3.209,0.0,-31.78,53.206,19.413,-52.786,29.326,129.032
6.055,-7.233,11.017,-7.951,5.865,7.472,11.831,7.041,-17.595,20.707,9.491,-11.073,-52.786,29.326,105.572
6.0600000000000005,-5.461,3.928,-3.64,-64.516,11.304,10.921,2.443,-70.381,4.602,20.995,6.04,-117.302,-29.326,-29.326
