time_aligned_sec,L_Acc_X_aligned,L_Acc_Y_aligned,L_Acc_Z_aligned,L_Gyro_Z_aligned,R_Acc_X_aligned,R_Acc_Y_aligned,R_Acc_Z_aligned,R_Gyro_Z_aligned,T_Acc_X_aligned,T_Acc_Y_aligned,T_Acc_Z_aligned,T_Gyro_X_aligned,T_Gyro_Y_aligned,T_Gyro_Z_aligned
0.0,-2.97,7.089,-6.754,-17.595,2.922,6.802,7.089,-17.595,3.451,7.478,-7.334,93.842,35.191,-23.46
0.005,-2.97,6.993,-6.562,-17.595,3.066,6.323,6.946,-17.595,3.451,7.621,-7.19,93.842,35.191,-23.46
0.01,-2.922,6.802,-6.467,-17.595,3.066,5.94,6.898,-17.595,3.307,7.621,-7.046,99.707,35.191,-17.595
0.015,-2.97,6.61,-6.371,-17.595,3.066,5.796,6.85,-11.73,3.307,7.478,-7.046,105.572,35.191,-17.595
0.02,-2.97,6.419,-6.371,-11.73,3.114,5.796,6.85,-11.73,3.307,7.19,-7.046,117.302,35.191,-11.73
0.025,-2.922,6.323,-6.371,-11.73,3.066,6.035,6.754,-5.865,3.164,7.046,-7.046,123.167,35.191,-11.73
0.03,-2.922,6.275,-6.323,-5.865,3.018,6.275,6.658,0.0,3.164,6.759,-6.902,129.032,35.191,-5.865
0.035,-2.874,6.275,-6.179,-0.0,3.066,6.467,6.562,5.865,3.164,6.615,-6.902,134.897,41.056,0.0
0.04,-2.874,6.419,-6.083,5.865,3.018,6.802,6.371,5.865,3.164,6.759,-6.759,134.897,41.056,0.0
0.045,-2.922,6.658,-5.892,5.865,3.114,7.233,6.179,11.73,3.164,6.902,-6.615,140.762,41.056,5.865
0.05,-3.066,6.993,-5.7,11.73,3.114,7.712,5.892,11.73,3.451,7.046,-6.471,140.762,41.056,5.865
0.055,-3.066,7.329,-5.461,11.73,3.114,7.951,5.748,17.595,3.451,7.334,-6.183,134.897,41.056,11.73
0.06,-3.066,7.568,-5.317,11.73,3.161,8.143,5.556,11.73,3.451,7.765,-6.04,134.897,41.056,11.73
0.065,-3.114,7.76,-5.173,11.73,3.257,8.239,5.413,11.73,3.595,7.909,-5.752,134.897,41.056,11.73
0.07,-3.161,7.808,-4.982,5.865,3.257,8.287,5.317,5.865,3.595,7.909,-5.608,129.032,41.056,5.865
0.075,-3.257,7.76,-4.886,5.865,3.353,8.287,5.173,5.865,3.739,7.765,-5.608,129.032,41.056,5.865
0.08,-3.401,7.712,-4.742,5.865,3.449,8.287,5.03,5.865,3.883,7.765,-5.464,123.167,41.056,5.865
0.085,-3.497,7.808,-4.598,-0.0,3.545,8.287,4.934,5.865,4.026,7.909,-5.321,123.167,41.056,0.0
0.09,-3.64,7.904,-4.551,-0.0,3.593,8.239,4.838,5.865,4.17,8.053,-5.177,117.302,41.056,0.0
0.095,-3.593,8.047,-4.407,5.865,3.64,8.143,4.742,5.865,4.17,8.34,-5.033,117.302,35.191,0.0
0.1,-3.593,8.095,-4.311,5.865,3.545,8.239,4.694,5.865,4.026,8.484,-4.889,117.302,35.191,0.0
0.105,-3.449,8.191,-4.263,5.865,3.449,8.478,4.598,5.865,3.883,8.484,-4.889,117.302,35.191,5.865
0.11,-3.353,8.287,-4.215,5.865,3.401,8.766,4.503,5.865,3.739,8.484,-4.889,117.302,35.191,5.865
0.115,-3.353,8.43,-4.024,5.865,3.305,9.053,4.263,5.865,3.883,8.484,-4.602,117.302,35.191,5.865
0.12,-3.305,8.574,-3.784,5.865,3.257,9.293,3.976,5.865,3.739,8.628,-4.458,117.302,35.191,0.0
0.125,-3.257,8.67,-3.545,5.865,3.161,9.245,3.784,5.865,3.739,8.628,-4.17,111.437,29.326,0.0
0.13,-3.257,8.67,-3.353,-0.0,3.161,8.957,3.64,5.865,3.883,8.772,-3.883,111.437,29.326,0.0
0.135,-3.114,8.622,-3.209,-0.0,3.066,8.862,3.497,0.0,3.595,8.772,-3.739,105.572,29.326,0.0
0.14,-3.018,8.574,-3.066,-0.0,2.97,8.766,3.401,0.0,3.595,8.772,-3.739,99.707,29.326,0.0
0.145,-2.922,8.478,-2.97,-0.0,2.874,8.574,3.257,0.0,3.307,8.628,-3.451,99.707,23.46,0.0
0.15,-2.826,8.383,-2.826,-0.0,2.778,8.191,3.209,0.0,3.307,8.628,-3.451,99.707,23.46,0.0
0.155,-2.73,8.143,-2.73,-0.0,2.73,7.76,3.114,0.0,3.164,8.484,-3.307,99.707,23.46,0.0
0.16,-2.587,7.951,-2.682,-0.0,2.682,7.616,3.066,0.0,2.876,8.484,-3.307,99.707,23.46,-5.865
0.165,-2.539,7.808,-2.587,-0.0,2.635,7.664,3.018,0.0,2.876,8.34,-3.164,105.572,23.46,0.0
0.17,-2.539,7.76,-2.587,-0.0,2.587,7.712,2.97,5.865,2.876,8.053,-3.164,111.437,23.46,0.0
0.17500000000000002,-2.491,7.76,-2.587,5.865,2.682,7.664,2.97,5.865,2.876,8.053,-3.164,111.437,23.46,0.0
0.18,-2.539,7.712,-2.539,5.865,2.826,7.76,3.018,11.73,2.876,8.053,-3.164,117.302,23.46,5.865
0.185,-2.635,7.76,-2.587,5.865,2.874,8.143,2.97,11.73,3.02,8.053,-3.164,117.302,29.326,5.865
0.19,-2.73,7.904,-2.539,11.73,2.826,8.478,2.922,11.73,3.02,8.053,-3.164,117.302,29.326,11.73
0.195,-2.73,8.047,-2.491,11.73,2.922,8.718,2.874,11.73,3.164,8.053,-3.164,117.302,29.326,11.73
0.2,-2.874,8.239,-2.443,11.73,2.922,8.766,2.874,11.73,3.307,8.34,-3.02,111.437,29.326,11.73
0.20500000000000002,-2.874,8.43,-2.443,11.73,2.97,8.862,2.826,11.73,3.307,8.628,-3.02,111.437,29.326,11.73
0.21,-2.874,8.622,-2.395,11.73,2.97,9.149,2.73,11.73,3.307,8.772,-3.02,105.572,29.326,11.73
0.215,-2.922,8.718,-2.299,11.73,2.922,9.388,2.682,11.73,3.451,8.772,-2.876,105.572,29.326,11.73
0.22,-2.97,8.814,-2.299,11.73,3.018,9.532,2.778,11.73,3.451,8.772,-2.876,99.707,29.326,11.73
0.225,-3.018,8.909,-2.347,11.73,3.066,9.724,2.778,11.73,3.451,8.772,-2.876,99.707,29.326,11.73
0.23,-3.018,9.053,-2.347,11.73,3.018,9.915,2.682,11.73,3.451,8.916,-2.876,93.842,29.326,11.73
0.23500000000000001,-3.018,9.149,-2.251,11.73,3.018,9.963,2.635,11.73,3.595,8.916,-2.876,87.977,23.46,5.865
0.24,-3.018,9.245,-2.203,11.73,3.018,9.915,2.635,11.73,3.595,9.059,-2.876,82.111,23.46,5.865
0.245,-3.018,9.293,-2.203,5.865,3.018,9.772,2.587,5.865,3.595,9.347,-2.732,76.246,23.46,5.865
0.25,-2.97,9.341,-2.108,5.865,2.922,9.772,2.539,5.865,3.451,9.347,-2.732,70.381,23.46,5.865
0.255,-2.922,9.341,-2.108,5.865,2.922,9.676,2.539,5.865,3.451,9.491,-2.732,64.516,23.46,0.0
0.26,-2.826,9.341,-2.108,-0.0,2.826,9.58,2.635,0.0,3.307,9.491,-2.732,64.516,17.595,0.0
0.265,-2.73,9.245,-2.156,-0.0,2.73,9.484,2.73,0.0,3.164,9.347,-2.732,64.516,17.595,0.0
0.27,-2.635,9.197,-2.251,-0.0,2.778,9.484,2.587,0.0,3.164,9.347,-2.876,64.516,17.595,0.0
0.275,-2.874,10.203,-1.916,-0.0,3.305,10.107,1.245,0.0,3.451,11.073,-2.445,58.651,17.595,0.0
0.28,-2.491,10.682,-0.766,-0.0,2.347,10.107,1.293,5.865,2.732,11.36,-1.294,64.516,17.595,0.0
0.28500000000000003,-2.682,11.065,-0.671,5.865,2.874,10.394,0.287,5.865,3.451,12.079,-1.15,76.246,23.46,0.0
0.29,-2.778,10.873,0.144,5.865,1.389,10.346,1.15,0.0,3.595,11.648,-0.431,87.977,23.46,5.865
0.295,-1.964,9.58,-1.102,-0.0,2.251,10.299,2.347,-11.73,2.876,9.491,-1.726,93.842,17.595,-5.865
0.3,-2.012,9.532,-2.012,-17.595,2.97,10.107,2.491,-17.595,2.157,9.347,-2.588,93.842,11.73,-17.595
0.305,-2.06,10.155,-1.82,-17.595,2.491,10.251,1.916,-11.73,2.013,10.497,-2.301,87.977,11.73,-17.595
0.31,-1.82,10.346,-1.293,-11.73,1.772,10.73,1.581,-5.865,2.013,10.641,-1.869,87.977,17.595,-11.73
0.315,-1.677,10.203,-1.15,-5.865,1.629,10.969,1.581,-17.595,2.157,10.066,-1.726,87.977,23.46,-11.73
0.32,-1.629,10.155,-1.15,-17.595,1.964,10.634,1.581,-29.326,2.157,9.922,-1.726,87.977,29.326,-17.595
0.325,-1.868,10.011,-1.102,-29.326,2.299,10.299,1.341,-35.191,2.301,9.922,-1.582,82.111,23.46,-35.191
0.33,-2.299,9.82,-0.766,-35.191,2.443,10.011,0.958,-35.191,2.732,9.778,-1.294,76.246,29.326,-35.191
0.335,-2.491,9.58,-0.479,-29.326,2.347,9.484,0.671,-29.326,3.164,9.635,-1.007,70.381,29.326,-35.191
0.34,-2.587,9.197,-0.24,-29.326,2.395,8.909,0.527,-23.46,3.307,9.347,-0.863,70.381,23.46,-29.326
0.34500000000000003,-2.635,8.909,-0.048,-17.595,2.395,8.814,0.431,-11.73,3.307,9.203,-0.575,64.516,23.46,-23.46
0.35000000000000003,-2.539,8.862,0.0,-17.595,2.203,9.053,0.575,-5.865,3.164,9.059,-0.575,64.516,17.595,-11.73
0.355,-2.299,9.149,-0.192,-5.865,2.203,9.388,0.862,0.0,2.876,9.347,-0.719,64.516,17.595,-5.865
0.36,-2.156,9.484,-0.431,-0.0,2.251,9.772,1.054,0.0,2.588,9.778,-1.007,64.516,11.73,-5.865
0.365,-2.156,9.772,-0.623,-0.0,2.299,10.107,1.102,0.0,2.445,10.066,-1.15,70.381,11.73,0.0
0.37,-2.299,9.82,-0.671,-0.0,2.347,10.299,1.198,5.865,2.157,10.066,-1.15,70.381,11.73,0.0
0.375,-2.203,9.82,-0.766,5.865,2.06,10.346,1.245,5.865,2.445,9.778,-1.294,70.381,11.73,-5.865
0.38,-2.06,9.676,-0.814,5.865,1.964,10.394,1.245,5.865,2.732,9.491,-1.294,64.516,11.73,-5.865
0.385,-2.012,9.628,-0.814,5.865,1.868,10.346,1.293,5.865,2.732,9.347,-1.438,58.651,11.73,-11.73
0.39,-1.964,9.724,-0.862,-0.0,1.916,10.299,1.293,0.0,2.588,9.635,-1.438,52.786,5.865,-11.73
0.395,-1.868,9.82,-0.814,-0.0,1.868,10.251,1.293,-5.865,2.588,9.635,-1.294,46.921,5.865,-11.73
0.4,-1.868,9.82,-0.814,-5.865,1.916,10.251,1.341,-5.865,2.445,9.778,-1.294,41.056,5.865,-11.73
0.405,-1.916,9.772,-0.862,-11.73,1.868,10.251,1.581,-11.73,2.588,9.778,-1.438,41.056,5.865,-17.595
0.41000000000000003,-1.868,9.724,-1.198,-11.73,1.82,10.251,1.82,-11.73,2.445,9.778,-1.726,35.191,5.865,-17.595
0.41500000000000004,-1.868,9.628,-1.581,-17.595,1.868,10.011,1.964,-11.73,2.445,9.491,-2.013,29.326,0.0,-17.595
0.42,-1.82,9.628,-1.389,-17.595,1.772,9.628,1.82,-11.73,2.157,9.778,-2.013,29.326,0.0,-17.595
0.425,-1.629,9.484,-1.293,-11.73,1.629,9.532,1.82,-11.73,2.013,9.778,-1.869,23.46,0.0,-17.595
0.43,-1.581,9.388,-1.341,-11.73,1.677,9.532,1.868,-5.865,2.013,9.635,-1.869,23.46,0.0,-11.73
0.435,-1.581,9.388,-1.389,-11.73,1.581,9.628,2.06,-5.865,2.013,9.491,-1.869,23.46,0.0,-11.73
0.44,-1.533,9.388,-1.629,-5.865,1.485,9.867,2.491,-5.865,1.869,9.491,-2.157,23.46,0.0,-11.73
0.445,-1.437,9.532,-1.964,-5.865,1.772,9.772,2.347,-5.865,1.726,9.635,-2.445,17.595,0.0,-5.865
0.45,-1.389,9.82,-1.724,-5.865,1.533,9.867,2.06,0.0,1.582,10.21,-2.301,5.865,0.0,-5.865
0.455,-1.341,10.011,-1.533,-5.865,1.437,10.203,1.964,0.0,1.582,10.354,-2.013,17.595,5.865,-5.865
0.46,-1.389,10.107,-1.437,-5.865,1.533,10.394,1.916,-5.865,1.726,10.354,-2.013,17.595,5.865,-5.865
0.465,-1.437,10.251,-1.389,-5.865,1.629,10.394,1.724,-5.865,1.869,10.354,-1.869,17.595,5.865,-5.865
0.47000000000000003,-1.485,10.299,-1.15,-11.73,1.389,10.394,1.629,-11.73,1.869,10.497,-1.726,17.595,5.865,-11.73
0.47500000000000003,-1.437,10.107,-1.102,-11.73,1.533,10.203,1.437,-11.73,1.869,10.21,-1.726,17.595,5.865,-11.73
0.48,-1.581,10.155,-1.006,-11.73,1.629,10.155,1.485,-11.73,2.013,10.354,-1.582,17.595,5.865,-11.73
0.485,-1.581,10.155,-1.006,-17.595,1.533,10.155,1.485,-11.73,2.013,10.354,-1.582,17.595,5.865,-17.595
0.49,-1.485,10.059,-1.054,-17.595,1.581,10.011,1.533,-11.73,1.869,10.21,-1.582,17.595,5.865,-17.595
0.495,-1.533,9.915,-1.054,-17.595,1.629,9.772,1.581,-11.73,1.869,10.21,-1.582,17.595,0.0,-17.595
0.5,-1.533,9.772,-1.102,-11.73,1.437,9.724,1.581,-11.73,1.869,10.066,-1.582,17.595,0.0,-11.73
0.505,-1.437,9.676,-1.102,-11.73,1.533,9.628,1.485,-11.73,1.869,9.922,-1.582,17.595,0.0,-11.73
0.51,-1.341,9.676,-1.006,-11.73,1.485,9.676,1.437,-5.865,1.726,9.922,-1.582,17.595,0.0,-11.73
0.515,-1.389,9.82,-0.958,-11.73,1.437,9.82,1.485,-5.865,1.726,10.21,-1.582,23.46,0.0,-11.73
0.52,-1.341,9.915,-0.958,-5.865,1.533,9.867,1.437,-5.865,1.726,10.21,-1.438,23.46,0.0,-11.73
0.525,-1.341,10.011,-0.91,-11.73,1.533,9.915,1.437,-5.865,1.582,10.354,-1.438,23.46,5.865,-5.865
0.53,-1.389,10.011,-1.006,-5.865,1.389,10.107,1.485,-5.865,1.726,10.354,-1.582,29.326,5.865,-5.865
0.535,-1.341,10.011,-0.958,-5.865,1.389,10.203,1.341,-5.865,1.726,10.21,-1.438,29.326,5.865,-5.865
0.54,-1.293,10.011,-0.862,-5.865,1.341,10.203,1.198,-5.865,1.726,10.21,-1.294,29.326,5.865,-5.865
0.545,-1.293,10.011,-0.671,-5.865,1.389,10.059,1.006,-5.865,1.726,10.21,-1.15,29.326,5.865,-5.865
0.55,-1.341,9.963,-0.479,-5.865,1.389,10.011,0.814,-5.865,1.726,10.21,-1.007,23.46,5.865,-5.865
0.555,-1.389,9.915,-0.335,-5.865,1.437,9.963,0.719,-5.865,1.869,10.066,-0.863,29.326,5.865,-5.865
0.56,-1.437,9.915,-0.287,-5.865,1.485,10.107,0.719,-5.865,1.869,10.21,-0.863,29.326,5.865,-11.73
0.5650000000000001,-1.437,10.011,-0.24,-11.73,1.485,10.346,0.671,-5.865,1.869,10.21,-0.719,29.326,5.865,-11.73
0.5700000000000001,-1.437,10.107,-0.192,-11.73,1.485,10.394,0.671,-5.865,1.869,10.21,-0.719,29.326,5.865,-11.73
0.5750000000000001,-1.485,10.059,-0.24,-11.73,1.629,10.346,0.575,-11.73,1.869,10.21,-0.719,23.46,5.865,-11.73
0.58,-1.533,10.059,-0.096,-11.73,1.581,10.346,0.479,-5.865,1.869,10.21,-0.575,23.46,0.0,-11.73
0.585,-1.533,10.059,0.0,-11.73,1.533,10.203,0.431,-11.73,2.013,10.21,-0.575,17.595,0.0,-11.73
0.59,-1.533,10.011,0.048,-11.73,1.724,10.059,0.383,-5.865,2.013,10.21,-0.431,17.595,0.0,-11.73
0.595,-1.677,10.107,0.096,-11.73,1.82,10.203,0.383,-11.73,2.157,10.354,-0.431,17.595,0.0,-11.73
0.6,-1.772,10.203,0.144,-11.73,1.724,10.155,0.24,-11.73,2.157,10.497,-0.431,17.595,0.0,-11.73
0.605,-1.772,10.155,0.287,-11.73,1.772,10.011,0.096,-11.73,2.301,10.497,-0.288,17.595,0.0,-11.73
0.61,-1.772,10.059,0.431,-11.73,1.677,9.772,0.096,-5.865,2.301,10.497,-0.0,17.595,0.0,-11.73
0.615,-1.677,9.915,0.383,-11.73,1.581,9.867,0.144,-5.865,2.157,10.354,-0.144,23.46,0.0,-11.73
0.62,-1.724,9.82,0.287,-5.865,1.677,10.059,0.335,-5.865,2.157,10.066,-0.288,23.46,-5.865,-11.73
0.625,-1.677,9.82,0.096,-11.73,1.677,10.203,0.431,-5.865,2.157,9.922,-0.431,23.46,-5.865,-11.73
0.63,-1.629,9.867,0.048,-5.865,1.581,10.251,0.431,-5.865,2.013,9.922,-0.431,23.46,-5.865,-5.865
0.635,-1.533,9.915,0.048,-5.865,1.485,10.251,0.383,-5.865,1.869,9.922,-0.431,23.46,-5.865,-5.865
0.64,-1.485,9.915,0.096,-5.865,1.485,10.155,0.383,-5.865,1.869,9.922,-0.431,17.595,-11.73,-5.865
0.645,-1.437,9.867,0.144,-5.865,1.437,10.059,0.335,-5.865,1.869,9.922,-0.431,17.595,-11.73,-11.73
0.65,-1.437,9.82,0.096,-11.73,1.437,10.011,0.431,-11.73,1.869,9.922,-0.431,5.865,-11.73,-11.73
0.655,-1.389,9.82,0.048,-11.73,1.437,10.011,0.575,-11.73,1.869,9.922,-0.575,5.865,-11.73,-11.73
0.66,-1.389,9.867,-0.096,-11.73,1.389,10.011,0.671,-11.73,1.726,10.066,-0.575,5.865,-11.73,-11.73
0.665,-1.293,9.867,-0.24,-11.73,1.293,10.011,0.814,-11.73,1.582,10.066,-0.719,5.865,-11.73,-17.595
0.67,-1.198,9.867,-0.335,-17.595,1.293,9.915,0.91,-17.595,1.582,10.066,-0.863,5.865,-11.73,-17.595
0.675,-1.15,9.724,-0.431,-17.595,1.293,9.724,1.054,-17.595,1.438,9.922,-1.007,5.865,-11.73,-17.595
0.68,-1.15,9.58,-0.575,-17.595,1.15,9.58,1.102,-17.595,1.438,9.778,-1.15,5.865,-11.73,-23.46
0.685,-1.054,9.341,-0.671,-23.46,1.006,9.484,1.15,-23.46,1.438,9.491,-1.15,5.865,-11.73,-23.46
0.6900000000000001,-0.91,9.197,-0.719,-23.46,1.102,9.388,1.293,-23.46,1.15,9.203,-1.15,5.865,-11.73,-23.46
0.6950000000000001,-0.958,9.149,-0.766,-23.46,1.102,9.341,1.341,-23.46,1.15,9.203,-1.438,5.865,-11.73,-23.46
0.7000000000000001,-0.91,9.149,-0.814,-23.46,1.054,9.293,1.341,-23.46,1.15,9.203,-1.294,0.0,-11.73,-23.46
0.705,-0.862,9.149,-0.862,-23.46,1.102,9.245,1.293,-23.46,1.15,9.203,-1.294,0.0,-11.73,-23.46
0.71,-0.91,9.149,-0.814,-23.46,1.054,9.197,1.245,-23.46,1.15,9.347,-1.294,0.0,-5.865,-23.46
0.715,-0.958,9.149,-0.719,-23.46,1.102,9.245,1.198,-23.46,1.294,9.347,-1.294,0.0,-5.865,-23.46
0.72,-1.054,9.245,-0.719,-23.46,1.198,9.341,1.198,-23.46,1.294,9.491,-1.294,0.0,-5.865,-23.46
0.725,-1.15,9.388,-0.719,-23.46,1.198,9.484,1.102,-23.46,1.438,9.635,-1.294,0.0,-5.865,-23.46
0.73,-1.15,9.532,-0.623,-23.46,1.245,9.58,1.054,-17.595,1.438,9.778,-1.15,0.0,-5.865,-23.46
0.735,-1.15,9.58,-0.575,-17.595,1.15,9.58,1.006,-17.595,1.438,9.778,-1.007,0.0,-5.865,-17.595
0.74,-1.102,9.628,-0.479,-17.595,1.15,9.628,0.958,-17.595,1.438,9.922,-1.007,0.0,-5.865,-17.595
0.745,-1.054,9.628,-0.479,-17.595,1.102,9.628,0.958,-11.73,1.438,9.922,-1.007,0.0,-5.865,-17.595
0.75,-1.006,9.628,-0.527,-17.595,1.102,9.628,1.006,-11.73,1.294,9.922,-1.007,5.865,-5.865,-17.595
0.755,-1.006,9.676,-0.527,-17.595,1.054,9.628,1.054,-11.73,1.294,9.922,-1.007,5.865,-5.865,-17.595
0.76,-1.054,9.628,-0.527,-11.73,1.102,9.676,1.006,-11.73,1.294,9.778,-1.007,5.865,-5.865,-17.595
0.765,-1.006,9.628,-0.527,-17.595,1.054,9.724,1.006,-11.73,1.438,9.778,-1.007,5.865,-5.865,-11.73
0.77,-1.006,9.628,-0.527,-11.73,1.054,9.772,1.054,-11.73,1.294,9.778,-1.007,5.865,-5.865,-17.595
0.775,-0.958,9.58,-0.527,-11.73,1.006,9.724,1.006,-11.73,1.294,9.778,-1.15,5.865,-5.865,-17.595
0.78,-0.91,9.58,-0.527,-11.73,0.862,9.628,1.006,-11.73,1.294,9.778,-1.007,0.0,-5.865,-11.73
0.785,-0.814,9.484,-0.527,-11.73,0.91,9.532,0.958,-11.73,1.15,9.635,-1.007,5.865,-5.865,-11.73
0.79,-0.766,9.388,-0.527,-11.73,0.862,9.436,1.006,-11.73,1.007,9.635,-1.007,0.0,-5.865,-11.73
0.795,-0.719,9.293,-0.479,-11.73,0.766,9.341,1.054,-11.73,1.007,9.491,-1.007,0.0,-5.865,-11.73
0.8,-0.719,9.245,-0.575,-11.73,0.766,9.341,1.102,-11.73,1.007,9.347,-1.15,0.0,-5.865,-11.73
0.805,-0.671,9.245,-0.527,-11.73,0.766,9.293,1.006,-11.73,1.007,9.347,-1.007,0.0,-5.865,-11.73
0.81,-0.671,9.341,-0.479,-11.73,0.719,9.245,1.15,-11.73,1.007,9.635,-1.007,0.0,0.0,-11.73
0.8150000000000001,-0.814,9.388,-0.671,-11.73,0.814,9.245,1.102,-5.865,1.294,9.635,-1.15,0.0,0.0,-11.73
0.8200000000000001,-0.814,9.484,-0.671,-5.865,0.862,9.388,1.054,-5.865,1.294,9.922,-1.15,0.0,-5.865,-11.73
0.8250000000000001,-0.958,9.628,-0.671,-5.865,1.006,9.532,1.054,-5.865,1.582,10.066,-1.15,0.0,-5.865,-11.73
0.8300000000000001,-1.15,9.724,-0.527,-11.73,1.006,9.58,0.814,-5.865,1.582,10.066,-1.007,5.865,-11.73,-11.73
0.835,-1.006,9.58,-0.335,-5.865,0.91,9.436,0.766,-5.865,1.294,9.922,-1.007,5.865,-11.73,-5.865
0.84,-0.958,9.436,-0.287,-5.865,1.102,9.436,0.958,0.0,1.294,9.635,-0.863,5.865,-11.73,-5.865
0.845,-1.102,9.197,-0.527,-0.0,1.006,10.011,0.814,0.0,1.438,9.347,-1.15,5.865,-11.73,0.0
0.85,-2.012,7.52,-0.766,-0.0,1.677,8.143,1.341,0.0,2.588,6.471,-1.15,5.865,-17.595,0.0
0.855,-1.293,8.574,-1.102,-5.865,0.766,8.814,1.868,-5.865,1.438,9.059,-1.726,-5.865,-17.595,-5.865
0.86,-0.527,9.532,-1.293,-11.73,0.527,9.197,1.629,-5.865,0.863,10.21,-1.869,-5.865,-17.595,-11.73
0.865,-0.048,9.867,-0.958,-5.865,0.766,9.724,1.054,-5.865,0.144,10.354,-1.438,0.0,-17.595,-5.865
0.87,-0.096,9.915,-0.479,-5.865,0.862,9.963,0.814,0.0,0.0,10.21,-0.863,5.865,-17.595,-5.865
0.875,-0.383,9.724,-0.24,-0.0,0.91,9.82,0.766,0.0,0.575,9.778,-0.719,5.865,-11.73,0.0
0.88,-0.766,9.532,-0.287,-0.0,0.91,9.628,0.766,0.0,1.007,9.635,-0.863,5.865,-5.865,0.0
0.885,-0.862,9.341,-0.335,-0.0,0.862,9.58,0.862,-5.865,1.294,9.491,-0.863,5.865,-5.865,0.0
0.89,-0.814,9.197,-0.383,-5.865,0.766,9.58,0.862,-11.73,1.15,9.203,-0.863,5.865,-5.865,-5.865
0.895,-0.719,9.149,-0.479,-11.73,0.91,9.484,0.766,-11.73,1.007,9.059,-1.007,5.865,0.0,-11.73
0.9,-0.527,9.053,-0.287,-11.73,0.623,9.484,0.958,-17.595,0.863,9.059,-0.863,0.0,0.0,-11.73
0.905,-0.719,9.053,-0.335,-17.595,0.287,9.58,0.958,-17.595,0.863,9.059,-0.863,-5.865,0.0,-17.595
0.91,-1.485,9.101,-0.24,-17.595,0.671,9.436,0.335,-17.595,1.294,9.203,-1.007,-5.865,0.0,-17.595
0.915,-0.719,8.67,0.144,-23.46,0.575,8.909,0.575,-23.46,1.007,8.484,-0.288,-11.73,0.0,-23.46
0.92,-0.527,8.814,-0.24,-29.326,0.719,8.957,0.91,-29.326,1.294,9.059,-0.719,-17.595,0.0,-29.326
0.925,-0.671,9.197,-0.431,-29.326,0.862,9.101,0.862,-29.326,1.294,9.635,-1.007,-17.595,0.0,-35.191
0.93,-0.766,9.532,-0.383,-23.46,0.862,9.436,0.91,-23.46,1.294,10.066,-1.007,-11.73,0.0,-29.326
0.935,-0.814,9.772,-0.479,-23.46,0.671,9.724,1.054,-17.595,1.294,10.21,-1.007,-11.73,0.0,-23.46
0.9400000000000001,-0.91,9.772,-0.575,-17.595,0.719,9.724,0.958,-11.73,1.294,10.066,-1.007,-5.865,-5.865,-23.46
0.9450000000000001,-0.91,9.724,-0.335,-11.73,0.431,9.724,0.91,-11.73,1.007,9.922,-1.007,-5.865,-5.865,-17.595
0.9500000000000001,-0.719,9.628,-0.431,-11.73,0.287,9.676,0.91,-5.865,0.863,9.778,-1.007,-5.865,-5.865,-11.73
0.9550000000000001,-0.431,9.676,-0.527,-5.865,0.623,9.676,0.719,-5.865,0.863,9.778,-1.15,-5.865,-5.865,-11.73
0.96,-0.335,9.628,-0.383,-5.865,0.719,9.724,0.862,-5.865,0.719,9.778,-0.863,-5.865,-11.73,-11.73
0.965,-0.24,9.484,-0.335,-5.865,0.479,9.676,0.766,-5.865,0.575,9.635,-0.863,-5.865,-5.865,-11.73
0.97,-0.335,9.676,-0.335,-5.865,0.527,9.915,0.719,-5.865,1.007,9.922,-0.863,-5.865,-5.865,-11.73
0.975,-0.192,9.724,-0.24,-5.865,0.479,9.915,0.814,-5.865,1.007,10.354,-0.719,-5.865,-5.865,-17.595
0.98,-0.623,10.011,-0.335,-5.865,0.527,9.676,0.91,-5.865,0.144,9.778,-1.007,-5.865,-5.865,-23.46
0.985,-0.287,9.82,-0.335,-11.73,0.048,10.299,1.868,-11.73,0.431,10.21,-0.863,-5.865,-5.865,-23.46
0.99,-0.671,8.622,-2.922,-11.73,0.766,7.904,1.485,-17.595,1.007,7.19,-3.595,-5.865,-5.865,-23.46
0.995,-0.479,8.383,-0.383,-17.595,0.144,8.191,0.719,-17.595,0.288,9.059,-1.294,-11.73,-11.73,-23.46
1.0,0.048,8.478,0.0,-17.595,0.431,9.293,0.335,-17.595,0.144,8.916,-0.431,-17.595,-5.865,-23.46
1.0050000000000001,-0.575,9.341,0.096,-17.595,1.102,10.586,0.24,-11.73,1.438,9.491,-0.575,-17.595,0.0,-23.46
1.01,-0.91,10.059,0.335,-11.73,0.91,9.82,0.814,-11.73,1.15,10.066,-0.288,-17.595,-5.865,-23.46
1.0150000000000001,-0.479,10.059,-0.527,-11.73,0.287,9.005,1.533,-11.73,0.431,10.497,-1.007,-23.46,0.0,-23.46
1.02,0.0,9.772,-1.245,-11.73,0.431,9.197,1.485,-5.865,0.144,10.21,-1.582,-17.595,0.0,-17.595
1.025,-0.048,9.484,-0.719,-5.865,0.383,9.724,0.862,0.0,-0.144,9.778,-1.15,-11.73,-5.865,-11.73
1.03,-0.144,9.484,-0.192,-0.0,0.287,9.867,0.719,5.865,0.144,9.635,-0.719,-5.865,0.0,0.0
1.035,-0.192,9.676,-0.287,5.865,0.383,9.867,0.719,11.73,0.431,9.778,-0.863,-11.73,5.865,0.0
1.04,-0.431,9.772,-0.24,5.865,0.527,9.915,0.766,11.73,0.719,10.066,-0.719,-11.73,5.865,5.865
1.045,-0.431,9.82,-0.287,11.73,0.431,9.82,0.814,11.73,0.719,10.066,-0.863,-11.73,5.865,5.865
1.05,-0.287,9.82,-0.335,11.73,0.383,9.82,0.814,11.73,0.431,10.066,-0.863,-11.73,0.0,5.865
1.055,-0.192,9.772,-0.335,5.865,0.383,9.915,0.862,11.73,0.575,10.21,-0.863,-11.73,5.865,5.865
1.06,-0.24,9.867,-0.335,5.865,0.431,10.059,0.766,11.73,0.719,10.354,-0.863,-11.73,5.865,5.865
1.065,-0.479,10.107,-0.287,11.73,0.527,10.155,0.766,11.73,0.719,10.354,-0.863,-11.73,5.865,0.0
1.07,-0.479,10.155,-0.24,11.73,0.527,10.059,0.671,11.73,0.863,10.497,-0.863,-11.73,5.865,0.0
1.075,-0.575,10.299,-0.24,5.865,0.479,10.059,0.671,5.865,0.575,10.354,-0.719,-11.73,5.865,0.0
1.08,-0.479,10.203,-0.192,5.865,0.719,10.059,0.671,5.865,0.575,10.497,-0.719,-11.73,5.865,0.0
1.085,-0.479,10.203,-0.144,5.865,0.192,10.059,0.814,5.865,0.575,10.641,-0.575,-5.865,5.865,0.0
1.09,-0.287,10.155,-0.479,5.865,0.431,9.963,1.054,5.865,0.719,10.354,-1.007,-5.865,5.865,0.0
1.095,-0.383,9.963,-0.575,5.865,0.431,9.867,1.15,5.865,0.431,10.066,-1.15,-5.865,0.0,0.0
1.1,-0.335,9.867,-0.575,-0.0,0.479,9.82,1.006,5.865,0.431,10.066,-1.15,-5.865,0.0,0.0
1.105,-0.287,9.82,-0.575,-0.0,0.431,9.82,1.006,0.0,0.288,9.922,-1.15,0.0,0.0,0.0
1.11,-0.192,9.628,-0.575,-0.0,0.383,9.724,0.862,5.865,0.431,9.635,-1.007,0.0,5.865,0.0
1.115,-0.431,9.532,-0.431,-0.0,0.575,9.676,0.814,0.0,0.719,9.635,-1.007,0.0,5.865,0.0
1.12,-0.575,9.532,-0.287,-0.0,0.671,9.58,0.91,0.0,0.719,9.635,-0.863,0.0,0.0,0.0
1.125,-0.671,9.58,-0.431,-0.0,0.575,9.532,0.91,0.0,0.863,9.922,-1.007,-5.865,5.865,0.0
1.1300000000000001,-0.527,9.676,-0.431,-0.0,0.671,9.676,0.862,5.865,0.719,10.066,-0.863,-5.865,0.0,0.0
1.135,-0.575,9.82,-0.383,5.865,0.671,9.724,0.814,5.865,0.863,10.066,-0.863,-5.865,5.865,5.865
1.1400000000000001,-0.719,9.82,-0.335,5.865,0.766,9.772,0.719,5.865,1.007,10.066,-0.863,0.0,0.0,5.865
1.145,-0.719,9.772,-0.192,5.865,0.719,9.724,0.623,11.73,0.863,10.066,-0.719,0.0,0.0,5.865
1.1500000000000001,-0.719,9.724,-0.144,5.865,0.719,9.676,0.527,11.73,0.863,9.922,-0.719,0.0,0.0,11.73
1.155,-0.719,9.58,-0.096,11.73,0.719,9.676,0.527,11.73,0.863,9.778,-0.575,0.0,0.0,11.73
1.16,-0.814,9.58,-0.048,11.73,0.814,9.772,0.479,17.595,1.15,9.778,-0.575,0.0,0.0,11.73
1.165,-0.862,9.58,-0.048,11.73,0.766,9.867,0.527,17.595,1.15,9.778,-0.575,0.0,0.0,11.73
1.17,-0.862,9.628,-0.096,11.73,0.814,10.107,0.335,17.595,1.15,9.635,-0.575,0.0,-5.865,11.73
1.175,-0.862,9.628,0.287,17.595,0.814,10.49,-0.527,17.595,1.15,9.491,-0.144,-5.865,-5.865,17.595
1.18,-0.958,9.58,0.671,11.73,0.766,9.82,0.335,17.595,1.294,9.347,0.144,-11.73,-5.865,11.73
1.185,-0.766,9.676,0.048,11.73,0.766,9.963,0.575,11.73,0.863,9.778,-0.575,-17.595,-5.865,11.73
1.19,-0.671,9.772,-0.096,11.73,0.862,10.059,0.479,11.73,0.863,9.778,-0.575,-23.46,-11.73,11.73
1.195,-0.719,9.676,-0.096,11.73,0.862,9.915,0.575,5.865,0.863,9.635,-0.575,-23.46,-11.73,5.865
1.2,-0.719,9.628,-0.192,5.865,0.766,9.676,0.862,5.865,0.863,9.778,-0.719,-23.46,-11.73,5.865
1.205,-0.575,9.724,-0.431,5.865,0.719,9.82,1.054,0.0,0.719,9.922,-1.007,-29.326,-11.73,0.0
1.21,-0.527,9.772,-0.671,-0.0,0.719,10.011,1.198,0.0,0.575,9.922,-1.15,-29.326,-5.865,0.0
1.215,-0.623,9.724,-0.719,-5.865,0.575,9.915,1.437,-5.865,0.863,9.778,-1.15,-29.326,-5.865,-5.865
1.22,-0.575,9.915,-1.006,-5.865,0.575,9.867,1.485,-5.865,0.719,10.21,-1.582,-29.326,-5.865,-5.865
1.225,-0.479,9.867,-1.006,-5.865,0.527,9.915,1.389,-5.865,0.719,10.066,-1.582,-29.326,-5.865,-11.73
1.23,-0.479,9.867,-0.958,-5.865,0.575,9.772,1.437,-5.865,0.719,10.066,-1.438,-29.326,-5.865,-11.73
1.235,-0.383,9.867,-1.006,-5.865,0.479,9.724,1.533,-5.865,0.575,10.21,-1.582,-29.326,-5.865,-5.865
1.24,-0.383,9.963,-1.054,-5.865,0.623,9.82,1.677,-5.865,0.575,10.354,-1.582,-29.326,-5.865,-5.865
1.245,-0.479,10.203,-1.198,-5.865,1.15,9.436,1.389,0.0,0.719,10.641,-1.726,-23.46,-5.865,-5.865
1.25,-0.527,10.346,-1.102,-0.0,0.287,10.299,2.108,0.0,0.575,10.929,-1.582,-23.46,-5.865,0.0
1.2550000000000001,-0.383,10.586,-1.724,-0.0,0.575,10.49,2.299,5.865,0.719,11.073,-2.301,-17.595,0.0,0.0
1.26,-0.431,10.73,-1.772,5.865,0.479,10.634,2.251,5.865,0.575,11.073,-2.301,-11.73,0.0,5.865
1.2650000000000001,-0.287,10.825,-1.772,-0.0,0.335,10.73,2.156,5.865,0.431,11.216,-2.301,-5.865,0.0,5.865
1.27,-0.24,10.682,-1.629,5.865,0.335,10.538,2.06,5.865,0.431,10.929,-2.157,-5.865,0.0,0.0
1.2750000000000001,-0.144,10.586,-1.533,5.865,0.24,10.346,1.916,5.865,0.288,10.929,-2.013,-5.865,0.0,5.865
1.28,-0.096,10.394,-1.389,5.865,0.192,10.203,1.772,5.865,0.288,10.641,-1.869,-5.865,0.0,5.865
1.285,-0.096,10.155,-1.293,5.865,0.192,10.203,1.724,5.865,0.288,10.354,-1.726,-5.865,0.0,5.865
1.29,-0.192,10.107,-1.293,5.865,0.096,9.82,1.916,5.865,0.431,10.354,-1.869,0.0,0.0,5.865
1.295,0.096,9.963,-1.389,-0.0,0.048,9.484,1.964,0.0,-0.144,10.354,-2.013,0.0,0.0,0.0
1.3,0.24,9.676,-1.437,-0.0,0.192,9.197,2.012,0.0,-0.288,10.066,-2.013,0.0,0.0,0.0
1.305,0.144,9.341,-1.533,-0.0,0.24,8.909,2.012,5.865,-0.144,9.778,-2.013,0.0,5.865,0.0
1.31,-0.096,9.149,-1.437,5.865,0.24,9.005,1.629,5.865,0.144,9.491,-2.013,5.865,5.865,0.0
1.315,-0.24,9.197,-1.054,-0.0,0.287,9.388,1.437,0.0,0.431,9.491,-1.582,5.865,5.865,0.0
1.32,-0.24,9.628,-0.958,-0.0,0.287,9.963,1.581,0.0,0.431,9.922,-1.582,5.865,11.73,0.0
1.325,-0.192,10.059,-1.198,-0.0,0.287,10.394,1.724,0.0,0.431,10.21,-1.726,5.865,5.865,0.0
1.33,-0.24,10.251,-1.293,-0.0,0.383,10.442,1.677,0.0,0.431,10.354,-1.869,5.865,5.865,0.0
1.335,-0.383,10.203,-1.15,-0.0,0.431,10.251,1.485,0.0,0.575,10.354,-1.726,5.865,11.73,-5.865
1.34,-0.527,10.059,-0.958,-5.865,0.479,10.107,1.341,-5.865,0.863,10.21,-1.582,5.865,5.865,-5.865
1.345,-0.575,9.963,-0.862,-5.865,0.479,9.963,1.293,-5.865,0.863,10.066,-1.438,5.865,5.865,-5.865
1.35,-0.479,9.915,-0.814,-5.865,0.431,9.915,1.293,-5.865,0.719,10.066,-1.294,5.865,5.865,-5.865
1.355,-0.383,9.867,-0.862,-5.865,0.431,9.867,1.293,-5.865,0.575,10.066,-1.438,5.865,5.865,-5.865
1.36,-0.287,9.82,-0.814,-5.865,0.383,9.772,1.341,-5.865,0.431,10.066,-1.294,5.865,5.865,-5.865
1.365,-0.24,9.724,-0.862,-5.865,0.431,9.724,1.389,-5.865,0.431,9.922,-1.438,5.865,5.865,-5.865
1.37,-0.287,9.676,-0.91,-5.865,0.431,9.676,1.437,-5.865,0.431,9.778,-1.438,5.865,5.865,-11.73
1.375,-0.335,9.628,-0.958,-5.865,0.431,9.628,1.437,-5.865,0.431,9.778,-1.438,5.865,5.865,-11.73
1.3800000000000001,-0.479,9.484,-1.006,-5.865,0.431,9.484,1.485,0.0,0.431,9.635,-1.582,5.865,5.865,-5.865
1.385,-0.527,9.341,-1.006,-5.865,0.431,9.341,1.485,0.0,0.431,9.491,-1.582,5.865,5.865,-11.73
1.3900000000000001,-0.287,9.149,-1.006,-0.0,0.24,9.197,1.437,0.0,0.575,9.203,-1.582,5.865,5.865,-11.73
1.395,-0.287,9.005,-1.006,-0.0,0.335,8.957,1.533,5.865,0.431,9.059,-1.582,0.0,0.0,-11.73
1.4000000000000001,-0.192,8.814,-1.054,5.865,0.192,8.862,1.581,5.865,0.288,8.916,-1.582,0.0,0.0,-5.865
1.405,-0.144,8.766,-1.102,5.865,0.287,9.005,1.677,5.865,0.288,8.772,-1.726,0.0,5.865,-5.865
1.41,-0.287,8.957,-1.198,5.865,0.335,9.197,1.724,5.865,0.288,9.059,-1.726,0.0,5.865,0.0
1.415,-0.24,9.149,-1.245,5.865,0.335,9.245,1.677,11.73,0.288,9.347,-1.726,-5.865,5.865,0.0
1.42,-0.24,9.245,-1.198,11.73,0.383,9.245,1.677,11.73,0.431,9.491,-1.726,-5.865,5.865,0.0
1.425,-0.431,9.293,-1.198,11.73,0.527,9.293,1.677,11.73,0.431,9.491,-1.726,-5.865,5.865,5.865
1.43,-0.527,9.341,-1.245,11.73,0.575,9.388,1.724,17.595,0.575,9.635,-1.726,-5.865,5.865,5.865
1.435,-0.527,9.436,-1.245,11.73,0.575,9.436,1.772,17.595,0.719,9.635,-1.726,-5.865,5.865,5.865
1.44,-0.575,9.436,-1.293,11.73,0.671,9.58,1.724,17.595,0.719,9.635,-1.726,-5.865,5.865,5.865
1.445,-0.575,9.532,-1.245,17.595,0.575,9.484,1.772,17.595,0.719,9.635,-1.726,0.0,0.0,5.865
1.45,-0.623,9.436,-1.293,17.595,0.671,9.484,1.772,17.595,0.575,9.635,-1.869,0.0,0.0,5.865
1.455,-0.527,9.388,-1.245,17.595,0.575,9.436,1.677,17.595,0.575,9.635,-1.726,-5.865,0.0,5.865
1.46,-0.527,9.293,-1.198,17.595,0.575,9.341,1.629,17.595,0.431,9.491,-1.726,0.0,0.0,5.865
1.465,-0.479,9.149,-1.15,11.73,0.623,9.245,1.629,11.73,0.575,9.203,-1.726,0.0,5.865,0.0
1.47,-0.479,9.053,-1.15,11.73,0.623,9.245,1.677,11.73,0.575,9.203,-1.726,-5.865,5.865,0.0
1.475,-0.527,9.053,-1.198,11.73,0.623,9.197,1.772,11.73,0.431,9.059,-1.726,-5.865,5.865,0.0
1.48,-0.575,9.101,-1.293,5.865,0.814,9.341,1.772,5.865,0.719,9.203,-1.869,-5.865,5.865,-5.865
1.485,-0.814,9.245,-1.341,5.865,0.91,9.436,1.772,5.865,0.863,9.347,-1.869,-5.865,5.865,0.0
1.49,-0.91,9.388,-1.245,5.865,0.958,9.58,1.581,5.865,1.007,9.635,-1.726,-5.865,5.865,0.0
1.495,-0.91,9.532,-1.102,5.865,1.006,9.58,1.485,5.865,1.007,9.778,-1.582,-5.865,5.865,0.0
1.5,-0.862,9.484,-0.958,5.865,0.958,9.532,1.437,5.865,1.007,9.778,-1.438,-5.865,5.865,0.0
1.5050000000000001,-0.958,9.532,-0.958,5.865,1.054,9.58,1.533,5.865,1.007,9.778,-1.438,-5.865,5.865,0.0
1.51,-1.102,9.628,-1.054,5.865,1.102,9.676,1.629,11.73,1.007,9.778,-1.582,-5.865,5.865,0.0
1.5150000000000001,-1.102,9.628,-1.15,11.73,1.054,9.676,1.629,11.73,1.15,9.778,-1.726,-5.865,5.865,0.0
1.52,-1.054,9.676,-1.15,11.73,1.054,9.724,1.677,11.73,1.15,9.922,-1.726,-5.865,5.865,5.865
1.5250000000000001,-1.054,9.724,-1.198,11.73,1.054,9.676,1.629,17.595,1.15,9.922,-1.726,-5.865,5.865,5.865
1.53,-0.958,9.628,-1.15,11.73,0.958,9.676,1.581,11.73,1.15,10.066,-1.726,-5.865,0.0,5.865
1.5350000000000001,-0.862,9.628,-1.102,11.73,0.91,9.724,1.581,11.73,1.007,10.066,-1.582,-5.865,0.0,5.865
1.54,-0.862,9.628,-1.15,11.73,0.958,9.676,1.724,11.73,0.863,9.922,-1.726,-5.865,0.0,5.865
1.545,-0.958,9.58,-1.293,5.865,0.958,9.724,1.82,5.865,1.007,9.922,-1.869,-5.865,0.0,5.865
1.55,-1.006,9.628,-1.341,5.865,0.958,9.82,1.772,5.865,1.15,9.922,-1.869,-5.865,0.0,0.0
1.555,-1.006,9.628,-1.293,5.865,1.006,9.867,1.724,5.865,1.15,9.922,-1.869,-5.865,0.0,0.0
1.56,-1.054,9.676,-1.245,-0.0,1.054,9.867,1.724,0.0,1.15,9.922,-1.726,-5.865,0.0,0.0
1.565,-1.102,9.82,-1.245,-0.0,1.102,9.963,1.629,0.0,1.15,10.066,-1.726,-5.865,0.0,0.0
1.57,-1.15,9.915,-1.15,-5.865,1.102,10.059,1.581,0.0,1.294,10.21,-1.726,-5.865,-5.865,0.0
1.575,-1.15,10.059,-1.102,-5.865,1.102,10.203,1.533,0.0,1.294,10.354,-1.582,-5.865,-5.865,-5.865
1.58,-1.15,10.203,-1.054,-0.0,1.102,10.203,1.437,0.0,1.15,10.497,-1.582,-5.865,-5.865,0.0
1.585,-1.102,10.251,-0.958,-0.0,1.102,10.155,1.437,0.0,1.15,10.641,-1.438,-5.865,-5.865,0.0
1.59,-1.054,10.299,-0.958,-0.0,1.054,10.155,1.389,0.0,1.007,10.641,-1.438,-5.865,-5.865,0.0
1.595,-1.006,10.299,-0.91,-0.0,1.006,10.203,1.389,5.865,1.007,10.641,-1.438,-5.865,-5.865,0.0
1.6,-0.958,10.251,-0.958,-0.0,0.958,10.107,1.485,5.865,1.007,10.497,-1.438,0.0,-11.73,0.0
1.605,-0.91,10.155,-1.006,-0.0,0.958,10.059,1.581,5.865,0.863,10.497,-1.582,0.0,-11.73,0.0
1.61,-0.814,10.059,-1.102,5.865,0.91,10.107,1.581,5.865,0.863,10.354,-1.582,0.0,-5.865,5.865
1.615,-0.766,9.963,-1.102,5.865,0.862,10.011,1.581,5.865,0.719,10.21,-1.582,0.0,-5.865,5.865
1.62,-0.719,9.867,-1.15,5.865,0.862,9.963,1.581,5.865,0.575,10.066,-1.726,0.0,-5.865,5.865
1.625,-0.671,9.724,-1.054,-0.0,0.814,9.867,1.485,0.0,0.575,9.778,-1.582,0.0,-5.865,0.0
1.6300000000000001,-0.575,9.628,-0.958,-0.0,0.766,9.772,1.437,0.0,0.431,9.778,-1.438,0.0,-5.865,0.0
1.635,-0.575,9.532,-0.91,-0.0,0.766,9.724,1.389,0.0,0.431,9.635,-1.438,0.0,-5.865,0.0
1.6400000000000001,-0.575,9.484,-0.91,-5.865,0.766,9.58,1.437,-5.865,0.575,9.635,-1.438,-5.865,0.0,-5.865
1.645,-0.671,9.436,-0.958,-5.865,0.814,9.484,1.485,-5.865,0.575,9.635,-1.438,-5.865,0.0,-5.865
1.6500000000000001,-0.719,9.388,-1.006,-5.865,0.814,9.484,1.533,-5.865,0.719,9.635,-1.582,-5.865,0.0,-11.73
1.655,-0.766,9.436,-1.054,-5.865,0.814,9.484,1.533,-5.865,0.863,9.635,-1.582,-5.865,0.0,-11.73
1.6600000000000001,-0.766,9.436,-1.054,-11.73,0.814,9.436,1.485,-5.865,0.719,9.635,-1.582,-5.865,0.0,-11.73
1.665,-0.766,9.436,-1.006,-5.865,0.814,9.436,1.485,-5.865,0.719,9.778,-1.582,-5.865,0.0,-11.73
1.67,-0.766,9.388,-1.006,-5.865,0.719,9.388,1.533,-5.865,0.719,9.635,-1.582,-5.865,0.0,-5.865
1.675,-0.719,9.341,-1.054,-5.865,0.719,9.341,1.581,0.0,0.719,9.491,-1.582,-5.865,0.0,-5.865
1.68,-0.623,9.341,-1.15,-5.865,0.719,9.388,1.677,0.0,0.575,9.635,-1.726,-5.865,0.0,0.0
1.685,-0.623,9.388,-1.198,-0.0,0.719,9.484,1.724,0.0,0.575,9.635,-1.726,-5.865,0.0,0.0
1.69,-0.623,9.436,-1.293,-0.0,0.719,9.484,1.772,0.0,0.575,9.635,-1.726,-5.865,0.0,0.0
1.695,-0.671,9.484,-1.293,-0.0,0.766,9.628,1.724,0.0,0.575,9.778,-1.869,-5.865,0.0,0.0
1.7,-0.671,9.532,-1.245,-0.0,0.719,9.724,1.677,0.0,0.575,9.778,-1.726,-5.865,0.0,0.0
1.705,-0.623,9.628,-1.198,-0.0,0.766,9.772,1.677,0.0,0.575,9.778,-1.726,-5.865,0.0,0.0
1.71,-0.623,9.724,-1.198,-0.0,0.766,9.867,1.677,0.0,0.575,9.922,-1.726,-5.865,0.0,0.0
1.715,-0.671,9.772,-1.198,-0.0,0.766,9.867,1.724,0.0,0.575,9.922,-1.726,-5.865,0.0,0.0
1.72,-0.671,9.724,-1.245,-0.0,0.766,9.772,1.772,0.0,0.575,9.922,-1.726,-5.865,0.0,0.0
1.725,-0.719,9.628,-1.293,-5.865,0.814,9.676,1.82,-5.865,0.719,9.778,-1.869,-5.865,0.0,-5.865
1.73,-0.766,9.58,-1.341,-5.865,0.862,9.628,1.82,-5.865,0.719,9.778,-1.869,-5.865,0.0,-5.865
1.735,-0.766,9.532,-1.341,-5.865,0.862,9.628,1.772,-5.865,0.719,9.778,-1.869,-11.73,0.0,-5.865
1.74,-0.766,9.58,-1.293,-5.865,0.814,9.532,1.772,-5.865,0.719,9.778,-1.869,-11.73,0.0,-5.865
1.745,-0.719,9.532,-1.293,-5.865,0.814,9.436,1.772,-5.865,0.719,9.778,-1.726,-11.73,0.0,-5.865
1.75,-0.766,9.484,-1.293,-5.865,0.862,9.436,1.724,0.0,0.719,9.635,-1.869,-11.73,0.0,-5.865
1.7550000000000001,-0.814,9.484,-1.293,-5.865,0.91,9.436,1.772,0.0,0.863,9.491,-1.869,-5.865,0.0,-5.865
1.76,-0.91,9.532,-1.293,-5.865,0.91,9.436,1.772,0.0,0.863,9.347,-1.869,-5.865,0.0,0.0
1.7650000000000001,-0.814,9.341,-1.245,-0.0,0.814,9.436,1.772,0.0,0.863,9.778,-1.869,-5.865,0.0,0.0
1.77,-0.719,9.388,-1.293,-0.0,0.766,9.436,1.772,0.0,0.719,9.635,-1.869,-5.865,0.0,5.865
1.7750000000000001,-0.671,9.388,-1.293,-0.0,0.814,9.436,1.772,0.0,0.719,9.635,-1.869,-5.865,0.0,5.865
1.78,-0.623,9.484,-1.293,-0.0,1.054,9.293,1.772,5.865,0.575,9.635,-1.869,-5.865,0.0,5.865
1.7850000000000001,-0.766,9.484,-1.293,-5.865,0.527,9.724,1.868,5.865,0.719,9.778,-1.869,-5.865,0.0,0.0
1.79,-0.719,9.197,-1.437,-5.865,0.766,9.484,1.964,5.865,0.719,9.635,-2.013,-11.73,0.0,-5.865
1.795,-0.814,9.341,-1.437,-5.865,0.862,9.532,1.916,0.0,0.863,9.635,-2.013,-11.73,0.0,0.0
1.8,-0.766,9.484,-1.485,-5.865,0.766,9.532,2.06,0.0,0.863,9.635,-2.013,-11.73,0.0,0.0
1.805,-0.671,9.58,-1.533,-5.865,0.766,9.58,1.964,0.0,0.575,9.778,-2.157,-11.73,0.0,0.0
1.81,-0.527,9.58,-1.437,-5.865,0.719,9.628,1.916,0.0,0.431,9.778,-2.013,-5.865,0.0,0.0
1.815,-0.575,9.532,-1.437,-5.865,0.719,9.532,1.964,0.0,0.575,9.778,-2.013,-5.865,0.0,0.0
1.82,-0.623,9.388,-1.485,-5.865,0.766,9.484,2.012,0.0,0.719,9.635,-2.013,-5.865,0.0,0.0
1.825,-0.671,9.293,-1.533,-0.0,0.719,9.484,2.012,0.0,0.719,9.491,-2.013,-5.865,0.0,0.0
1.83,-0.671,9.293,-1.581,-0.0,0.719,9.484,2.06,0.0,0.719,9.491,-2.157,-5.865,0.0,0.0
1.835,-0.623,9.341,-1.581,-0.0,0.719,9.484,2.06,0.0,0.575,9.491,-2.157,-11.73,0.0,0.0
1.84,-0.527,9.436,-1.581,-0.0,0.671,9.532,2.012,0.0,0.431,9.635,-2.013,-11.73,0.0,0.0
1.845,-0.431,9.532,-1.533,-5.865,0.623,9.58,2.012,0.0,0.431,9.778,-2.013,-11.73,5.865,0.0
1.85,-0.431,9.628,-1.485,-0.0,0.719,9.676,2.012,0.0,0.431,10.066,-2.013,-11.73,5.865,0.0
1.855,-0.527,9.82,-1.533,-0.0,0.766,9.82,2.06,0.0,0.431,10.21,-2.013,-11.73,5.865,0.0
1.86,-0.623,10.011,-1.581,-0.0,0.862,10.011,2.06,5.865,0.719,10.354,-2.157,-5.865,5.865,0.0
1.865,-0.719,10.251,-1.581,-0.0,0.814,10.155,1.964,5.865,0.719,10.641,-2.013,-5.865,5.865,0.0
1.87,-0.671,10.346,-1.437,5.865,0.766,10.155,1.868,5.865,0.719,10.785,-2.013,-5.865,5.865,5.865
1.875,-0.671,10.299,-1.437,5.865,0.766,10.107,1.964,5.865,0.719,10.641,-2.013,-5.865,11.73,5.865
1.8800000000000001,-0.719,10.203,-1.485,5.865,0.766,10.107,2.06,5.865,0.719,10.497,-2.013,0.0,11.73,5.865
1.885,-0.671,10.107,-1.581,5.865,0.719,10.059,2.108,5.865,0.719,10.354,-2.157,0.0,11.73,5.865
1.8900000000000001,-0.623,9.963,-1.677,5.865,0.671,9.963,2.156,5.865,0.719,10.21,-2.157,5.865,11.73,0.0
1.895,-0.623,9.82,-1.677,-0.0,0.671,9.867,2.156,5.865,0.719,9.922,-2.301,5.865,5.865,0.0
1.9000000000000001,-0.623,9.724,-1.677,-0.0,0.671,9.867,2.108,0.0,0.719,9.922,-2.157,0.0,5.865,0.0
1.905,-0.575,9.676,-1.629,-0.0,0.671,9.867,2.06,0.0,0.575,9.778,-2.157,0.0,5.865,0.0
1.9100000000000001,-0.623,9.676,-1.581,-0.0,0.671,9.867,2.012,0.0,0.575,9.778,-2.157,0.0,5.865,0.0
1.915,-0.623,9.676,-1.485,-0.0,0.719,9.867,1.916,0.0,0.719,9.778,-2.013,0.0,5.865,0.0
1.92,-0.671,9.724,-1.485,-0.0,0.766,9.867,1.916,0.0,0.719,9.922,-2.013,0.0,5.865,0.0
1.925,-0.623,9.82,-1.389,-0.0,0.766,9.867,1.868,0.0,0.719,10.066,-1.869,0.0,5.865,0.0
1.93,-0.623,9.867,-1.389,-0.0,0.766,9.867,1.868,0.0,0.719,10.066,-1.869,-5.865,5.865,0.0
1.935,-0.623,9.82,-1.389,-0.0,0.766,9.82,1.868,0.0,0.719,10.066,-1.869,0.0,5.865,0.0
1.94,-0.623,9.772,-1.437,-0.0,0.719,9.772,1.964,0.0,0.575,10.066,-2.013,0.0,5.865,0.0
1.945,-0.623,9.724,-1.485,-0.0,0.766,9.724,2.012,0.0,0.575,9.922,-2.013,-5.865,5.865,0.0
1.95,-0.623,9.676,-1.533,-0.0,0.766,9.676,2.06,5.865,0.575,9.922,-2.013,0.0,11.73,0.0
1.955,-0.575,9.676,-1.533,-0.0,0.719,9.676,2.06,5.865,0.575,9.922,-2.157,0.0,11.73,0.0
1.96,-0.575,9.724,-1.581,-0.0,0.766,9.724,2.156,5.865,0.575,10.066,-2.157,0.0,11.73,0.0
1.965,-0.623,9.772,-1.677,-0.0,0.766,9.82,2.203,5.865,0.575,10.066,-2.157,0.0,11.73,0.0
1.97,-0.671,9.867,-1.724,-0.0,0.766,9.963,2.203,5.865,0.719,10.21,-2.301,0.0,11.73,0.0
1.975,-0.671,9.963,-1.724,-0.0,0.719,9.915,2.156,5.865,0.719,10.21,-2.301,0.0,11.73,0.0
1.98,-0.575,9.915,-1.629,-0.0,0.671,9.915,2.108,5.865,0.575,10.21,-2.157,0.0,11.73,0.0
1.985,-0.527,9.915,-1.629,-0.0,0.623,9.867,2.108,5.865,0.575,10.21,-2.157,0.0,11.73,0.0
1.99,-0.479,9.82,-1.677,-0.0,0.623,9.82,2.156,0.0,0.575,10.066,-2.157,0.0,11.73,0.0
1.995,-0.527,9.724,-1.677,-0.0,0.623,9.772,2.156,5.865,0.575,9.922,-2.301,0.0,17.595,0.0
2.0,-0.527,9.724,-1.724,-0.0,0.623,9.724,2.156,0.0,0.575,9.922,-2.301,5.865,17.595,0.0
2.005,-0.527,9.676,-1.677,-0.0,0.623,9.676,2.156,0.0,0.575,9.922,-2.157,5.865,17.595,0.0
2.0100000000000002,-0.479,9.628,-1.629,-0.0,0.623,9.628,2.06,0.0,0.431,9.922,-2.157,5.865,17.595,0.0
2.015,-0.479,9.628,-1.581,-0.0,0.623,9.58,2.012,0.0,0.431,9.922,-2.013,5.865,17.595,0.0
2.02,-0.431,9.532,-1.485,-0.0,0.575,9.484,1.964,0.0,0.431,9.778,-2.013,5.865,17.595,0.0
2.025,-0.431,9.436,-1.485,-0.0,0.527,9.436,2.012,0.0,0.431,9.635,-2.013,5.865,17.595,0.0
2.0300000000000002,-0.383,9.341,-1.485,-0.0,0.527,9.388,1.916,5.865,0.431,9.635,-2.013,5.865,17.595,0.0
2.035,-0.383,9.388,-1.437,-0.0,0.575,9.436,1.868,0.0,0.431,9.635,-1.869,5.865,17.595,0.0
2.04,-0.383,9.436,-1.389,-0.0,0.527,9.58,1.82,0.0,0.288,9.635,-1.869,5.865,17.595,0.0
2.045,-0.383,9.484,-1.341,-0.0,0.623,9.532,1.772,5.865,0.431,9.635,-1.869,5.865,17.595,0.0
2.05,-0.527,9.388,-1.245,-0.0,0.575,9.532,1.677,5.865,0.575,9.491,-1.726,5.865,23.46,0.0
2.055,-0.527,9.293,-1.15,5.865,0.383,9.676,1.389,5.865,0.575,9.347,-1.726,5.865,23.46,5.865
2.06,-0.623,9.197,-0.91,5.865,0.814,9.676,1.485,11.73,0.575,9.059,-1.438,0.0,23.46,5.865
2.065,-0.671,9.197,-0.958,5.865,0.575,9.532,1.293,11.73,0.719,9.203,-1.438,0.0,17.595,5.865
2.07,-0.527,9.197,-0.766,11.73,0.431,9.724,0.575,11.73,0.575,9.203,-1.294,-5.865,17.595,11.73
2.075,-0.671,9.005,-0.048,5.865,0.814,9.532,1.006,11.73,1.007,8.772,-0.431,-11.73,17.595,11.73
2.08,-0.766,9.149,-0.719,11.73,0.766,9.58,1.293,11.73,0.719,9.203,-1.294,-17.595,17.595,11.73
2.085,-0.719,9.341,-0.862,5.865,0.766,9.915,1.245,11.73,0.719,9.347,-1.438,-17.595,17.595,5.865
2.09,-0.623,9.532,-0.719,5.865,0.814,10.011,1.198,5.865,0.575,9.491,-1.294,-23.46,17.595,5.865
2.095,-0.671,9.58,-0.719,5.865,0.766,10.059,1.198,5.865,0.719,9.491,-1.294,-29.326,17.595,5.865
2.1,-0.766,9.58,-0.719,-0.0,0.862,10.969,1.868,0.0,0.863,9.491,-1.294,-29.326,17.595,0.0
2.105,-0.91,9.915,-1.293,-5.865,1.15,10.203,1.006,-5.865,1.007,9.491,-1.869,-35.191,17.595,-5.865
2.11,-1.102,9.724,-0.335,-5.865,0.862,9.484,0.287,-5.865,1.15,9.778,-0.863,-41.056,17.595,-5.865
2.115,-0.958,9.676,0.287,-11.73,0.91,9.005,-0.335,-5.865,1.15,10.066,-0.288,-46.921,11.73,-11.73
2.12,-1.198,9.532,0.862,-11.73,0.958,9.053,-0.383,-11.73,1.438,10.21,0.288,-46.921,11.73,-11.73
2.125,-1.293,9.724,0.814,-11.73,0.479,8.957,-1.198,-11.73,1.582,10.354,0.288,-41.056,5.865,-11.73
2.13,-1.82,10.107,1.868,-11.73,1.533,9.005,-2.06,-11.73,3.164,11.504,1.869,-35.191,0.0,-11.73
2.1350000000000002,-1.724,9.724,2.347,-11.73,0.814,9.245,-1.916,-5.865,2.157,10.497,2.013,-23.46,-5.865,-11.73
2.14,-1.437,9.82,2.251,-5.865,0.91,9.628,-1.724,0.0,2.157,10.497,1.869,-11.73,-11.73,-5.865
2.145,-1.389,9.915,2.06,-5.865,1.006,10.107,-1.485,-5.865,1.869,10.354,1.582,-5.865,-23.46,-5.865
2.15,-1.293,10.155,1.82,-5.865,0.91,10.682,-1.341,-5.865,1.726,10.354,1.294,-5.865,-29.326,-5.865
2.1550000000000002,-1.245,10.346,1.724,-5.865,0.862,11.017,-1.293,-5.865,1.582,10.354,1.294,0.0,-35.191,-5.865
2.16,-1.245,10.49,1.629,-5.865,0.719,11.304,-1.341,-5.865,1.582,10.354,1.15,-5.865,-41.056,-5.865
2.165,-1.198,10.538,1.724,-11.73,0.623,11.448,-1.485,-11.73,1.726,10.354,1.294,-5.865,-46.921,-11.73
2.17,-1.198,10.538,1.82,-17.595,0.575,11.496,-1.629,-17.595,1.726,10.21,1.294,-17.595,-52.786,-17.595
2.1750000000000003,-1.245,10.49,1.964,-17.595,0.479,11.496,-1.724,-23.46,1.869,10.066,1.438,-23.46,-58.651,-17.595
2.18,-1.245,10.394,2.012,-23.46,0.431,11.496,-1.772,-29.326,2.013,9.922,1.438,-35.191,-70.381,-23.46
2.185,-1.245,10.299,2.012,-29.326,0.383,11.688,-1.724,-35.191,2.013,9.778,1.438,-46.921,-82.111,-35.191
2.19,-1.245,10.299,1.868,-35.191,0.335,11.879,-1.485,-35.191,2.013,9.635,1.294,-58.651,-93.842,-35.191
2.195,-1.198,10.299,1.581,-35.191,0.335,12.167,-1.102,-41.056,2.013,9.491,1.007,-70.381,-105.572,-41.056
2.2,-1.102,10.346,1.102,-41.056,0.383,12.071,-0.527,-46.921,1.869,9.347,0.431,-87.977,-117.302,-46.921
2.205,-1.15,10.251,0.479,-46.921,0.575,11.592,0.24,-58.651,1.869,9.347,-0.288,-105.572,-129.032,-52.786
2.21,-1.15,10.107,-0.383,-58.651,0.766,10.921,1.15,-64.516,1.726,9.491,-1.15,-123.167,-140.762,-58.651
2.215,-1.102,9.772,-1.341,-64.516,0.958,10.299,2.251,-70.381,1.438,9.491,-2.157,-134.897,-146.628,-64.516
2.22,-1.15,9.436,-2.443,-70.381,1.198,9.341,3.497,-76.246,1.294,9.203,-3.307,-146.628,-158.358,-70.381
2.225,-1.102,8.862,-3.736,-76.246,1.341,8.095,5.03,-76.246,1.15,9.059,-4.602,-152.493,-158.358,-76.246
2.23,-1.006,8.239,-5.221,-76.246,1.533,6.61,6.802,-76.246,0.863,8.916,-6.04,-158.358,-164.223,-76.246
2.235,-0.862,7.616,-6.946,-76.246,1.724,5.461,8.622,-70.381,0.431,8.772,-7.765,-152.493,-164.223,-76.246
2.24,-0.671,7.041,-8.622,-64.516,1.772,4.694,10.442,-64.516,-0.144,8.628,-9.347,-134.897,-158.358,-70.381
2.245,-0.431,6.706,-10.346,-58.651,1.868,4.359,12.31,-52.786,-0.575,8.484,-11.073,-117.302,-146.628,-58.651
2.25,-0.24,6.467,-12.071,-46.921,1.82,4.503,13.891,-41.056,-1.007,8.197,-12.798,-99.707,-134.897,-46.921
2.255,-0.048,6.419,-13.508,-35.191,1.868,4.551,15.232,-23.46,-1.294,8.053,-14.092,-70.381,-117.302,-35.191
2.2600000000000002,0.144,6.371,-14.753,-17.595,1.82,4.598,16.382,-11.73,-1.582,7.909,-15.387,-52.786,-93.842,-23.46
2.265,0.335,6.371,-15.807,-5.865,1.82,4.886,17.148,0.0,-1.869,7.909,-16.393,-29.326,-70.381,-5.865
2.27,0.479,6.467,-16.43,5.865,1.724,5.269,17.531,11.73,-2.157,7.765,-16.968,-11.73,-46.921,0.0
2.275,0.575,6.514,-16.765,11.73,1.677,5.604,17.531,23.46,-2.157,7.621,-17.256,5.865,-23.46,11.73
2.2800000000000002,0.527,6.562,-16.717,23.46,1.581,6.083,17.005,29.326,-2.157,7.478,-17.112,23.46,5.865,23.46
2.285,0.383,6.419,-16.142,29.326,1.581,6.323,16.19,35.191,-1.726,7.046,-16.681,35.191,35.191,29.326
2.29,0.096,6.419,-15.28,35.191,1.485,6.706,14.945,41.056,-1.294,6.759,-15.818,41.056,58.651,35.191
2.295,-0.144,6.419,-14.035,41.056,1.629,6.802,14.035,46.921,-0.863,6.471,-14.524,41.056,76.246,35.191
2.3000000000000003,-0.671,6.706,-13.316,46.921,1.964,7.329,12.694,46.921,0.144,7.19,-13.805,41.056,93.842,41.056
2.305,-0.575,6.898,-12.023,46.921,1.437,7.76,11.927,52.786,-0.288,6.902,-12.654,41.056,105.572,46.921
2.31,-0.479,7.185,-11.304,52.786,1.437,8.047,10.921,52.786,-0.144,7.19,-11.935,41.056,123.167,52.786
2.315,-0.287,7.616,-10.155,52.786,1.245,8.43,9.628,46.921,-0.431,7.621,-10.785,35.191,134.897,46.921
2.32,-0.431,7.664,-8.862,41.056,1.485,8.287,8.67,41.056,-0.288,7.478,-9.491,29.326,146.628,41.056
2.325,-0.814,7.76,-7.999,41.056,1.581,8.335,7.425,41.056,0.431,7.765,-8.628,23.46,152.493,35.191
2.33,-1.102,7.856,-6.85,35.191,1.629,8.43,6.227,41.056,0.863,7.909,-7.478,17.595,158.358,35.191
2.335,-1.245,7.999,-5.604,35.191,1.389,8.526,4.886,41.056,1.15,8.053,-6.327,5.865,164.223,35.191
2.34,-1.341,8.143,-4.263,41.056,1.198,8.478,3.497,46.921,1.582,8.197,-5.033,5.865,170.088,41.056
2.345,-1.389,8.287,-2.826,46.921,0.958,8.383,1.82,46.921,1.726,8.484,-3.451,5.865,170.088,46.921
2.35,-1.437,8.478,-1.245,46.921,0.91,8.239,0.24,46.921,1.869,8.916,-1.869,5.865,164.223,46.921
2.355,-1.485,8.67,0.335,46.921,0.623,8.191,-1.293,46.921,2.157,9.347,-0.288,5.865,158.358,41.056
2.36,-1.437,8.909,1.868,46.921,0.527,8.383,-2.682,46.921,2.157,9.635,1.294,5.865,152.493,46.921
2.365,-1.437,9.149,3.161,46.921,0.431,8.718,-3.688,52.786,2.157,9.922,2.588,23.46,140.762,46.921
2.37,-1.437,9.484,4.024,46.921,0.24,9.388,-4.455,52.786,2.301,10.21,3.595,29.326,129.032,46.921
2.375,-1.341,10.011,4.886,52.786,0.048,10.394,-5.269,52.786,2.301,10.497,4.314,41.056,117.302,46.921
2.38,-1.15,10.538,5.604,52.786,-0.096,10.969,-5.7,52.786,2.013,10.785,5.177,41.056,105.572,52.786
2.3850000000000002,-0.958,10.969,5.94,52.786,-0.479,11.688,-5.988,52.786,1.869,11.073,5.464,46.921,87.977,46.921
2.39,-0.766,11.496,6.227,46.921,-0.623,12.55,-6.227,46.921,1.869,11.36,5.752,46.921,76.246,46.921
2.395,-0.671,11.927,6.371,41.056,-0.719,13.125,-6.131,35.191,1.726,11.504,6.04,41.056,58.651,41.056
2.4,-0.527,12.167,6.323,35.191,-0.766,13.508,-5.94,29.326,1.582,11.504,5.896,35.191,41.056,35.191
2.4050000000000002,-0.479,12.262,6.131,29.326,-0.958,13.795,-5.652,23.46,1.438,11.504,5.608,23.46,23.46,23.46
2.41,-0.335,12.358,5.748,17.595,-1.054,13.987,-5.317,11.73,1.438,11.504,5.321,5.865,5.865,17.595
2.415,-0.192,12.31,5.365,5.865,-1.102,13.795,-4.79,0.0,1.294,11.36,4.889,-5.865,-11.73,11.73
2.42,-0.096,12.119,4.838,-5.865,-1.006,13.604,-4.167,-11.73,1.15,11.216,4.314,-23.46,-29.326,-5.865
2.4250000000000003,-0.096,11.975,4.167,-17.595,-0.958,13.412,-3.497,-29.326,1.007,10.929,3.739,-41.056,-41.056,-17.595
2.43,-0.144,11.736,3.449,-29.326,-0.623,12.789,-2.491,-41.056,1.007,10.785,2.876,-52.786,-58.651,-35.191
2.435,-0.335,11.304,2.395,-41.056,-0.431,12.071,-1.341,-52.786,1.15,10.641,1.869,-70.381,-70.381,-46.921
2.44,-0.431,10.825,1.245,-52.786,-0.24,11.209,-0.048,-58.651,1.15,10.354,0.575,-87.977,-87.977,-52.786
2.445,-0.383,10.346,-0.048,-58.651,-0.048,10.107,1.437,-64.516,0.863,10.21,-0.719,-93.842,-99.707,-58.651
2.45,-0.144,9.867,-1.581,-64.516,0.096,9.101,3.114,-64.516,0.431,10.066,-2.301,-105.572,-105.572,-64.516
2.455,0.0,9.341,-3.209,-64.516,0.287,8.287,4.838,-70.381,0.0,9.922,-3.883,-105.572,-111.437,-70.381
2.46,0.096,8.957,-4.886,-64.516,0.527,7.712,6.562,-64.516,-0.288,9.778,-5.608,-99.707,-111.437,-70.381
2.465,0.144,8.622,-6.467,-64.516,0.575,7.377,8.143,-64.516,-0.575,9.635,-7.19,-93.842,-111.437,-70.381
2.47,0.335,8.335,-7.951,-58.651,0.575,7.185,9.532,-58.651,-1.007,9.347,-8.628,-82.111,-105.572,-64.516
2.475,0.527,8.095,-9.293,-58.651,0.479,7.089,10.73,-52.786,-1.294,8.916,-9.922,-70.381,-99.707,-58.651
2.48,0.719,7.856,-10.394,-46.921,0.479,6.946,11.736,-46.921,-1.582,8.628,-10.929,-58.651,-87.977,-52.786
2.485,0.766,7.616,-11.257,-41.056,0.479,6.898,12.454,-41.056,-1.726,8.34,-11.792,-46.921,-76.246,-46.921
2.49,0.862,7.472,-11.831,-35.191,0.431,6.85,12.741,-35.191,-1.869,8.197,-12.511,-41.056,-58.651,-41.056
2.495,0.862,7.329,-12.167,-29.326,0.431,6.754,12.933,-29.326,-1.869,8.053,-12.654,-29.326,-46.921,-35.191
2.5,0.766,7.281,-12.262,-23.46,0.527,6.706,12.885,-23.46,-1.726,7.909,-12.798,-23.46,-29.326,-23.46
2.505,0.719,7.185,-12.167,-17.595,0.383,6.754,12.646,-17.595,-1.582,7.909,-12.654,-17.595,-17.595,-23.46
2.5100000000000002,0.671,7.137,-11.879,-17.595,0.431,6.898,12.31,-11.73,-1.438,7.621,-12.511,-11.73,0.0,-17.595
2.515,0.527,6.993,-11.592,-11.73,0.479,6.898,11.975,0.0,-1.294,7.334,-12.079,-5.865,11.73,-5.865
2.52,0.479,6.85,-11.257,-0.0,0.335,7.089,11.496,5.865,-1.15,7.046,-11.792,-5.865,23.46,0.0
2.525,0.431,6.802,-10.73,5.865,0.24,7.329,10.969,11.73,-1.007,6.759,-11.36,-5.865,35.191,5.865
2.5300000000000002,0.479,6.898,-10.299,5.865,0.24,7.329,10.49,11.73,-1.007,6.902,-10.929,-5.865,46.921,11.73
2.535,0.479,7.089,-9.772,11.73,0.096,7.377,9.867,17.595,-1.007,7.334,-10.354,-11.73,52.786,11.73
2.54,0.096,7.52,-9.101,11.73,0.623,7.616,8.574,11.73,-0.144,8.053,-9.635,-11.73,58.651,11.73
2.545,0.048,7.568,-7.999,5.865,0.096,8.047,8.383,11.73,-0.719,7.621,-8.628,-11.73,64.516,5.865
2.5500000000000003,0.144,7.904,-7.808,5.865,0.383,8.143,7.808,5.865,-0.288,8.197,-8.34,-11.73,70.381,5.865
2.555,0.048,7.999,-7.185,-0.0,0.623,8.43,7.137,5.865,-0.288,8.053,-7.621,-17.595,76.246,0.0
2.56,-0.383,8.287,-6.467,5.865,0.431,8.383,6.323,5.865,0.288,8.628,-7.046,-17.595,82.111,5.865
2.565,-0.335,8.143,-5.7,-0.0,0.814,8.622,5.461,5.865,0.431,8.197,-6.183,-17.595,87.977,5.865
2.57,-0.719,8.095,-4.838,5.865,0.527,8.143,4.934,17.595,0.719,8.053,-5.608,-23.46,87.977,5.865
2.575,-0.719,7.808,-4.167,17.595,0.575,8.047,3.928,29.326,1.007,7.909,-4.889,-29.326,87.977,17.595
2.58,-0.719,7.951,-3.257,23.46,0.335,8.239,3.114,29.326,0.863,8.053,-3.883,-29.326,87.977,23.46
2.585,-0.623,8.191,-2.682,29.326,0.24,8.383,2.778,35.191,0.863,8.484,-3.307,-29.326,82.111,29.326
2.59,-0.479,8.574,-2.395,35.191,0.192,8.814,2.539,35.191,0.719,8.916,-3.02,-29.326,82.111,35.191
2.595,-0.335,8.957,-2.06,35.191,0.144,9.293,2.395,35.191,0.575,9.203,-2.588,-29.326,76.246,35.191
2.6,-0.383,9.245,-1.964,29.326,0.144,9.676,2.299,29.326,0.719,9.347,-2.588,-29.326,76.246,29.326
2.605,-0.479,9.484,-1.916,29.326,0.096,10.059,2.299,23.46,0.719,9.635,-2.588,-29.326,70.381,23.46
2.61,-0.335,9.628,-1.868,23.46,0.048,10.251,2.395,17.595,0.719,9.491,-2.588,-29.326,64.516,17.595
2.615,-0.335,9.772,-2.012,11.73,0.0,10.299,2.395,11.73,0.575,9.778,-2.588,-35.191,64.516,11.73
2.62,-0.192,9.867,-2.012,5.865,-0.144,10.299,2.395,5.865,0.575,9.922,-2.588,-41.056,58.651,11.73
2.625,-0.144,9.867,-1.964,-0.0,-0.144,10.059,2.347,0.0,0.431,9.778,-2.588,-41.056,52.786,0.0
2.63,-0.192,9.724,-2.012,-0.0,0.0,9.676,2.491,0.0,0.431,9.778,-2.588,-46.921,46.921,-5.865
2.6350000000000002,-0.287,9.532,-2.108,-5.865,0.048,9.341,2.635,-5.865,0.575,9.635,-2.732,-46.921,46.921,-5.865
2.64,-0.287,9.293,-2.251,-11.73,0.048,9.053,2.778,-5.865,0.575,9.491,-2.876,-46.921,41.056,-5.865
2.645,-0.287,9.197,-2.395,-5.865,0.0,8.862,2.922,0.0,0.575,9.635,-3.02,-46.921,35.191,-5.865
2.65,-0.096,9.101,-2.539,-5.865,-0.048,8.718,3.066,0.0,0.288,9.491,-3.02,-46.921,35.191,-5.865
2.6550000000000002,0.048,9.101,-2.635,-5.865,-0.144,8.574,3.257,-5.865,0.144,9.635,-3.164,-46.921,29.326,-5.865
2.66,0.144,9.053,-2.826,-5.865,-0.24,8.43,3.449,-5.865,-0.144,9.635,-3.451,-41.056,29.326,-5.865
2.665,0.192,8.909,-3.066,-5.865,-0.192,8.287,3.736,-5.865,-0.144,9.491,-3.595,-35.191,23.46,-5.865
2.67,0.144,8.67,-3.305,-5.865,-0.144,8.143,3.976,-5.865,-0.144,9.203,-3.883,-29.326,23.46,-11.73
2.6750000000000003,0.144,8.43,-3.545,-5.865,-0.096,7.999,4.119,-5.865,-0.144,8.772,-4.17,-23.46,23.46,-11.73
2.68,0.144,8.143,-3.64,-5.865,-0.144,7.76,4.263,-5.865,-0.144,8.484,-4.17,-17.595,23.46,-5.865
2.685,0.192,7.904,-3.736,-5.865,-0.24,7.52,4.263,0.0,-0.288,8.34,-4.314,-17.595,23.46,-5.865
2.69,0.287,7.76,-3.736,-0.0,-0.287,7.472,4.215,5.865,-0.288,8.197,-4.314,-17.595,23.46,0.0
2.695,0.287,7.76,-3.736,-0.0,-0.287,7.52,4.215,5.865,-0.288,8.197,-4.314,-11.73,23.46,0.0
2.7,0.24,7.856,-3.736,5.865,-0.287,7.664,4.263,5.865,-0.288,8.197,-4.314,-5.865,23.46,5.865
2.705,0.24,7.904,-3.784,5.865,-0.287,7.904,4.311,5.865,-0.288,8.197,-4.314,-5.865,23.46,5.865
2.71,0.192,7.951,-3.832,5.865,-0.24,7.999,4.359,5.865,-0.144,8.197,-4.458,0.0,23.46,5.865
2.715,0.192,7.999,-3.928,5.865,-0.24,7.999,4.455,5.865,-0.144,8.197,-4.458,0.0,17.595,5.865
2.72,0.192,7.951,-3.976,5.865,-0.287,8.047,4.503,11.73,-0.144,8.197,-4.602,0.0,17.595,5.865
2.725,0.24,7.904,-4.024,11.73,-0.287,8.095,4.598,11.73,-0.288,8.053,-4.602,0.0,17.595,5.865
2.73,0.24,7.904,-4.119,5.865,-0.24,8.095,4.694,11.73,-0.288,8.053,-4.745,-5.865,17.595,5.865
2.735,0.24,7.904,-4.215,5.865,-0.048,8.478,4.503,11.73,-0.288,7.909,-4.889,-5.865,17.595,5.865
2.74,0.479,9.963,-3.593,5.865,-0.671,8.957,2.874,5.865,-0.863,11.073,-4.026,-5.865,17.595,5.865
2.745,0.671,8.909,-2.922,5.865,-0.719,9.341,4.263,0.0,-0.431,8.772,-3.451,0.0,17.595,5.865
2.75,-0.144,8.67,-4.024,-0.0,0.096,9.245,4.646,-5.865,0.431,8.628,-4.602,5.865,17.595,-5.865
2.755,0.24,9.341,-4.215,-11.73,-0.431,9.915,4.79,-11.73,-0.431,9.635,-4.745,0.0,11.73,-11.73
2.7600000000000002,0.479,9.628,-4.359,-11.73,-0.24,10.059,4.934,-11.73,-0.431,9.491,-4.889,0.0,11.73,-11.73
2.765,0.192,9.532,-4.503,-11.73,-0.335,9.867,4.982,-5.865,-0.144,9.347,-5.033,0.0,11.73,-11.73
2.77,0.383,9.484,-4.503,-11.73,-0.527,9.676,4.982,-11.73,-0.288,9.491,-5.033,-5.865,5.865,-11.73
2.775,0.527,9.341,-4.503,-11.73,-0.383,9.388,5.173,-11.73,-0.575,9.347,-5.177,-11.73,5.865,-11.73
2.7800000000000002,0.431,9.149,-4.742,-11.73,-0.383,9.053,5.413,-11.73,-0.431,9.347,-5.321,-11.73,5.865,-11.73
2.785,0.383,8.957,-4.982,-11.73,-0.431,8.814,5.556,-5.865,-0.431,9.203,-5.608,-17.595,5.865,-11.73
2.79,0.479,8.862,-5.077,-11.73,-0.479,8.526,5.652,-5.865,-0.575,9.203,-5.608,-17.595,5.865,-11.73
2.795,0.527,8.814,-5.173,-5.865,-0.383,8.335,5.748,-5.865,-0.575,9.203,-5.752,-17.595,5.865,-11.73
2.8000000000000003,0.575,8.862,-5.269,-5.865,-0.431,8.287,5.844,-5.865,-0.719,9.491,-5.752,-11.73,5.865,-5.865
2.805,0.623,8.862,-5.365,-5.865,-0.479,8.287,5.988,-5.865,-0.719,9.491,-5.896,-5.865,5.865,-5.865
2.81,0.671,8.766,-5.509,-5.865,-0.527,8.335,6.131,-5.865,-0.719,9.347,-6.04,0.0,11.73,-5.865
2.815,0.671,8.67,-5.604,-5.865,-0.575,8.383,6.131,-5.865,-0.863,9.059,-6.183,5.865,11.73,-5.865
2.82,0.719,8.574,-5.652,-5.865,-0.575,8.287,6.131,-5.865,-0.719,8.916,-6.183,5.865,11.73,-5.865
2.825,0.719,8.478,-5.604,-5.865,-0.575,8.143,6.083,0.0,-0.863,8.772,-6.183,5.865,17.595,-5.865
2.83,0.766,8.383,-5.509,-5.865,-0.623,8.143,5.94,0.0,-0.863,8.772,-6.04,17.595,17.595,-5.865
2.835,0.766,8.287,-5.413,-0.0,-0.671,8.095,5.844,0.0,-0.863,8.628,-6.04,17.595,17.595,0.0
2.84,0.814,8.239,-5.317,-0.0,-0.671,8.143,5.796,0.0,-1.007,8.628,-5.896,23.46,17.595,0.0
2.845,0.814,8.287,-5.221,-0.0,-0.671,8.191,5.7,0.0,-1.007,8.484,-5.752,23.46,23.46,0.0
2.85,0.814,8.287,-5.173,-5.865,-0.671,8.239,5.604,0.0,-0.863,8.484,-5.752,23.46,23.46,0.0
2.855,0.766,8.287,-5.077,-5.865,-0.671,8.287,5.461,-5.865,-0.863,8.484,-5.752,29.326,23.46,-5.865
2.86,0.719,8.239,-4.934,-5.865,-0.623,8.383,5.317,0.0,-0.719,8.34,-5.464,29.326,23.46,-5.865
2.865,0.671,8.239,-4.79,-5.865,-0.671,8.383,5.125,-5.865,-0.719,8.34,-5.321,29.326,23.46,-5.865
2.87,0.671,8.191,-4.646,-0.0,-0.671,8.383,5.03,0.0,-0.719,8.197,-5.177,29.326,23.46,-5.865
2.875,0.623,8.191,-4.503,-0.0,-0.671,8.43,4.886,0.0,-0.575,8.197,-5.033,23.46,23.46,0.0
2.88,0.671,8.191,-4.359,-0.0,-0.719,8.478,4.694,0.0,-0.719,8.197,-5.033,23.46,23.46,0.0
2.8850000000000002,0.671,8.239,-4.215,-0.0,-0.719,8.526,4.646,5.865,-0.719,8.197,-4.889,17.595,23.46,0.0
2.89,0.623,8.287,-4.167,-0.0,-0.671,8.622,4.598,5.865,-0.575,8.34,-4.745,5.865,23.46,0.0
2.895,0.527,8.383,-4.119,-0.0,-0.623,8.67,4.646,5.865,-0.431,8.34,-4.745,5.865,23.46,0.0
2.9,0.479,8.43,-4.167,-0.0,-0.575,8.622,4.646,5.865,-0.431,8.484,-4.745,5.865,17.595,0.0
2.9050000000000002,0.575,8.43,-4.167,-0.0,-0.623,8.574,4.646,5.865,-0.575,8.484,-4.745,5.865,17.595,0.0
2.91,0.575,8.43,-4.167,-0.0,-0.575,8.43,4.694,0.0,-0.575,8.484,-4.745,5.865,17.595,0.0
2.915,0.623,8.335,-4.167,-0.0,-0.575,8.287,4.694,0.0,-0.719,8.484,-4.745,5.865,17.595,0.0
2.92,0.623,8.239,-4.167,-0.0,-0.527,8.191,4.694,0.0,-0.719,8.484,-4.745,0.0,11.73,0.0
2.9250000000000003,0.527,8.191,-4.215,-0.0,-0.527,8.143,4.694,0.0,-0.575,8.34,-4.745,0.0,11.73,0.0
2.93,0.527,8.143,-4.215,-0.0,-0.527,8.191,4.694,0.0,-0.431,8.34,-4.745,0.0,11.73,-5.865
2.935,0.527,8.143,-4.215,-0.0,-0.575,8.143,4.742,0.0,-0.575,8.34,-4.889,0.0,11.73,-5.865
2.94,0.575,8.143,-4.215,-0.0,-0.575,8.143,4.742,0.0,-0.575,8.34,-4.889,5.865,11.73,0.0
2.945,0.575,8.191,-4.263,-0.0,-0.575,8.095,4.79,0.0,-0.575,8.34,-4.889,0.0,11.73,0.0
2.95,0.527,8.191,-4.311,-0.0,-0.527,8.095,4.838,0.0,-0.575,8.484,-4.889,0.0,11.73,0.0
2.955,0.527,8.191,-4.407,-0.0,-0.575,8.095,4.886,0.0,-0.575,8.484,-5.033,0.0,11.73,0.0
2.96,0.623,8.095,-4.407,-0.0,-0.575,7.999,4.886,0.0,-0.719,8.34,-5.033,5.865,11.73,0.0
2.965,0.671,7.951,-4.407,-0.0,-0.623,7.856,4.838,0.0,-0.719,8.197,-5.033,5.865,11.73,0.0
2.97,0.671,7.856,-4.359,-0.0,-0.575,7.76,4.838,0.0,-0.719,8.053,-4.889,5.865,11.73,0.0
2.975,0.623,7.76,-4.359,-0.0,-0.575,7.808,4.838,5.865,-0.719,7.909,-4.889,5.865,11.73,0.0
2.98,0.527,7.76,-4.311,-0.0,-0.623,7.856,4.79,5.865,-0.575,7.909,-4.889,5.865,11.73,0.0
2.985,0.575,7.808,-4.311,-0.0,-0.623,7.856,4.79,5.865,-0.575,7.909,-4.889,5.865,11.73,0.0
2.99,0.575,7.856,-4.311,-0.0,-0.575,7.904,4.79,5.865,-0.575,8.053,-4.889,5.865,11.73,5.865
2.995,0.575,7.904,-4.311,5.865,-0.623,8.047,4.838,5.865,-0.575,8.053,-4.889,5.865,11.73,5.865
3.0,0.623,7.951,-4.359,5.865,-0.623,8.143,4.838,5.865,-0.575,8.053,-5.033,5.865,11.73,5.865
3.005,0.575,8.047,-4.359,5.865,-0.575,8.191,4.838,5.865,-0.575,8.197,-4.889,0.0,5.865,5.865
3.0100000000000002,0.575,8.143,-4.359,5.865,-0.527,8.191,4.886,5.865,-0.575,8.34,-4.889,0.0,5.865,5.865
3.015,0.527,8.287,-4.407,5.865,-0.479,8.383,4.934,11.73,-0.575,8.484,-5.033,0.0,5.865,5.865
3.02,0.527,8.383,-4.455,5.865,-0.527,8.478,4.982,11.73,-0.575,8.628,-5.033,0.0,5.865,5.865
3.025,0.527,8.526,-4.503,5.865,-0.479,8.574,5.03,11.73,-0.575,8.772,-5.033,0.0,5.865,5.865
3.0300000000000002,0.575,8.622,-4.503,5.865,-0.527,8.718,5.077,11.73,-0.719,8.772,-5.033,5.865,5.865,5.865
3.035,0.623,8.766,-4.551,11.73,-0.479,8.862,5.077,11.73,-0.719,9.059,-5.177,0.0,5.865,5.865
3.04,0.575,8.909,-4.598,5.865,-0.479,9.005,5.077,11.73,-0.575,9.203,-5.177,5.865,5.865,5.865
3.045,0.527,9.053,-4.598,5.865,-0.527,9.149,5.077,11.73,-0.575,9.347,-5.177,5.865,11.73,11.73
3.0500000000000003,0.575,9.197,-4.598,5.865,-0.527,9.245,5.077,11.73,-0.575,9.491,-5.177,5.865,11.73,5.865
3.055,0.623,9.293,-4.598,11.73,-0.527,9.388,5.125,11.73,-0.575,9.491,-5.177,5.865,11.73,5.865
3.06,0.623,9.388,-4.646,5.865,-0.575,9.58,5.173,11.73,-0.719,9.635,-5.177,5.865,11.73,5.865
3.065,0.671,9.58,-4.694,5.865,-0.575,9.772,5.173,11.73,-0.719,9.778,-5.321,5.865,11.73,5.865
3.0700000000000003,0.671,9.82,-4.694,5.865,-0.575,10.059,5.221,11.73,-0.719,10.066,-5.321,5.865,11.73,5.865
3.075,0.527,10.107,-4.982,11.73,-0.479,10.442,5.269,11.73,-0.288,10.21,-5.464,5.865,11.73,11.73
3.08,0.623,10.346,-4.742,11.73,-0.671,10.778,5.125,17.595,-0.719,10.497,-5.177,5.865,11.73,11.73
3.085,0.766,10.778,-4.694,11.73,-0.527,11.209,5.556,17.595,-0.719,10.929,-5.177,0.0,11.73,11.73
3.09,0.623,11.065,-5.125,11.73,-0.431,11.4,5.652,17.595,-0.719,11.216,-5.752,0.0,11.73,11.73
3.095,0.575,11.448,-5.125,17.595,-0.575,11.879,5.461,17.595,-0.575,11.648,-5.752,0.0,11.73,11.73
3.1,0.719,12.119,-4.934,17.595,-0.719,12.55,5.221,17.595,-0.719,12.511,-5.464,0.0,11.73,11.73
3.105,0.766,12.789,-4.742,11.73,-0.814,13.029,5.077,11.73,-0.719,13.086,-5.321,0.0,11.73,11.73
3.11,0.766,13.268,-4.646,11.73,-0.814,13.412,5.03,5.865,-0.719,13.661,-5.177,5.865,11.73,5.865
3.115,0.766,13.604,-4.598,-0.0,-0.766,13.652,5.03,-5.865,-0.575,13.949,-5.177,5.865,11.73,0.0
3.12,0.719,13.699,-4.598,-11.73,-0.814,13.747,4.982,-11.73,-0.575,13.949,-5.177,5.865,5.865,-11.73
3.125,0.766,13.652,-4.551,-17.595,-0.862,13.604,4.934,-23.46,-0.719,13.805,-5.177,5.865,5.865,-17.595
3.13,0.862,13.46,-4.503,-23.46,-0.958,13.364,4.838,-29.326,-0.719,13.661,-5.033,5.865,5.865,-23.46
3.1350000000000002,0.91,13.173,-4.359,-29.326,-1.006,13.029,4.694,-35.191,-0.863,13.373,-4.889,5.865,5.865,-35.191
3.14,0.958,12.885,-4.263,-35.191,-0.958,12.646,4.551,-41.056,-0.863,13.086,-4.745,5.865,0.0,-41.056
3.145,0.91,12.502,-4.072,-41.056,-1.006,12.262,4.407,-46.921,-0.863,12.654,-4.602,5.865,0.0,-46.921
3.15,0.91,12.119,-3.928,-46.921,-0.958,11.783,4.215,-52.786,-0.863,12.367,-4.458,5.865,0.0,-52.786
3.1550000000000002,0.91,11.783,-3.736,-52.786,-0.958,11.304,4.072,-58.651,-0.863,12.079,-4.314,5.865,0.0,-58.651
3.16,0.862,11.352,-3.64,-58.651,-1.006,10.825,3.976,-58.651,-0.863,11.648,-4.17,5.865,-5.865,-58.651
3.165,0.91,10.969,-3.545,-58.651,-1.006,10.49,3.928,-64.516,-0.863,11.216,-4.026,17.595,-5.865,-64.516
3.17,0.91,10.586,-3.449,-64.516,-1.006,10.155,3.88,-64.516,-0.863,10.929,-4.026,17.595,-5.865,-64.516
3.1750000000000003,0.862,10.203,-3.449,-64.516,-1.006,9.772,3.928,-64.516,-0.863,10.497,-4.026,23.46,-11.73,-70.381
3.18,0.91,9.867,-3.449,-64.516,-1.006,9.436,3.976,-70.381,-0.863,10.066,-4.026,23.46,-11.73,-70.381
3.185,0.91,9.436,-3.545,-70.381,-0.958,9.053,4.072,-70.381,-0.863,9.778,-4.17,29.326,-11.73,-70.381
3.19,0.91,9.053,-3.593,-70.381,-0.91,8.718,4.167,-70.381,-0.863,9.347,-4.17,29.326,-17.595,-70.381
3.1950000000000003,0.862,8.766,-3.736,-70.381,-0.862,8.478,4.311,-70.381,-0.863,9.059,-4.314,29.326,-17.595,-70.381
3.2,0.814,8.478,-3.832,-70.381,-0.862,8.191,4.407,-70.381,-0.863,8.628,-4.458,29.326,-17.595,-70.381
3.205,0.862,8.143,-3.976,-70.381,-0.862,7.856,4.551,-70.381,-0.863,8.34,-4.602,29.326,-17.595,-70.381
3.21,0.862,7.808,-4.072,-70.381,-0.862,7.568,4.646,-70.381,-0.863,7.909,-4.602,35.191,-17.595,-70.381
3.215,0.862,7.425,-4.167,-70.381,-0.814,7.233,4.742,-70.381,-0.863,7.478,-4.745,35.191,-17.595,-70.381
3.22,0.814,6.993,-4.311,-70.381,-0.814,6.706,4.886,-70.381,-0.863,7.046,-4.889,35.191,-17.595,-70.381
3.225,0.814,6.467,-4.407,-64.516,-0.814,6.227,5.03,-70.381,-0.863,6.471,-5.033,29.326,-17.595,-70.381
3.23,0.814,5.988,-4.551,-64.516,-0.766,5.7,5.173,-64.516,-0.863,6.04,-5.177,29.326,-17.595,-70.381
3.235,0.766,5.461,-4.694,-64.516,-0.766,5.221,5.317,-64.516,-0.863,5.464,-5.321,29.326,-17.595,-64.516
3.24,0.814,4.934,-4.838,-58.651,-0.862,4.838,5.461,-58.651,-1.007,5.033,-5.464,29.326,-17.595,-64.516
3.245,0.91,4.551,-4.982,-58.651,-0.814,4.503,5.652,-52.786,-1.007,4.602,-5.608,23.46,-17.595,-58.651
3.25,0.958,4.215,-5.125,-52.786,-0.862,4.119,5.796,-46.921,-1.15,4.17,-5.752,23.46,-17.595,-52.786
3.255,1.006,3.928,-5.269,-46.921,-0.862,3.784,5.94,-41.056,-1.294,4.026,-5.896,17.595,-17.595,-46.921
3.2600000000000002,1.006,3.64,-5.365,-41.056,-0.91,3.545,6.035,-35.191,-1.294,3.739,-6.04,17.595,-11.73,-46.921
3.265,1.054,3.401,-5.509,-35.191,-0.91,3.353,6.131,-29.326,-1.294,3.451,-6.183,17.595,-11.73,-41.056
3.27,1.054,3.209,-5.556,-29.326,-0.958,3.161,6.179,-23.46,-1.294,3.164,-6.183,5.865,-5.865,-35.191
3.275,1.102,3.018,-5.604,-23.46,-1.006,3.018,6.227,-17.595,-1.294,3.02,-6.183,5.865,-5.865,-23.46
3.2800000000000002,1.15,2.874,-5.604,-17.595,-1.102,2.778,6.179,-11.73,-1.438,2.876,-6.183,5.865,-5.865,-17.595
3.285,1.245,2.587,-5.604,-11.73,-1.198,2.395,6.131,-5.865,-1.438,2.588,-6.183,5.865,0.0,-11.73
3.29,1.293,2.203,-5.509,-5.865,-1.102,1.964,6.035,0.0,-1.582,2.157,-6.183,5.865,0.0,-5.865
3.295,1.245,1.82,-5.461,-0.0,-1.198,1.485,5.988,5.865,-1.582,1.869,-6.04,0.0,0.0,0.0
3.3000000000000003,1.293,1.341,-5.365,5.865,-1.15,1.102,5.892,11.73,-1.582,1.294,-6.04,0.0,5.865,5.865
3.305,1.245,1.006,-5.317,11.73,-1.102,0.814,5.844,23.46,-1.582,1.007,-6.04,0.0,5.865,11.73
3.31,1.15,0.766,-5.221,23.46,-1.054,0.575,5.748,29.326,-1.438,0.863,-5.896,-5.865,11.73,23.46
3.315,1.102,0.719,-5.173,35.191,-0.958,0.623,5.748,41.056,-1.438,0.863,-5.752,-5.865,11.73,29.326
3.3200000000000003,1.054,0.862,-5.173,41.056,-0.814,0.91,5.844,52.786,-1.294,1.007,-5.752,-5.865,17.595,41.056
3.325,0.91,1.245,-5.269,52.786,-0.671,1.437,5.844,64.516,-1.294,1.438,-5.896,-5.865,17.595,52.786
3.33,0.862,1.677,-5.269,64.516,-0.671,2.06,5.844,70.381,-1.15,1.726,-5.896,-5.865,23.46,64.516
3.335,0.814,2.108,-5.269,70.381,-0.671,2.587,5.844,76.246,-1.15,2.157,-5.896,-5.865,23.46,70.381
3.34,0.814,2.491,-5.221,76.246,-0.719,3.018,5.748,82.111,-1.007,2.445,-5.896,-5.865,23.46,76.246
3.345,0.862,2.778,-5.173,82.111,-0.766,3.353,5.7,82.111,-1.007,2.732,-5.752,-11.73,29.326,82.111
3.35,0.766,3.114,-5.125,82.111,-0.623,3.784,5.652,87.977,-0.863,3.02,-5.752,-11.73,29.326,82.111
3.355,0.575,3.497,-5.125,87.977,-0.479,4.215,5.604,87.977,-0.719,3.307,-5.752,-17.595,29.326,82.111
3.36,0.431,3.976,-5.03,87.977,-0.383,4.646,5.461,93.842,-0.575,3.883,-5.608,-23.46,35.191,87.977
3.365,0.383,4.455,-4.886,93.842,-0.335,4.934,5.365,93.842,-0.575,4.458,-5.464,-23.46,35.191,87.977
3.37,0.335,4.934,-4.838,93.842,-0.335,5.221,5.317,99.707,-0.431,5.033,-5.464,-29.326,35.191,93.842
3.375,0.335,5.317,-4.79,93.842,-0.24,5.556,5.365,99.707,-0.431,5.464,-5.464,-29.326,35.191,93.842
3.38,0.287,5.748,-4.838,93.842,-0.096,5.94,5.365,99.707,-0.288,6.04,-5.464,-29.326,35.191,93.842
3.3850000000000002,0.144,6.227,-4.838,93.842,0.0,6.514,5.365,99.707,-0.288,6.471,-5.464,-29.326,35.191,93.842
3.39,0.0,6.754,-4.838,93.842,0.048,7.137,5.269,99.707,0.0,7.046,-5.464,-29.326,35.191,93.842
3.395,0.527,17.963,-3.784,99.707,-11.927,24.333,-6.467,87.977,-0.431,27.034,-4.17,-29.326,35.191,93.842
3.4,13.364,24.237,7.137,70.381,-5.604,24.429,-1.198,-46.921,-13.086,35.087,6.327,-23.46,35.191,64.516
3.4050000000000002,-0.048,21.172,0.623,-99.707,1.868,23.854,0.479,-181.818,2.732,19.844,0.144,5.865,23.46,-105.572
3.41,-4.934,18.585,-1.006,-187.683,-0.144,22.178,1.245,-170.088,7.765,13.23,-1.726,-23.46,0.0,-187.683
3.415,-0.144,18.394,-0.479,-158.358,-1.964,12.885,-2.012,-134.897,0.288,15.387,-1.007,-76.246,-35.191,-146.628
3.42,3.305,13.364,2.539,-129.032,-2.347,8.526,-1.245,-129.032,-4.026,16.106,2.013,-111.437,-52.786,-111.437
3.4250000000000003,2.06,10.394,1.389,-123.167,-0.383,6.227,0.814,-93.842,-2.013,13.373,0.863,-99.707,-52.786,-99.707
3.43,0.623,8.383,-1.102,-82.111,-0.431,7.041,3.593,-46.921,-0.431,11.073,-1.726,-87.977,-52.786,-70.381
3.435,0.766,8.766,-3.401,-35.191,-0.623,8.143,4.838,11.73,-0.575,10.497,-4.026,-64.516,-46.921,-23.46
3.44,1.389,10.107,-4.503,23.46,-1.293,9.724,5.94,58.651,-1.726,11.504,-5.033,-52.786,-46.921,23.46
3.4450000000000003,2.395,11.448,-5.652,64.516,-2.108,11.113,7.377,82.111,-2.876,12.511,-6.183,-41.056,-35.191,64.516
3.45,3.066,12.262,-7.041,87.977,-2.108,11.448,8.143,93.842,-3.595,13.086,-7.621,-29.326,-29.326,87.977
3.455,2.97,12.071,-7.616,87.977,-1.868,11.113,8.143,87.977,-3.595,12.654,-8.053,-17.595,-17.595,87.977
3.46,2.491,11.352,-7.52,82.111,-1.724,10.442,8.047,76.246,-2.876,11.935,-7.909,-5.865,-5.865,82.111
3.465,1.964,10.442,-7.568,70.381,-1.437,9.484,8.143,64.516,-2.157,10.785,-8.197,0.0,0.0,70.381
3.47,1.485,9.341,-7.664,58.651,-1.437,8.574,8.287,52.786,-1.582,9.635,-8.34,5.865,0.0,58.651
3.475,1.389,8.43,-7.808,52.786,-1.245,7.904,8.287,46.921,-1.438,8.628,-8.34,5.865,5.865,52.786
3.48,1.341,7.76,-7.808,41.056,-1.15,7.52,8.43,41.056,-1.438,8.053,-8.484,5.865,5.865,41.056
3.485,1.389,7.472,-7.904,35.191,-1.629,7.281,8.143,35.191,-1.582,7.621,-8.484,5.865,5.865,35.191
3.49,1.533,7.472,-7.425,29.326,-0.862,7.808,7.999,23.46,-1.869,7.765,-7.909,5.865,5.865,29.326
3.495,1.245,7.712,-7.52,23.46,-1.006,8.287,7.904,11.73,-1.438,7.765,-8.197,5.865,11.73,17.595
3.5,1.102,7.951,-7.185,11.73,-0.814,8.239,6.85,5.865,-1.15,7.909,-7.765,5.865,11.73,11.73
3.505,1.054,8.335,-6.083,5.865,-1.006,8.383,5.796,5.865,-1.007,8.628,-6.615,5.865,17.595,5.865
3.5100000000000002,0.862,8.67,-5.173,-0.0,-0.91,8.67,5.125,-5.865,-0.863,9.059,-5.752,5.865,17.595,0.0
3.515,0.766,8.909,-4.551,-5.865,-0.431,9.005,5.03,-11.73,-0.719,9.203,-5.177,17.595,17.595,-5.865
3.52,0.383,9.245,-4.503,-11.73,-0.431,9.149,4.694,-11.73,-0.288,9.635,-5.033,23.46,17.595,-11.73
3.525,0.383,9.293,-4.167,-11.73,-0.335,9.341,4.407,-5.865,-0.288,9.491,-4.745,23.46,11.73,-11.73
3.5300000000000002,0.431,9.341,-3.88,-5.865,-0.575,9.628,4.311,-5.865,-0.288,9.491,-4.458,23.46,11.73,-5.865
3.535,0.623,9.341,-3.832,-5.865,-0.479,9.772,4.263,0.0,-0.575,9.347,-4.458,23.46,11.73,-5.865
3.54,0.575,9.436,-3.784,-5.865,-0.623,9.724,4.119,0.0,-0.575,9.347,-4.314,23.46,11.73,-5.865
3.545,0.719,9.388,-3.593,-0.0,-0.671,9.772,4.072,5.865,-0.575,9.347,-4.17,17.595,11.73,0.0
3.5500000000000003,0.671,9.388,-3.64,-0.0,-0.766,9.772,4.215,5.865,-0.575,9.347,-4.17,5.865,11.73,0.0
3.555,0.766,9.388,-3.832,5.865,-0.862,9.772,4.407,5.865,-0.575,9.347,-4.458,5.865,11.73,5.865
3.56,0.862,9.388,-3.976,5.865,-0.958,9.676,4.646,5.865,-0.863,9.347,-4.602,5.865,11.73,5.865
3.565,1.006,9.341,-4.263,5.865,-0.958,9.532,4.934,5.865,-1.007,9.203,-4.889,0.0,5.865,5.865
3.5700000000000003,1.054,9.197,-4.551,5.865,-0.958,9.293,5.173,5.865,-1.007,9.203,-5.177,0.0,5.865,5.865
3.575,1.006,9.053,-4.694,5.865,-0.91,9.149,5.221,5.865,-1.007,9.059,-5.321,-5.865,5.865,5.865
3.58,0.958,8.957,-4.79,-0.0,-0.862,8.909,5.317,5.865,-1.007,9.059,-5.321,-5.865,5.865,0.0
3.585,0.958,8.909,-4.886,5.865,-0.814,8.718,5.461,5.865,-1.007,9.059,-5.464,-11.73,5.865,5.865
3.59,0.91,8.814,-4.982,5.865,-0.766,8.526,5.556,5.865,-0.863,9.059,-5.608,-11.73,11.73,5.865
3.595,0.91,8.718,-5.077,5.865,-0.719,8.383,5.652,5.865,-1.007,9.059,-5.608,-5.865,11.73,5.865
3.6,0.91,8.622,-5.125,5.865,-0.671,8.287,5.652,5.865,-1.007,9.059,-5.752,-5.865,11.73,5.865
3.605,0.862,8.574,-5.125,5.865,-0.623,8.335,5.652,5.865,-1.007,8.916,-5.752,-5.865,11.73,5.865
3.61,0.814,8.622,-5.077,5.865,-0.623,8.478,5.509,11.73,-0.863,9.059,-5.608,0.0,17.595,5.865
3.615,0.719,8.718,-4.982,11.73,-0.479,8.622,5.317,11.73,-0.719,9.059,-5.608,5.865,17.595,11.73
3.62,0.671,8.814,-4.79,11.73,-0.527,8.862,5.221,11.73,-0.719,9.059,-5.321,5.865,17.595,11.73
3.625,0.719,8.909,-4.646,11.73,-0.527,8.862,4.982,11.73,-0.719,9.203,-5.177,5.865,17.595,11.73
3.63,0.671,8.909,-4.455,11.73,-0.527,8.957,4.838,11.73,-0.719,9.059,-5.033,5.865,23.46,11.73
3.6350000000000002,0.671,8.814,-4.311,11.73,-0.431,8.862,4.694,11.73,-0.719,8.916,-4.889,5.865,23.46,11.73
3.64,0.623,8.718,-4.167,11.73,-0.431,8.766,4.551,11.73,-0.719,8.916,-4.745,5.865,23.46,11.73
3.645,0.671,8.67,-4.024,11.73,-0.431,8.814,4.407,11.73,-0.719,8.772,-4.602,5.865,23.46,5.865
3.65,0.671,8.766,-3.88,5.865,-0.431,8.957,4.072,5.865,-0.719,8.916,-4.458,5.865,29.326,5.865
3.6550000000000002,0.623,8.862,-3.449,5.865,-0.575,9.005,3.593,5.865,-0.719,9.059,-4.026,5.865,29.326,5.865
3.66,0.719,9.101,-2.778,5.865,-0.766,8.383,1.964,5.865,-0.719,9.491,-3.307,5.865,29.326,5.865
3.665,0.814,9.293,-1.341,-0.0,-0.814,8.67,1.245,-5.865,-0.719,10.066,-1.869,5.865,29.326,0.0
3.67,0.431,9.484,-0.719,-5.865,-0.575,9.053,0.814,-5.865,0.0,10.21,-1.15,17.595,29.326,-5.865
3.6750000000000003,0.048,9.628,-0.335,-11.73,-0.527,9.388,0.431,-11.73,0.431,10.21,-0.863,29.326,23.46,-11.73
3.68,0.0,9.772,0.096,-11.73,-0.623,9.724,0.0,-5.865,0.575,10.21,-0.431,35.191,17.595,-11.73
3.685,0.096,10.011,0.479,-11.73,-0.719,10.011,-0.479,-5.865,0.431,10.354,-0.0,35.191,11.73,-11.73
3.69,0.287,10.203,0.958,-5.865,-0.91,10.203,-0.91,-5.865,0.288,10.497,0.431,41.056,5.865,-11.73
3.6950000000000003,0.383,10.346,1.341,-5.865,-1.006,10.394,-1.293,-5.865,0.144,10.497,0.863,41.056,-5.865,-5.865
3.7,0.431,10.442,1.724,-5.865,-1.198,10.634,-1.677,-11.73,0.144,10.641,1.294,41.056,-11.73,-11.73
3.705,0.431,10.586,2.108,-11.73,-1.245,10.873,-1.964,-11.73,0.288,10.641,1.582,41.056,-17.595,-11.73
3.71,0.383,10.634,2.347,-17.595,-1.245,10.969,-2.108,-23.46,0.431,10.641,1.869,41.056,-29.326,-17.595
3.715,0.287,10.634,2.443,-23.46,-1.245,11.017,-2.203,-23.46,0.575,10.497,1.869,41.056,-35.191,-23.46
3.72,0.192,10.538,2.443,-23.46,-1.341,10.969,-2.156,-29.326,0.719,10.354,2.013,35.191,-52.786,-29.326
3.725,0.24,10.394,2.347,-29.326,-1.341,10.778,-2.012,-35.191,0.719,10.21,1.869,29.326,-64.516,-35.191
3.73,0.24,10.203,2.156,-35.191,-1.293,10.73,-1.629,-41.056,0.719,9.922,1.582,29.326,-76.246,-41.056
3.735,0.24,10.059,1.724,-41.056,-1.245,10.873,-1.15,-46.921,0.719,9.635,1.15,23.46,-93.842,-46.921
3.74,0.24,9.915,1.245,-46.921,-1.198,10.778,-0.527,-52.786,0.575,9.491,0.719,5.865,-105.572,-46.921
3.745,0.192,9.724,0.575,-52.786,-0.958,10.442,0.24,-58.651,0.719,9.203,-0.0,5.865,-117.302,-52.786
3.75,0.096,9.436,-0.287,-58.651,-0.719,9.915,1.198,-64.516,0.719,9.059,-1.007,-5.865,-129.032,-58.651
3.755,0.0,9.101,-1.245,-58.651,-0.479,9.245,2.251,-70.381,0.575,8.772,-1.869,-17.595,-140.762,-64.516
3.7600000000000002,0.048,8.67,-2.251,-64.516,-0.287,8.287,3.449,-76.246,0.431,8.628,-3.02,-23.46,-152.493,-70.381
3.765,0.048,8.047,-3.497,-76.246,0.0,7.233,4.838,-76.246,0.288,8.197,-4.314,-29.326,-158.358,-76.246
3.77,-0.096,7.185,-4.886,-76.246,0.431,6.131,6.371,-82.111,0.144,7.621,-5.608,-23.46,-164.223,-82.111
3.775,-0.144,6.227,-6.371,-76.246,0.575,5.077,7.951,-76.246,0.0,6.759,-7.19,-23.46,-164.223,-76.246
3.7800000000000002,-0.096,5.365,-7.904,-70.381,0.623,4.215,9.58,-64.516,-0.288,6.04,-8.628,-17.595,-164.223,-70.381
3.785,0.144,4.742,-9.436,-58.651,0.671,3.736,11.161,-52.786,-0.719,5.464,-10.21,-11.73,-158.358,-64.516
3.79,0.383,4.407,-10.969,-46.921,0.719,3.449,12.741,-46.921,-1.15,5.177,-11.648,-5.865,-152.493,-52.786
3.795,0.575,4.215,-12.454,-41.056,0.719,3.353,14.178,-35.191,-1.582,5.033,-13.23,0.0,-140.762,-41.056
3.8000000000000003,0.719,4.215,-13.891,-29.326,0.719,3.449,15.568,-23.46,-1.726,5.033,-14.524,5.865,-129.032,-29.326
3.805,0.766,4.263,-15.232,-23.46,0.814,3.736,16.861,-17.595,-1.869,5.177,-15.818,23.46,-111.437,-23.46
3.81,0.766,4.455,-16.43,-11.73,0.91,4.215,17.915,-5.865,-2.013,5.177,-16.968,29.326,-93.842,-11.73
3.815,0.766,4.742,-17.388,-5.865,0.958,4.598,18.825,5.865,-2.013,5.464,-17.975,41.056,-76.246,-5.865
3.8200000000000003,0.814,4.934,-18.202,5.865,0.814,4.79,19.4,17.595,-2.157,5.464,-18.838,46.921,-58.651,5.865
3.825,1.054,4.982,-18.729,17.595,0.719,4.838,19.687,23.46,-2.445,5.464,-19.413,52.786,-35.191,17.595
3.83,1.245,4.886,-18.968,23.46,0.671,4.886,19.687,29.326,-2.732,5.321,-19.557,52.786,-11.73,23.46
3.835,1.341,4.79,-18.873,29.326,0.719,4.982,19.304,35.191,-2.876,5.033,-19.557,52.786,11.73,29.326
3.84,1.15,4.598,-18.442,35.191,0.91,4.934,18.585,41.056,-2.445,4.602,-19.125,52.786,35.191,29.326
3.845,0.719,4.455,-17.627,41.056,1.006,4.407,17.771,46.921,-2.013,4.458,-18.263,52.786,58.651,35.191
3.85,0.671,4.263,-16.43,46.921,1.581,4.838,16.238,58.651,-1.869,4.17,-16.825,52.786,76.246,46.921
3.855,-0.048,5.03,-15.52,52.786,1.198,5.365,15.28,64.516,-1.15,5.464,-16.249,46.921,93.842,52.786
3.86,0.527,5.269,-14.37,64.516,0.958,6.227,14.131,70.381,-1.582,5.464,-14.955,46.921,117.302,64.516
3.865,0.527,6.035,-13.268,64.516,0.862,6.85,12.837,70.381,-1.438,6.183,-13.949,46.921,129.032,64.516
3.87,0.383,6.61,-12.167,64.516,0.958,7.185,12.023,64.516,-1.294,6.759,-12.942,46.921,146.628,64.516
3.875,0.383,6.85,-11.161,58.651,1.198,7.808,11.161,58.651,-1.15,6.759,-11.935,46.921,164.223,58.651
3.88,0.048,7.089,-10.346,58.651,0.814,8.047,9.388,58.651,-0.575,6.759,-10.785,41.056,175.953,52.786
3.8850000000000002,-0.335,6.993,-8.67,52.786,0.766,7.472,7.137,58.651,0.288,6.615,-9.347,35.191,187.683,52.786
3.89,-0.719,6.802,-6.371,58.651,0.671,6.706,4.551,58.651,0.863,6.759,-7.046,29.326,193.548,52.786
3.895,-1.006,6.61,-3.832,58.651,0.527,5.796,2.203,64.516,1.438,6.902,-4.602,23.46,193.548,58.651
3.9,-1.15,6.658,-1.485,58.651,0.479,5.556,-0.096,70.381,1.726,7.478,-2.157,23.46,193.548,58.651
3.9050000000000002,-1.293,6.946,0.766,64.516,0.192,5.844,-2.012,76.246,2.157,8.053,0.144,29.326,181.818,64.516
3.91,-1.341,7.425,2.539,76.246,0.144,6.419,-3.401,82.111,2.301,8.628,2.013,46.921,175.953,70.381
3.915,-1.293,8.047,3.784,82.111,-0.096,7.377,-4.455,93.842,2.301,9.203,3.164,64.516,158.358,82.111
3.92,-1.054,8.862,4.742,87.977,-0.431,8.574,-5.269,93.842,2.157,9.922,4.314,76.246,146.628,87.977
3.9250000000000003,-0.719,9.772,5.509,93.842,-0.719,9.963,-5.844,99.707,1.726,10.497,5.033,93.842,129.032,93.842
3.93,-0.431,10.586,5.988,93.842,-1.054,11.304,-6.131,93.842,1.582,10.929,5.464,99.707,111.437,93.842
3.935,-0.24,11.161,6.227,93.842,-1.198,12.262,-6.179,87.977,1.438,11.073,5.752,111.437,99.707,87.977
3.94,-0.096,11.544,6.275,87.977,-1.389,12.837,-5.988,82.111,1.294,11.073,5.752,105.572,82.111,82.111
3.9450000000000003,0.048,11.736,6.035,76.246,-1.485,13.173,-5.556,70.381,1.15,11.073,5.464,99.707,58.651,76.246
3.95,0.24,11.783,5.652,64.516,-1.629,13.316,-5.221,58.651,0.863,10.929,5.177,87.977,41.056,64.516
3.955,0.431,11.688,5.317,58.651,-1.82,13.173,-4.79,46.921,0.575,10.641,4.745,76.246,23.46,52.786
3.96,0.383,11.496,4.79,46.921,-1.533,12.55,-4.024,35.191,0.719,10.641,4.314,58.651,5.865,41.056
3.9650000000000003,0.527,11.304,4.167,35.191,-1.437,12.119,-3.497,23.46,0.431,10.785,3.739,41.056,-5.865,29.326
3.97,0.431,11.161,3.545,23.46,-1.293,11.544,-2.587,11.73,0.431,10.785,3.02,29.326,-23.46,23.46
3.975,0.383,10.825,2.682,11.73,-1.006,10.825,-1.485,5.865,0.431,10.641,2.157,17.595,-35.191,5.865
3.98,0.24,10.538,1.581,-0.0,-0.719,10.299,-0.335,-5.865,0.431,10.641,1.007,5.865,-46.921,0.0
3.985,0.24,10.346,0.431,-5.865,-0.575,10.011,0.91,-5.865,0.144,10.641,-0.144,5.865,-58.651,-5.865
3.99,0.335,10.251,-0.766,-11.73,-0.575,9.724,2.156,-11.73,-0.144,10.641,-1.294,5.865,-64.516,-11.73
3.995,0.527,10.155,-1.964,-11.73,-0.383,9.532,3.401,-11.73,-0.431,10.785,-2.588,5.865,-70.381,-11.73
4.0,0.575,10.107,-3.257,-11.73,-0.144,9.532,4.646,-11.73,-0.719,10.785,-3.883,17.595,-70.381,-11.73
4.005,0.623,10.059,-4.407,-11.73,-0.192,9.772,5.7,-11.73,-0.863,10.641,-5.033,23.46,-70.381,-11.73
4.01,0.766,10.107,-5.413,-11.73,-0.096,9.963,6.61,-11.73,-1.007,10.497,-6.04,29.326,-70.381,-11.73
4.015,0.814,10.203,-6.275,-11.73,-0.048,10.011,7.281,-5.865,-1.15,10.497,-6.902,35.191,-64.516,-11.73
4.0200000000000005,0.862,10.299,-6.946,-5.865,-0.24,11.161,8.383,0.0,-1.294,10.641,-7.478,41.056,-52.786,-5.865
4.025,1.054,10.969,-8.047,-0.0,-0.335,11.783,8.718,0.0,-1.438,10.929,-8.628,41.056,-46.921,-5.865
4.03,1.341,11.352,-8.047,-0.0,-0.862,11.879,8.287,0.0,-1.869,11.36,-8.628,35.191,-41.056,0.0
4.035,1.533,11.352,-7.712,-5.865,-1.054,12.167,7.808,-5.865,-1.869,11.216,-8.197,35.191,-29.326,-5.865
4.04,1.341,11.448,-7.041,-11.73,-0.383,9.772,6.658,-17.595,-1.438,11.504,-7.621,29.326,-23.46,-11.73
4.045,0.91,10.251,-5.892,-17.595,-0.479,9.772,5.94,-17.595,-1.294,11.073,-6.471,23.46,-17.595,-17.595
4.05,0.671,9.867,-5.413,-17.595,-0.527,10.011,5.748,-17.595,-0.719,10.066,-6.04,29.326,-11.73,-17.595
4.055,0.479,9.58,-5.269,-17.595,-0.287,9.772,5.748,-11.73,-0.288,9.491,-5.896,29.326,-11.73,-17.595
4.0600000000000005,0.527,9.484,-5.221,-11.73,-0.287,9.628,5.556,-5.865,-0.575,9.491,-5.752,29.326,-11.73,-11.73
4.065,0.719,9.341,-4.982,-5.865,-0.431,9.436,5.269,0.0,-0.863,9.347,-5.608,29.326,-11.73,-11.73
4.07,0.814,9.101,-4.742,-0.0,-0.575,9.436,5.365,5.865,-1.007,9.059,-5.321,23.46,-5.865,0.0
4.075,0.766,8.862,-4.79,-0.0,-0.383,9.197,4.982,5.865,-0.863,8.628,-5.321,17.595,-5.865,5.865
4.08,0.671,8.766,-4.359,5.865,-0.431,8.957,4.598,5.865,-0.863,8.772,-4.889,5.865,0.0,5.865
4.085,0.623,8.718,-4.024,5.865,-0.335,8.814,4.263,11.73,-0.719,8.772,-4.602,5.865,0.0,5.865
4.09,0.479,8.67,-3.688,5.865,-0.335,8.766,3.928,11.73,-0.431,8.772,-4.314,5.865,5.865,5.865
4.095,0.431,8.718,-3.353,5.865,-0.431,8.718,3.64,11.73,-0.431,8.916,-3.883,5.865,5.865,11.73
4.1,0.479,8.862,-3.066,11.73,-0.431,8.718,3.449,5.865,-0.431,9.203,-3.595,0.0,5.865,11.73
4.105,0.575,9.197,-2.97,5.865,-0.383,8.909,3.305,5.865,-0.575,9.635,-3.451,5.865,5.865,5.865
4.11,0.575,9.436,-2.778,-0.0,-0.287,9.197,3.209,0.0,-0.575,9.922,-3.307,5.865,5.865,0.0
4.115,0.431,9.628,-2.73,-5.865,-0.192,9.341,3.209,-5.865,-0.431,10.066,-3.307,5.865,5.865,0.0
4.12,0.192,9.676,-2.682,-5.865,-0.192,9.532,3.161,-5.865,-0.144,10.21,-3.307,23.46,5.865,-5.865
4.125,0.287,9.82,-2.682,-5.865,-0.144,9.628,3.114,-5.865,-0.288,10.21,-3.307,23.46,5.865,-11.73
4.13,0.287,9.82,-2.635,-5.865,-0.479,9.772,2.97,-5.865,-0.144,10.066,-3.164,29.326,5.865,-5.865
4.135,0.479,9.82,-2.491,-5.865,-0.383,9.772,2.874,-5.865,-0.431,10.066,-3.02,29.326,5.865,-5.865
4.14,0.383,9.82,-2.395,-5.865,-0.287,9.724,2.778,0.0,-0.288,10.066,-3.02,29.326,5.865,-5.865
4.1450000000000005,0.287,9.772,-2.299,-5.865,-0.431,9.772,2.73,0.0,-0.144,10.066,-2.876,29.326,5.865,-5.865
4.15,0.383,9.724,-2.299,-0.0,-0.479,9.82,2.826,0.0,-0.144,9.778,-2.876,35.191,5.865,0.0
4.155,0.431,9.676,-2.347,-0.0,-0.479,9.772,2.778,5.865,-0.288,9.778,-2.876,29.326,5.865,0.0
4.16,0.479,9.628,-2.299,5.865,-0.623,9.82,2.587,5.865,-0.288,9.635,-2.876,29.326,0.0,0.0
4.165,0.623,9.628,-2.108,5.865,-0.719,9.724,2.539,5.865,-0.431,9.778,-2.732,29.326,0.0,0.0
4.17,0.575,9.532,-2.06,5.865,-0.671,9.58,2.443,5.865,-0.431,9.635,-2.588,29.326,0.0,0.0
4.175,0.479,9.436,-2.012,-0.0,-0.671,9.484,2.395,0.0,-0.288,9.491,-2.588,23.46,-5.865,0.0
4.18,0.479,9.293,-1.964,-0.0,-0.623,9.388,2.443,0.0,-0.288,9.347,-2.588,23.46,-5.865,0.0
4.1850000000000005,0.479,9.197,-1.964,-0.0,-0.623,9.293,2.395,0.0,-0.288,9.347,-2.588,23.46,-5.865,0.0
4.19,0.479,9.101,-1.916,-0.0,-0.575,9.197,2.299,0.0,-0.288,9.203,-2.445,23.46,-11.73,0.0
4.195,0.479,9.005,-1.82,-0.0,-0.527,9.149,2.299,5.865,-0.288,9.059,-2.445,17.595,-11.73,0.0
4.2,0.383,8.957,-1.82,-0.0,-0.479,9.053,2.251,5.865,-0.288,9.059,-2.301,17.595,-17.595,0.0
4.205,0.383,8.909,-1.82,-0.0,-0.479,9.053,2.251,5.865,-0.288,8.916,-2.301,5.865,-17.595,0.0
4.21,0.383,8.909,-1.772,-0.0,-0.431,9.053,2.108,0.0,-0.288,9.059,-2.301,5.865,-17.595,0.0
4.215,0.383,9.101,-1.677,-0.0,-0.479,9.197,2.012,0.0,-0.288,9.203,-2.157,5.865,-23.46,0.0
4.22,0.383,9.197,-1.533,-0.0,-0.383,9.197,1.964,0.0,-0.144,9.491,-2.013,5.865,-23.46,0.0
4.225,0.287,9.245,-1.485,-5.865,-0.24,8.862,1.916,-5.865,-0.144,9.491,-2.013,5.865,-23.46,-5.865
4.23,0.192,9.005,-1.389,-5.865,-0.383,8.67,1.772,-5.865,-0.144,9.347,-1.869,5.865,-23.46,-5.865
4.235,0.335,8.862,-1.341,-5.865,-0.383,8.909,2.06,-5.865,-0.144,9.203,-1.869,5.865,-29.326,-5.865
4.24,0.287,9.005,-1.629,-5.865,-0.24,9.436,2.251,-5.865,-0.144,9.059,-2.157,17.595,-29.326,-11.73
4.245,0.24,9.388,-1.82,-5.865,-0.24,9.915,2.251,-5.865,-0.144,9.491,-2.301,17.595,-29.326,-11.73
4.25,0.24,9.724,-1.772,-5.865,-0.383,10.155,2.156,-5.865,-0.144,9.778,-2.301,17.595,-29.326,-5.865
4.255,0.335,9.915,-1.724,-5.865,-0.431,10.203,2.108,-5.865,-0.144,9.922,-2.301,5.865,-35.191,-5.865
4.26,0.383,9.915,-1.677,-11.73,-0.431,10.011,2.251,-11.73,-0.288,9.922,-2.157,5.865,-35.191,-11.73
4.265,0.431,9.724,-1.82,-11.73,-0.335,9.676,2.347,-11.73,-0.288,9.778,-2.301,5.865,-35.191,-11.73
4.2700000000000005,0.383,9.484,-1.916,-11.73,-0.383,9.436,2.539,-11.73,-0.288,9.635,-2.445,5.865,-35.191,-11.73
4.275,0.383,9.341,-2.108,-11.73,-0.431,9.388,2.635,-11.73,-0.288,9.491,-2.732,5.865,-35.191,-17.595
4.28,0.431,9.245,-2.203,-11.73,-0.527,9.532,2.73,-11.73,-0.288,9.347,-2.732,0.0,-41.056,-11.73
4.285,0.479,9.293,-2.347,-11.73,-0.479,9.58,2.97,-11.73,-0.431,9.347,-2.876,0.0,-41.056,-11.73
4.29,0.527,9.388,-2.587,-11.73,-0.527,9.676,3.161,-5.865,-0.431,9.491,-3.164,0.0,-41.056,-11.73
4.295,0.527,9.436,-2.778,-5.865,-0.527,9.628,3.401,-5.865,-0.431,9.491,-3.307,-5.865,-41.056,-5.865
4.3,0.623,9.436,-3.018,-5.865,-0.623,9.628,3.545,-5.865,-0.575,9.491,-3.595,-5.865,-41.056,-5.865
4.305,0.719,9.484,-3.114,-5.865,-0.623,9.58,3.64,-5.865,-0.719,9.635,-3.739,-5.865,-41.056,-5.865
4.3100000000000005,0.719,9.484,-3.209,-5.865,-0.623,9.484,3.784,-5.865,-0.719,9.635,-3.739,-11.73,-41.056,-11.73
4.315,0.719,9.436,-3.353,-11.73,-0.671,9.388,3.928,-11.73,-0.719,9.635,-3.883,-11.73,-41.056,-11.73
4.32,0.766,9.341,-3.497,-11.73,-0.719,9.293,4.119,-11.73,-0.719,9.635,-4.026,-11.73,-41.056,-11.73
4.325,0.862,9.341,-3.64,-11.73,-0.719,9.245,4.215,-11.73,-0.863,9.491,-4.314,-11.73,-41.056,-11.73
4.33,0.91,9.293,-3.784,-11.73,-0.766,9.245,4.359,-11.73,-1.007,9.491,-4.314,-5.865,-41.056,-11.73
4.335,0.958,9.341,-3.88,-11.73,-0.814,9.293,4.407,-11.73,-1.007,9.635,-4.458,-11.73,-35.191,-11.73
4.34,1.006,9.388,-3.928,-11.73,-0.862,9.245,4.359,-11.73,-1.15,9.635,-4.458,-5.865,-35.191,-11.73
4.345,1.054,9.388,-3.88,-11.73,-0.862,9.245,4.359,-11.73,-1.15,9.635,-4.458,-5.865,-35.191,-11.73
4.3500000000000005,1.102,9.388,-3.832,-11.73,-0.91,9.149,4.359,-11.73,-1.15,9.635,-4.458,-5.865,-35.191,-11.73
4.355,1.102,9.293,-3.88,-11.73,-0.958,9.053,4.311,-11.73,-1.15,9.635,-4.458,-5.865,-35.191,-11.73
4.36,1.102,9.197,-3.784,-11.73,-0.91,8.909,4.263,-11.73,-1.15,9.491,-4.458,0.0,-29.326,-11.73
4.365,1.102,9.101,-3.784,-11.73,-0.91,8.862,4.215,-11.73,-1.15,9.347,-4.314,0.0,-29.326,-17.595
4.37,1.102,9.053,-3.736,-11.73,-0.862,8.862,4.167,-17.595,-1.15,9.347,-4.314,5.865,-29.326,-17.595
4.375,1.054,9.053,-3.64,-11.73,-0.814,8.909,4.072,-11.73,-1.15,9.347,-4.17,5.865,-29.326,-17.595
4.38,1.006,9.101,-3.593,-11.73,-0.766,8.957,4.024,-11.73,-1.15,9.347,-4.17,5.865,-23.46,-17.595
4.385,0.958,9.101,-3.497,-11.73,-0.766,9.005,3.88,-11.73,-1.007,9.347,-4.026,5.865,-23.46,-11.73
4.39,0.958,9.101,-3.353,-11.73,-0.766,9.005,3.736,-5.865,-1.007,9.347,-3.883,5.865,-23.46,-11.73
4.3950000000000005,0.91,9.101,-3.257,-5.865,-0.671,9.053,3.64,-5.865,-0.863,9.347,-3.883,5.865,-17.595,-11.73
4.4,0.814,9.101,-3.114,-5.865,-0.671,9.101,3.545,-5.865,-0.863,9.347,-3.739,5.865,-17.595,-5.865
4.405,0.766,9.149,-3.066,-5.865,-0.671,9.197,3.545,0.0,-0.719,9.347,-3.595,5.865,-17.595,-5.865
4.41,0.814,9.197,-3.066,-5.865,-0.575,9.293,3.593,0.0,-0.863,9.347,-3.595,5.865,-17.595,-5.865
4.415,0.719,9.245,-3.161,-0.0,-0.575,9.293,3.64,0.0,-0.719,9.347,-3.739,5.865,-17.595,0.0
4.42,0.719,9.245,-3.114,-0.0,-0.527,9.245,3.593,0.0,-0.719,9.347,-3.739,5.865,-17.595,0.0
4.425,0.671,9.149,-3.066,-0.0,-0.527,9.197,3.545,0.0,-0.719,9.347,-3.595,5.865,-11.73,0.0
4.43,0.623,9.101,-3.066,-0.0,-0.431,9.149,3.593,0.0,-0.575,9.347,-3.595,5.865,-11.73,0.0
4.4350000000000005,0.527,9.197,-3.114,-0.0,-0.431,9.149,3.593,0.0,-0.431,9.347,-3.739,5.865,-11.73,0.0
4.44,0.575,9.245,-3.114,-0.0,-0.431,9.245,3.64,5.865,-0.575,9.491,-3.739,5.865,-11.73,0.0
4.445,0.575,9.245,-3.161,-0.0,-0.479,9.293,3.64,5.865,-0.575,9.491,-3.739,5.865,-11.73,0.0
4.45,0.623,9.245,-3.161,-0.0,-0.527,9.197,3.593,5.865,-0.575,9.491,-3.739,5.865,-11.73,0.0
4.455,0.623,9.197,-3.161,5.865,-0.479,9.245,3.64,5.865,-0.575,9.491,-3.739,5.865,-11.73,0.0
4.46,0.575,9.197,-3.114,5.865,-0.527,9.197,3.449,5.865,-0.575,9.347,-3.595,5.865,-11.73,0.0
4.465,0.623,9.101,-2.922,5.865,-0.527,9.149,3.401,0.0,-0.575,9.203,-3.451,5.865,-11.73,0.0
4.47,0.575,9.149,-2.922,5.865,-0.479,9.197,3.353,0.0,-0.575,9.347,-3.451,5.865,-11.73,0.0
4.4750000000000005,0.575,9.197,-2.826,-0.0,-0.527,9.293,3.257,0.0,-0.575,9.347,-3.451,5.865,-11.73,0.0
4.48,0.575,9.197,-2.778,-0.0,-0.431,9.197,3.209,0.0,-0.575,9.347,-3.307,5.865,-11.73,0.0
4.485,0.479,9.101,-2.73,-0.0,-0.383,9.053,3.257,0.0,-0.431,9.203,-3.307,5.865,-11.73,0.0
4.49,0.575,9.053,-2.778,-0.0,-0.623,9.005,3.161,0.0,-0.431,9.203,-3.307,5.865,-5.865,0.0
4.495,0.623,8.957,-2.682,-0.0,-0.479,8.862,3.161,0.0,-0.575,9.059,-3.307,5.865,-11.73,0.0
4.5,0.623,8.862,-2.73,-0.0,-0.479,8.814,3.257,0.0,-0.575,9.059,-3.307,5.865,-11.73,-5.865
4.505,0.575,8.814,-2.778,-5.865,-0.431,8.814,3.257,0.0,-0.575,8.916,-3.307,5.865,-11.73,-5.865
4.51,0.575,8.766,-2.778,-0.0,-0.383,8.862,3.305,0.0,-0.575,8.916,-3.307,5.865,-5.865,0.0
4.515,0.575,8.718,-2.778,-0.0,-0.527,8.718,3.161,0.0,-0.575,8.772,-3.307,5.865,-5.865,0.0
4.5200000000000005,0.623,8.67,-2.682,-0.0,-0.479,8.766,3.161,5.865,-0.575,8.772,-3.164,5.865,-5.865,0.0
4.525,0.671,8.766,-2.682,-0.0,-0.527,8.862,3.209,5.865,-0.719,8.916,-3.307,5.865,-5.865,5.865
4.53,0.671,8.862,-2.682,5.865,-0.479,8.862,3.209,5.865,-0.719,9.059,-3.307,5.865,-5.865,5.865
4.535,0.671,8.957,-2.682,5.865,-0.575,8.957,3.161,5.865,-0.719,9.203,-3.307,5.865,-5.865,5.865
4.54,0.719,9.053,-2.682,5.865,-0.575,9.053,3.161,5.865,-0.719,9.347,-3.307,5.865,0.0,0.0
4.545,0.719,9.149,-2.682,-0.0,-0.575,9.101,3.161,5.865,-0.719,9.347,-3.164,5.865,0.0,0.0
4.55,0.671,9.197,-2.682,-0.0,-0.527,9.149,3.161,5.865,-0.719,9.491,-3.307,5.865,0.0,0.0
4.555,0.671,9.245,-2.635,-0.0,-0.575,9.197,3.018,5.865,-0.719,9.491,-3.164,5.865,0.0,0.0
4.5600000000000005,0.671,9.245,-2.539,5.865,-0.623,9.149,3.018,5.865,-0.719,9.491,-3.164,5.865,0.0,5.865
4.565,0.671,9.245,-2.491,5.865,-0.048,8.862,3.114,5.865,-0.719,9.491,-3.02,5.865,0.0,5.865
4.57,0.431,9.149,-2.539,5.865,-0.719,9.005,2.73,5.865,-0.431,9.491,-3.02,5.865,0.0,5.865
4.575,0.719,9.101,-2.203,5.865,-0.431,9.149,2.635,5.865,-0.575,9.347,-2.732,5.865,0.0,0.0
4.58,0.431,9.149,-2.156,5.865,-0.335,9.197,2.635,5.865,-0.431,9.347,-2.732,17.595,0.0,5.865
4.585,0.335,9.197,-2.156,5.865,-0.383,9.484,2.539,5.865,-0.288,9.347,-2.732,17.595,0.0,5.865
4.59,0.431,9.341,-2.06,5.865,-0.335,9.724,2.491,11.73,-0.288,9.347,-2.588,5.865,0.0,5.865
4.595,0.383,9.484,-2.06,11.73,-0.287,9.867,2.539,11.73,-0.288,9.491,-2.588,5.865,0.0,11.73
4.6000000000000005,0.383,9.58,-2.06,11.73,-0.24,9.963,2.491,17.595,-0.288,9.491,-2.588,5.865,0.0,11.73
4.605,0.335,9.676,-2.06,11.73,-0.192,10.011,2.491,17.595,-0.288,9.635,-2.588,5.865,0.0,11.73
4.61,0.287,9.772,-2.012,17.595,-0.192,10.107,2.443,17.595,-0.288,9.778,-2.588,5.865,0.0,17.595
4.615,0.287,9.915,-1.964,17.595,-0.096,10.203,2.491,17.595,-0.288,9.922,-2.588,0.0,0.0,17.595
4.62,0.24,10.059,-2.012,17.595,-0.048,10.394,2.539,17.595,-0.144,10.21,-2.588,0.0,0.0,17.595
4.625,0.144,10.346,-2.06,17.595,0.0,10.634,2.587,23.46,0.0,10.497,-2.588,-5.865,0.0,17.595
4.63,0.096,10.634,-2.108,17.595,0.096,10.825,2.587,23.46,0.0,10.785,-2.732,-5.865,0.0,17.595
4.635,0.048,10.825,-2.156,23.46,0.144,11.017,2.635,23.46,0.144,11.073,-2.732,-5.865,0.0,17.595
4.64,-0.048,11.113,-2.156,23.46,0.192,11.113,2.682,23.46,0.144,11.36,-2.732,-5.865,0.0,17.595
4.6450000000000005,-0.096,11.304,-2.299,23.46,0.192,11.304,2.874,23.46,0.288,11.648,-2.876,-5.865,0.0,17.595
4.65,-0.048,11.544,-2.443,17.595,0.192,11.496,2.97,23.46,0.288,11.935,-2.876,-5.865,0.0,17.595
4.655,-0.048,11.879,-2.539,17.595,0.144,11.975,3.209,17.595,0.288,12.367,-3.164,0.0,0.0,17.595
4.66,0.048,12.215,-2.778,17.595,0.096,13.268,4.119,17.595,0.288,12.511,-3.307,0.0,0.0,17.595
4.665,-0.144,12.741,-3.353,11.73,0.431,12.694,3.401,11.73,0.144,12.798,-4.026,5.865,0.0,11.73
4.67,0.192,13.077,-2.826,5.865,-0.144,13.077,3.305,5.865,-0.144,13.661,-3.307,0.0,0.0,11.73
4.675,0.287,13.412,-2.73,5.865,-0.096,13.125,3.066,0.0,-0.144,13.949,-3.307,5.865,0.0,5.865
4.68,0.192,13.316,-2.635,-0.0,-0.192,13.077,3.066,-5.865,0.0,13.805,-3.164,5.865,0.0,0.0
4.6850000000000005,0.192,13.22,-2.635,-5.865,-0.048,13.125,3.114,-11.73,0.144,13.517,-3.164,5.865,0.0,-5.865
4.69,0.096,13.173,-2.73,-11.73,0.048,13.22,3.257,-17.595,0.144,13.517,-3.307,17.595,0.0,-17.595
4.695,0.0,13.173,-2.874,-17.595,0.0,13.364,3.305,-17.595,0.288,13.517,-3.451,17.595,0.0,-17.595
4.7,0.096,13.22,-2.826,-17.595,-0.096,13.46,3.257,-17.595,0.144,13.373,-3.451,17.595,0.0,-17.595
4.705,0.192,13.364,-2.826,-17.595,-0.192,13.46,3.209,-17.595,0.0,13.517,-3.307,17.595,-5.865,-17.595
4.71,0.287,13.412,-2.778,-23.46,-0.192,13.364,3.161,-23.46,-0.144,13.661,-3.307,17.595,-5.865,-23.46
4.715,0.335,13.46,-2.73,-23.46,-0.24,13.316,3.114,-29.326,-0.144,13.805,-3.164,17.595,-5.865,-23.46
4.72,0.335,13.364,-2.73,-29.326,-0.24,13.22,3.161,-35.191,-0.144,13.661,-3.164,23.46,-5.865,-35.191
4.7250000000000005,0.287,13.22,-2.73,-35.191,-0.192,13.029,3.161,-41.056,-0.144,13.517,-3.307,23.46,-5.865,-41.056
4.73,0.287,12.933,-2.73,-41.056,-0.192,12.789,3.161,-46.921,-0.144,13.086,-3.307,23.46,-5.865,-46.921
4.735,0.24,12.598,-2.73,-46.921,-0.144,12.502,3.161,-46.921,0.0,12.798,-3.307,23.46,-5.865,-46.921
4.74,0.24,12.358,-2.73,-46.921,-0.192,12.215,3.161,-52.786,0.0,12.511,-3.307,23.46,-11.73,-52.786
4.745,0.287,12.119,-2.73,-52.786,-0.192,11.975,3.161,-52.786,-0.144,12.367,-3.307,23.46,-11.73,-52.786
4.75,0.287,11.831,-2.682,-52.786,-0.192,11.688,3.161,-58.651,-0.144,12.079,-3.307,23.46,-11.73,-58.651
4.755,0.24,11.544,-2.73,-58.651,-0.192,11.448,3.209,-58.651,-0.144,11.792,-3.307,23.46,-11.73,-58.651
4.76,0.24,11.257,-2.73,-58.651,-0.144,11.161,3.209,-58.651,-0.144,11.36,-3.307,23.46,-11.73,-58.651
4.765,0.192,10.921,-2.778,-58.651,-0.144,10.73,3.209,-64.516,-0.144,11.073,-3.307,23.46,-11.73,-64.516
4.7700000000000005,0.24,10.586,-2.73,-58.651,-0.192,10.299,3.161,-64.516,-0.144,10.785,-3.307,23.46,-11.73,-64.516
4.775,0.287,10.251,-2.682,-64.516,-0.192,9.915,3.161,-64.516,-0.144,10.497,-3.307,23.46,-11.73,-64.516
4.78,0.287,9.867,-2.682,-64.516,-0.144,9.532,3.114,-64.516,-0.288,10.066,-3.164,23.46,-11.73,-64.516
4.785,0.24,9.484,-2.635,-64.516,-0.144,9.149,3.066,-64.516,-0.288,9.778,-3.164,23.46,-11.73,-64.516
4.79,0.287,9.101,-2.587,-64.516,-0.144,8.814,2.97,-64.516,-0.288,9.347,-3.164,29.326,-11.73,-70.381
4.795,0.287,8.718,-2.491,-64.516,-0.192,8.478,2.97,-64.516,-0.288,8.916,-3.02,29.326,-11.73,-64.516
4.8,0.24,8.335,-2.491,-64.516,-0.144,8.143,2.922,-64.516,-0.144,8.484,-3.02,29.326,-11.73,-70.381
4.805,0.192,7.951,-2.443,-64.516,-0.144,7.808,2.874,-64.516,-0.144,8.053,-3.02,29.326,-11.73,-64.516
4.8100000000000005,0.24,7.616,-2.347,-64.516,-0.192,7.377,2.73,-64.516,-0.144,7.765,-2.876,29.326,-11.73,-64.516
4.815,0.24,7.329,-2.203,-64.516,-0.192,6.993,2.682,-58.651,-0.288,7.478,-2.876,29.326,-11.73,-64.516
4.82,0.287,6.946,-2.156,-58.651,-0.287,6.61,2.682,-58.651,-0.288,7.19,-2.732,23.46,-11.73,-64.516
4.825,0.287,6.61,-2.156,-58.651,-0.287,6.275,2.73,-58.651,-0.288,6.759,-2.732,29.326,-11.73,-58.651
4.83,0.335,6.227,-2.251,-58.651,-0.24,5.988,2.826,-58.651,-0.431,6.327,-2.876,29.326,-11.73,-58.651
4.835,0.335,5.892,-2.299,-52.786,-0.287,5.748,2.826,-52.786,-0.431,6.04,-2.876,29.326,-11.73,-58.651
4.84,0.383,5.604,-2.299,-52.786,-0.383,5.556,2.826,-46.921,-0.431,5.752,-2.876,29.326,-11.73,-58.651
4.845,0.479,5.365,-2.299,-46.921,-0.431,5.317,2.778,-46.921,-0.575,5.464,-2.876,23.46,-5.865,-52.786
4.8500000000000005,0.527,5.125,-2.251,-41.056,-0.479,5.125,2.778,-41.056,-0.575,5.177,-2.876,23.46,-11.73,-46.921
4.855,0.575,4.934,-2.251,-41.056,-0.527,4.934,2.778,-41.056,-0.575,4.889,-2.876,17.595,-5.865,-46.921
4.86,0.575,4.694,-2.251,-35.191,-0.575,4.79,2.778,-35.191,-0.719,4.602,-2.876,17.595,-5.865,-41.056
4.865,0.623,4.455,-2.251,-35.191,-0.623,4.598,2.826,-29.326,-0.719,4.314,-2.876,5.865,-5.865,-35.191
4.87,0.623,4.263,-2.299,-29.326,-0.623,4.407,2.826,-29.326,-0.719,4.17,-2.876,5.865,-5.865,-35.191
4.875,0.671,4.072,-2.299,-23.46,-0.671,4.215,2.874,-23.46,-0.719,4.026,-2.876,5.865,-5.865,-23.46
4.88,0.719,3.88,-2.347,-23.46,-0.719,4.024,2.922,-17.595,-0.863,3.739,-2.876,0.0,-5.865,-23.46
4.885,0.766,3.688,-2.395,-17.595,-0.719,3.784,3.018,-11.73,-0.863,3.595,-3.02,0.0,-5.865,-17.595
4.89,0.814,3.497,-2.491,-11.73,-0.766,3.545,3.066,-5.865,-1.007,3.451,-3.02,-5.865,-5.865,-11.73
4.8950000000000005,0.862,3.257,-2.587,-5.865,-0.814,3.305,3.114,0.0,-1.007,3.164,-3.164,-11.73,0.0,-5.865
4.9,0.91,2.97,-2.587,-0.0,-0.814,2.97,3.114,5.865,-1.007,2.876,-3.164,-17.595,0.0,0.0
4.905,0.814,2.682,-2.539,5.865,-0.671,2.395,3.161,11.73,-1.007,2.588,-3.164,-17.595,0.0,5.865
4.91,0.766,2.395,-2.635,11.73,-0.575,2.06,3.161,23.46,-1.007,2.588,-3.164,-23.46,0.0,11.73
4.915,0.671,2.347,-2.587,23.46,-0.479,2.06,3.114,29.326,-0.863,2.588,-3.164,-23.46,0.0,17.595
4.92,0.575,2.395,-2.539,29.326,-0.479,2.203,3.161,35.191,-0.719,2.732,-3.164,-23.46,5.865,29.326
4.925,0.479,2.539,-2.635,41.056,-0.383,2.347,3.209,46.921,-0.719,2.876,-3.164,-17.595,5.865,35.191
4.93,0.479,2.73,-2.682,46.921,-0.383,2.587,3.353,52.786,-0.575,3.02,-3.307,-17.595,5.865,46.921
4.9350000000000005,0.479,2.826,-2.826,52.786,-0.335,2.778,3.545,58.651,-0.719,3.02,-3.451,-17.595,11.73,52.786
4.94,0.431,2.826,-3.018,58.651,-0.24,2.922,3.736,64.516,-0.575,3.02,-3.595,-17.595,11.73,58.651
4.945,0.335,2.826,-3.209,64.516,-0.096,3.114,3.928,70.381,-0.575,2.876,-3.883,-17.595,11.73,64.516
4.95,0.192,3.018,-3.449,70.381,0.144,3.449,4.072,76.246,-0.288,3.02,-4.026,-17.595,17.595,70.381
4.955,0.0,3.353,-3.545,76.246,0.192,3.784,4.119,82.111,-0.144,3.451,-4.17,-17.595,17.595,76.246
4.96,-0.048,3.688,-3.593,82.111,0.192,4.024,4.167,87.977,-0.144,3.739,-4.17,-23.46,17.595,82.111
4.965,-0.048,3.928,-3.64,87.977,0.24,4.215,4.215,93.842,-0.144,4.026,-4.314,-23.46,23.46,87.977
4.97,-0.048,4.119,-3.64,93.842,0.335,4.311,4.263,93.842,-0.144,4.314,-4.314,-23.46,23.46,87.977
4.9750000000000005,-0.144,4.359,-3.736,93.842,0.431,4.503,4.263,99.707,0.0,4.602,-4.314,-29.326,23.46,93.842
4.98,-0.287,4.646,-3.736,99.707,0.575,4.934,4.311,99.707,0.144,4.889,-4.314,-29.326,29.326,93.842
4.985,-0.479,5.077,-3.784,99.707,0.766,5.509,4.359,105.572,0.431,5.321,-4.314,-29.326,29.326,93.842
4.99,-0.671,5.556,-3.832,99.707,0.862,6.083,4.455,105.572,0.575,5.752,-4.458,-23.46,35.191,99.707
4.995,-0.766,5.988,-4.024,105.572,0.958,6.61,4.646,105.572,0.719,6.183,-4.602,-23.46,35.191,99.707
5.0,1.293,19.064,1.341,105.572,-12.31,24.333,-5.7,105.572,-1.869,47.023,2.876,-29.326,35.191,105.572
5.005,10.73,24.237,4.646,87.977,-0.048,14.993,4.167,52.786,-7.334,39.689,5.896,-23.46,58.651,87.977
5.01,-9.245,8.622,-5.413,29.326,5.7,13.795,3.305,-64.516,13.517,9.059,-6.759,-117.302,35.191,29.326
5.015,-4.263,12.023,-1.772,-82.111,-1.916,22.274,-1.198,-76.246,4.458,8.053,-2.732,-152.493,-29.326,-87.977
5.0200000000000005,4.79,17.531,1.629,-52.786,-4.119,4.503,-1.341,11.73,-5.608,16.537,1.007,-199.413,-52.786,-52.786
5.025,5.173,10.107,1.15,17.595,-1.629,4.742,1.198,5.865,-6.471,15.674,0.575,-234.604,-46.921,23.46
5.03,2.203,11.113,-0.862,-11.73,-1.341,11.113,1.677,-52.786,-2.732,14.236,-1.438,-187.683,-29.326,-11.73
5.035,2.012,13.556,-1.389,-58.651,-0.814,11.352,2.347,-70.381,-2.301,14.955,-1.869,-123.167,-23.46,-64.516
5.04,1.054,14.083,-2.012,-64.516,0.335,9.963,2.826,-46.921,-1.007,16.393,-2.445,-93.842,-17.595,-70.381
5.045,-0.24,13.364,-2.251,-41.056,0.24,10.634,2.251,-23.46,0.431,15.818,-2.732,-64.516,-11.73,-41.056
5.05,-0.287,13.173,-1.581,-17.595,-0.24,10.634,1.82,0.0,0.863,14.955,-2.013,-29.326,-5.865,-17.595
5.055,-0.048,12.406,-1.581,5.865,-0.192,10.634,2.97,29.326,0.575,13.805,-2.013,-5.865,-11.73,5.865
5.0600000000000005,0.192,11.831,-2.826,35.191,-0.192,10.969,4.311,52.786,0.144,12.798,-3.451,17.595,-11.73,29.326
5.065,0.479,11.448,-4.119,52.786,0.0,11.113,5.173,64.516,-0.575,11.935,-4.602,29.326,-17.595,52.786
5.07,0.671,10.873,-4.79,64.516,-0.048,10.538,5.604,76.246,-0.863,10.929,-5.321,41.056,-11.73,64.516
5.075,0.766,10.155,-5.173,70.381,-0.144,10.346,5.7,76.246,-1.15,10.21,-5.752,41.056,-11.73,70.381
5.08,0.719,9.82,-5.173,76.246,-0.24,10.299,5.509,70.381,-1.007,9.778,-5.752,35.191,-5.865,70.381
5.085,0.671,9.676,-5.03,70.381,-0.24,10.394,5.461,64.516,-0.863,9.491,-5.608,35.191,0.0,70.381
5.09,0.431,9.724,-4.934,58.651,-0.192,10.634,5.221,52.786,-0.431,9.635,-5.608,29.326,5.865,58.651
5.095,0.287,9.867,-4.694,46.921,-0.192,10.825,4.934,35.191,-0.144,9.635,-5.321,23.46,5.865,46.921
5.1000000000000005,0.24,10.011,-4.407,35.191,-0.192,10.778,4.598,23.46,-0.144,9.778,-5.033,17.595,5.865,35.191
5.105,0.192,10.059,-4.072,23.46,-0.192,10.586,4.359,11.73,-0.144,9.922,-4.602,5.865,5.865,17.595
5.11,0.192,10.011,-3.832,5.865,-0.096,10.394,4.072,-5.865,-0.144,9.922,-4.458,0.0,5.865,5.865
5.115,0.192,10.011,-3.545,-5.865,-0.096,10.299,3.832,-17.595,-0.144,10.066,-4.026,0.0,5.865,-5.865
5.12,0.144,10.059,-3.305,-17.595,0.096,10.203,3.593,-23.46,-0.144,10.21,-3.883,-5.865,5.865,-17.595
5.125,0.0,10.203,-3.066,-23.46,0.192,10.346,3.257,-29.326,0.144,10.497,-3.595,-5.865,5.865,-23.46
5.13,-0.144,10.394,-2.73,-29.326,0.287,10.394,2.922,-29.326,0.288,10.785,-3.307,-5.865,5.865,-23.46
5.135,-0.192,10.586,-2.395,-29.326,0.287,10.538,2.587,-29.326,0.431,10.929,-2.876,-5.865,5.865,-29.326
5.14,-0.24,10.634,-2.06,-23.46,0.24,10.538,2.395,-23.46,0.431,10.929,-2.588,-5.865,0.0,-23.46
5.1450000000000005,-0.192,10.682,-1.916,-17.595,0.144,10.538,2.251,-17.595,0.431,10.929,-2.445,-5.865,0.0,-23.46
5.15,-0.144,10.634,-1.82,-11.73,0.144,10.49,2.203,-5.865,0.431,10.929,-2.301,0.0,0.0,-17.595
5.155,-0.096,10.538,-1.724,-5.865,0.096,10.299,2.251,0.0,0.288,10.785,-2.301,0.0,0.0,-5.865
5.16,0.0,10.394,-1.772,-0.0,0.0,10.251,2.299,0.0,0.144,10.785,-2.301,0.0,0.0,0.0
5.165,0.096,10.299,-1.868,5.865,0.0,10.155,2.395,5.865,0.0,10.497,-2.301,0.0,0.0,5.865
5.17,0.096,10.155,-1.964,5.865,-0.096,10.107,2.539,11.73,0.0,10.354,-2.445,0.0,0.0,5.865
5.175,0.144,10.107,-2.108,11.73,-0.048,10.059,2.682,11.73,0.0,10.354,-2.588,0.0,0.0,5.865
5.18,0.144,10.011,-2.251,11.73,-0.144,9.915,2.874,11.73,-0.144,10.21,-2.876,5.865,0.0,11.73
5.1850000000000005,0.144,9.867,-2.443,5.865,-0.096,9.82,3.066,5.865,0.0,10.066,-3.02,5.865,0.0,5.865
5.19,0.24,9.724,-2.635,5.865,-0.048,9.532,3.209,5.865,-0.144,9.922,-3.164,5.865,0.0,5.865
5.195,0.048,9.532,-2.778,5.865,0.048,9.388,3.305,5.865,0.144,9.778,-3.307,5.865,-5.865,5.865
5.2,0.096,9.388,-2.874,5.865,-0.096,9.245,3.449,0.0,0.0,9.635,-3.451,5.865,-5.865,0.0
5.205,0.24,9.293,-2.97,-0.0,-0.048,9.245,3.353,0.0,-0.144,9.491,-3.451,5.865,-5.865,0.0
5.21,0.048,9.149,-2.874,-0.0,0.096,8.957,3.401,0.0,0.144,9.347,-3.451,5.865,-5.865,0.0
5.215,0.0,8.957,-2.922,-0.0,0.048,8.862,3.353,0.0,0.144,9.203,-3.451,5.865,0.0,0.0
5.22,0.0,8.862,-2.874,-0.0,0.096,8.909,3.209,0.0,0.144,9.059,-3.451,5.865,-5.865,0.0
5.2250000000000005,-0.096,8.909,-2.73,-0.0,0.144,8.957,3.161,0.0,0.288,9.059,-3.307,5.865,-5.865,0.0
5.23,-0.096,9.005,-2.73,-0.0,0.144,9.101,3.161,0.0,0.288,9.203,-3.307,5.865,-5.865,0.0
5.235,-0.096,9.101,-2.682,-0.0,0.144,9.245,3.114,0.0,0.144,9.347,-3.307,5.865,-5.865,0.0
5.24,-0.144,9.245,-2.635,-0.0,0.24,9.388,3.114,0.0,0.288,9.491,-3.164,5.865,-5.865,0.0
5.245,-0.144,9.388,-2.635,-0.0,0.24,9.484,3.114,0.0,0.288,9.635,-3.164,5.865,-5.865,0.0
5.25,-0.144,9.58,-2.635,-0.0,0.24,9.628,3.066,0.0,0.288,9.778,-3.164,5.865,-5.865,0.0
5.255,-0.144,9.676,-2.587,-0.0,0.287,9.724,2.97,0.0,0.288,9.922,-3.164,5.865,-5.865,0.0
5.26,-0.192,9.724,-2.539,-0.0,0.335,9.82,2.97,0.0,0.288,9.922,-3.02,5.865,-5.865,0.0
5.265,-0.192,9.724,-2.491,-0.0,0.287,9.915,2.97,0.0,0.288,9.922,-3.02,5.865,-5.865,0.0
5.2700000000000005,-0.192,9.82,-2.491,-0.0,0.383,10.011,2.97,0.0,0.288,9.922,-3.02,5.865,-5.865,0.0
5.275,-0.24,9.867,-2.491,-0.0,0.431,10.203,2.97,0.0,0.431,10.066,-3.02,5.865,-5.865,0.0
5.28,-0.335,10.107,-2.491,-0.0,0.527,10.442,2.97,0.0,0.431,10.21,-3.02,5.865,-5.865,0.0
5.285,-0.335,10.299,-2.491,-0.0,0.575,10.634,2.922,0.0,0.431,10.354,-3.02,5.865,-5.865,0.0
5.29,-0.383,10.442,-2.443,-0.0,0.671,10.778,2.826,0.0,0.431,10.497,-3.02,5.865,-5.865,0.0
5.295,-0.479,10.538,-2.299,-0.0,0.671,10.778,2.682,0.0,0.575,10.641,-2.876,5.865,-5.865,0.0
5.3,-0.623,10.682,-2.203,-0.0,0.719,10.921,2.587,0.0,0.719,10.929,-2.732,0.0,-5.865,0.0
5.305,-0.719,10.778,-2.108,-0.0,0.814,11.017,2.443,0.0,0.863,10.929,-2.732,0.0,-5.865,0.0
5.3100000000000005,-0.766,10.921,-1.964,-5.865,0.862,11.065,2.347,-5.865,1.007,11.073,-2.588,0.0,-5.865,0.0
5.315,-0.814,10.969,-1.868,-5.865,1.054,11.017,2.203,0.0,1.007,11.216,-2.445,0.0,-5.865,-5.865
5.32,-0.91,10.969,-1.724,-5.865,1.006,11.017,2.06,0.0,1.15,11.216,-2.301,0.0,-5.865,-5.865
5.325,-1.006,10.969,-1.485,-5.865,1.102,10.969,1.581,-5.865,1.15,11.216,-2.013,0.0,-5.865,-5.865
5.33,-1.006,11.017,-0.958,-5.865,1.868,10.873,0.192,-5.865,1.15,11.36,-1.438,0.0,-5.865,-5.865
5.335,-1.15,11.4,0.575,-11.73,0.479,10.921,-0.383,-5.865,1.294,12.223,0.288,0.0,-5.865,-5.865
5.34,-1.245,11.448,1.054,-5.865,1.389,9.82,-3.018,-11.73,1.869,12.223,0.575,5.865,-5.865,-11.73
5.345,-2.108,11.352,3.928,-11.73,0.958,10.825,-3.736,-17.595,2.732,12.511,3.02,17.595,-11.73,-11.73
5.3500000000000005,-2.012,11.592,4.024,-17.595,1.198,11.544,-3.736,-23.46,3.164,12.223,3.595,35.191,-23.46,-17.595
5.355,-2.251,11.736,3.928,-23.46,1.389,12.215,-3.64,-23.46,3.307,12.079,3.595,46.921,-35.191,-23.46
5.36,-2.251,11.975,3.832,-23.46,1.293,12.694,-3.593,-23.46,3.307,12.079,3.451,46.921,-46.921,-23.46
5.365,-2.108,12.119,3.784,-23.46,1.198,13.029,-3.593,-23.46,3.02,11.935,3.307,46.921,-58.651,-23.46
5.37,-1.964,12.215,3.832,-23.46,1.102,13.173,-3.593,-29.326,2.732,11.935,3.307,41.056,-70.381,-23.46
5.375,-1.868,12.262,3.832,-29.326,1.15,13.125,-3.64,-41.056,2.732,11.935,3.307,35.191,-82.111,-35.191
5.38,-1.868,12.167,3.832,-41.056,1.15,12.837,-3.688,-46.921,2.732,11.792,3.307,23.46,-93.842,-46.921
5.385,-2.06,11.879,3.832,-46.921,1.293,12.502,-3.64,-58.651,3.02,11.648,3.307,17.595,-105.572,-52.786
5.39,-2.203,11.592,3.784,-58.651,1.341,12.31,-3.593,-64.516,3.164,11.36,3.307,5.865,-117.302,-58.651
5.3950000000000005,-2.299,11.257,3.64,-64.516,1.485,12.023,-3.305,-70.381,3.307,10.929,3.02,0.0,-129.032,-70.381
5.4,-2.347,10.921,3.353,-70.381,1.581,11.736,-2.874,-76.246,3.307,10.497,2.732,-5.865,-140.762,-70.381
5.405,-2.395,10.586,2.874,-76.246,1.724,11.304,-2.299,-82.111,3.307,10.21,2.301,-17.595,-158.358,-76.246
5.41,-2.443,10.203,2.251,-82.111,1.964,10.778,-1.581,-87.977,3.164,9.922,1.582,-23.46,-170.088,-82.111
5.415,-2.491,9.867,1.485,-82.111,2.203,10.203,-0.719,-87.977,3.164,9.635,0.863,-35.191,-175.953,-87.977
5.42,-2.539,9.436,0.671,-87.977,2.395,9.436,0.144,-93.842,3.02,9.491,-0.0,-41.056,-187.683,-93.842
5.425,-2.491,9.005,-0.24,-87.977,2.539,8.67,1.102,-93.842,2.732,9.203,-1.007,-46.921,-193.548,-93.842
5.43,-2.443,8.526,-1.198,-93.842,2.587,7.999,2.156,-93.842,2.588,8.916,-1.869,-46.921,-199.413,-93.842
5.4350000000000005,-2.395,8.047,-2.203,-93.842,2.682,7.377,3.305,-93.842,2.445,8.484,-3.02,-46.921,-199.413,-93.842
5.44,-2.299,7.616,-3.353,-93.842,2.682,6.85,4.598,-93.842,2.301,8.197,-4.17,-41.056,-199.413,-93.842
5.445,-2.251,7.281,-4.646,-87.977,2.73,6.467,6.035,-87.977,2.157,8.053,-5.464,-35.191,-199.413,-87.977
5.45,-2.108,7.041,-6.083,-82.111,2.587,6.323,7.616,-82.111,1.869,7.909,-6.902,-29.326,-193.548,-87.977
5.455,-1.916,6.898,-7.664,-76.246,2.491,6.419,9.436,-70.381,1.582,7.765,-8.484,-17.595,-193.548,-76.246
5.46,-1.677,6.85,-9.484,-64.516,2.491,6.562,11.448,-64.516,1.294,7.478,-10.354,-11.73,-187.683,-70.381
5.465,-1.341,6.85,-11.448,-58.651,2.347,6.706,13.46,-58.651,0.719,7.478,-12.223,-5.865,-175.953,-64.516
5.47,-0.958,6.85,-13.412,-52.786,2.299,6.754,15.376,-52.786,0.144,7.334,-14.092,5.865,-164.223,-52.786
5.4750000000000005,-0.575,6.754,-15.184,-46.921,2.251,6.754,17.052,-46.921,-0.575,7.19,-15.818,5.865,-152.493,-46.921
5.48,-0.192,6.658,-16.765,-41.056,2.203,6.61,18.489,-41.056,-1.15,7.046,-17.4,5.865,-134.897,-41.056
5.485,0.144,6.562,-18.01,-35.191,2.156,6.514,19.447,-29.326,-1.726,6.902,-18.694,5.865,-111.437,-35.191
5.49,0.431,6.514,-18.777,-29.326,2.06,6.467,19.735,-23.46,-2.157,6.902,-19.413,5.865,-87.977,-29.326
5.495,0.623,6.467,-18.921,-23.46,1.916,6.275,19.495,-11.73,-2.445,6.902,-19.413,5.865,-58.651,-23.46
5.5,0.671,6.371,-18.537,-11.73,1.629,5.988,18.537,-5.865,-2.445,6.902,-19.125,17.595,-29.326,-11.73
5.505,0.623,6.131,-17.484,-5.865,1.82,5.748,17.388,0.0,-2.157,6.615,-17.975,17.595,0.0,-5.865
5.51,0.335,6.131,-16.43,-0.0,1.772,5.844,16.286,5.865,-1.869,6.759,-16.968,23.46,29.326,0.0
5.515,0.192,6.083,-15.184,5.865,1.102,5.461,14.849,17.595,-1.438,6.471,-15.818,29.326,58.651,5.865
5.5200000000000005,0.335,5.7,-13.843,17.595,1.677,5.7,12.55,23.46,-1.007,5.896,-13.805,29.326,76.246,17.595
5.525,-0.766,6.035,-12.023,23.46,1.581,6.131,11.257,29.326,0.288,6.759,-12.511,35.191,93.842,23.46
5.53,-0.24,5.604,-10.155,29.326,1.006,6.131,9.867,35.191,-0.431,5.464,-10.785,35.191,105.572,29.326
5.535,0.0,6.275,-9.341,29.326,1.102,6.562,9.197,35.191,-0.719,6.615,-9.778,29.326,117.302,29.326
5.54,0.479,6.85,-8.526,35.191,0.623,7.999,7.999,35.191,-1.294,7.19,-9.059,35.191,129.032,35.191
5.545,0.287,7.377,-7.568,29.326,0.766,8.478,7.281,29.326,-1.007,7.046,-8.197,35.191,140.762,29.326
5.55,-0.048,7.472,-6.467,23.46,0.862,8.383,5.7,23.46,-0.431,7.046,-7.19,29.326,158.358,23.46
5.555,-0.335,7.616,-4.934,23.46,0.671,8.191,3.305,23.46,0.144,7.478,-5.608,23.46,164.223,23.46
5.5600000000000005,-0.671,7.568,-2.491,17.595,0.527,7.568,0.623,17.595,0.863,7.478,-3.164,5.865,170.088,17.595
5.565,-0.958,7.568,0.24,17.595,0.192,6.658,-2.251,23.46,1.438,7.909,-0.431,5.865,170.088,17.595
5.57,-1.245,7.425,3.066,23.46,0.479,6.179,-4.79,29.326,2.157,8.34,2.588,5.865,164.223,23.46
5.575,-1.772,7.712,5.413,29.326,0.144,6.562,-6.898,35.191,2.876,8.916,4.889,5.865,158.358,29.326
5.58,-1.868,8.478,7.425,41.056,-0.096,7.664,-8.574,46.921,3.307,9.778,7.046,29.326,140.762,35.191
5.585,-1.772,9.58,9.005,46.921,-0.144,9.053,-9.772,52.786,3.307,10.785,8.628,46.921,123.167,46.921
5.59,-1.724,10.682,10.059,52.786,-0.383,10.73,-10.73,52.786,3.307,11.648,9.635,64.516,99.707,52.786
5.595,-1.581,11.736,10.969,52.786,-0.575,12.262,-11.496,52.786,3.307,12.367,10.641,76.246,76.246,52.786
5.6000000000000005,-1.485,12.55,11.592,52.786,-0.623,13.46,-11.831,46.921,3.164,12.654,11.216,87.977,52.786,46.921
5.605,-1.437,13.029,11.831,46.921,-0.479,14.418,-11.831,35.191,3.307,12.654,11.504,87.977,23.46,41.056
5.61,-1.581,13.268,11.736,35.191,-0.479,15.089,-11.592,23.46,3.307,12.511,11.36,82.111,-5.865,29.326
5.615,-1.581,13.412,11.496,23.46,-0.287,15.424,-11.4,11.73,3.307,12.223,11.073,70.381,-29.326,23.46
5.62,-1.677,13.364,11.304,11.73,-0.24,15.472,-11.209,0.0,3.307,12.079,10.929,52.786,-58.651,11.73
5.625,-1.772,13.268,11.065,-0.0,-0.048,15.376,-10.969,-11.73,3.595,12.079,10.641,29.326,-82.111,-5.865
5.63,-1.772,13.077,10.873,-17.595,0.24,14.753,-10.825,-35.191,3.307,11.792,10.354,5.865,-105.572,-23.46
5.635,-2.108,12.598,10.538,-35.191,0.719,13.795,-10.299,-46.921,3.739,11.504,10.066,-11.73,-129.032,-41.056
5.64,-2.395,12.023,10.011,-46.921,1.054,13.22,-9.82,-58.651,3.883,11.216,9.491,-35.191,-152.493,-52.786
5.6450000000000005,-2.73,11.352,9.484,-58.651,1.245,12.502,-9.053,-70.381,4.17,10.354,8.772,-52.786,-175.953,-64.516
5.65,-2.922,10.969,8.526,-70.381,1.772,11.927,-8.095,-82.111,4.314,10.354,7.909,-70.381,-199.413,-70.381
5.655,-2.922,10.969,7.568,-76.246,1.964,11.927,-6.946,-93.842,4.026,10.641,6.902,-82.111,-217.009,-82.111
5.66,-2.922,11.161,6.323,-93.842,2.06,11.927,-5.413,-111.437,3.883,10.929,5.464,-87.977,-240.469,-93.842
5.665,-2.874,11.209,4.646,-111.437,2.73,11.448,-3.449,-129.032,3.739,11.216,3.739,-93.842,-252.199,-111.437
5.67,-3.305,10.873,2.682,-123.167,3.401,10.682,-1.245,-134.897,3.883,11.073,1.726,-99.707,-269.795,-129.032
5.675,-3.688,10.346,0.479,-129.032,3.545,10.059,0.958,-134.897,4.17,10.641,-0.575,-99.707,-281.525,-134.897
5.68,-3.64,9.82,-1.724,-129.032,3.545,9.58,3.353,-134.897,4.17,10.21,-2.876,-93.842,-287.39,-134.897
5.6850000000000005,-3.305,9.532,-4.119,-123.167,3.449,9.245,6.083,-129.032,3.451,10.066,-5.177,-93.842,-293.255,-129.032
5.69,-2.73,9.532,-6.85,-123.167,3.353,9.197,8.957,-129.032,2.588,10.354,-7.909,-87.977,-293.255,-123.167
5.695,-2.203,9.388,-9.628,-123.167,3.545,9.005,12.023,-129.032,1.726,10.066,-10.785,-82.111,-293.255,-129.032
5.7,-1.964,9.005,-12.598,-117.302,3.497,8.622,14.993,-123.167,1.15,9.635,-13.661,-70.381,-287.39,-123.167
5.705,-1.245,8.526,-15.328,-117.302,2.97,8.335,17.292,-117.302,-0.144,9.059,-16.249,-64.516,-269.795,-117.302
5.71,-0.287,7.856,-17.292,-111.437,2.682,7.664,19.112,-111.437,-1.438,8.053,-18.119,-58.651,-252.199,-117.302
5.715,0.383,7.137,-18.921,-105.572,2.203,6.706,20.31,-99.707,-2.445,7.334,-19.701,-58.651,-222.874,-105.572
5.72,0.958,6.467,-19.831,-93.842,1.82,5.988,20.645,-93.842,-3.164,6.759,-20.563,-58.651,-193.548,-99.707
5.7250000000000005,1.293,6.035,-19.926,-82.111,1.485,5.413,20.405,-82.111,-3.451,6.471,-20.563,-58.651,-158.358,-87.977
5.73,1.389,5.892,-19.543,-76.246,1.293,5.077,19.735,-70.381,-3.307,6.615,-20.132,-52.786,-123.167,-76.246
5.735,1.293,5.844,-18.729,-64.516,1.006,5.077,18.729,-58.651,-3.02,6.759,-19.269,-46.921,-93.842,-64.516
5.74,1.102,5.892,-17.723,-52.786,1.102,5.221,17.915,-46.921,-2.588,6.759,-18.263,-41.056,-64.516,-58.651
5.745,1.102,6.035,-17.005,-41.056,0.814,5.604,17.148,-35.191,-2.588,6.902,-17.544,-29.326,-35.191,-46.921
5.75,1.293,6.083,-16.19,-29.326,0.479,6.131,16.19,-17.595,-2.732,6.615,-16.681,-23.46,-11.73,-35.191
5.755,1.389,6.131,-15.184,-17.595,0.287,6.371,14.993,-5.865,-2.732,6.327,-15.674,-17.595,17.595,-17.595
5.76,1.533,6.083,-13.939,-5.865,0.048,6.562,13.508,5.865,-2.732,6.04,-14.524,-17.595,35.191,-5.865
5.765,1.629,6.227,-12.502,-0.0,-0.91,6.275,11.688,11.73,-2.876,6.183,-13.086,-17.595,58.651,0.0
5.7700000000000005,1.964,5.796,-10.251,5.865,0.479,5.988,9.245,11.73,-2.445,5.321,-10.21,-23.46,76.246,5.865
5.775,1.245,7.281,-8.335,11.73,-0.479,7.185,7.089,5.865,-2.157,8.484,-8.628,-23.46,87.977,5.865
5.78,1.15,7.568,-6.467,-5.865,-1.677,7.568,5.413,-11.73,-1.582,8.197,-7.046,-17.595,99.707,-5.865
5.785,1.629,8.574,-4.79,-17.595,-1.772,7.472,2.922,-23.46,-1.582,9.491,-5.321,-5.865,111.437,-17.595
5.79,0.958,8.047,-2.156,-29.326,-0.192,7.472,1.533,-23.46,-0.431,8.484,-2.588,0.0,111.437,-23.46
5.795,-0.719,7.425,-1.102,-23.46,-0.431,6.898,1.341,-17.595,1.438,7.621,-1.726,5.865,105.572,-23.46
5.8,-0.862,7.185,-1.006,-17.595,-0.527,7.472,0.766,0.0,1.869,7.478,-1.582,5.865,93.842,-17.595
5.805,-0.287,7.472,-0.335,-0.0,-1.437,8.095,0.144,17.595,1.007,7.478,-0.863,5.865,87.977,0.0
5.8100000000000005,0.719,7.856,0.431,23.46,-1.581,8.478,-0.575,35.191,0.144,7.765,-0.144,5.865,76.246,23.46
5.815,1.006,8.287,1.102,35.191,-1.868,8.909,-1.389,35.191,-0.575,8.197,0.575,0.0,64.516,29.326
5.82,1.245,9.053,1.868,35.191,-2.108,9.676,-2.06,29.326,-0.719,9.059,1.438,-5.865,52.786,35.191
5.825,1.198,9.676,2.491,29.326,-1.82,10.203,-2.299,23.46,-0.575,9.635,2.013,-5.865,46.921,23.46
5.83,0.958,10.203,2.635,17.595,-1.916,10.921,-2.395,11.73,-0.288,10.21,2.157,-5.865,35.191,11.73
5.835,1.102,10.586,2.73,5.865,-1.964,11.257,-2.443,0.0,-0.288,10.354,2.301,-11.73,23.46,5.865
5.84,0.958,10.538,2.635,-5.865,-1.629,10.73,-1.964,-11.73,-0.288,10.21,2.157,-11.73,11.73,-5.865
5.845,0.719,10.155,2.156,-11.73,-1.581,10.346,-1.533,-11.73,0.0,9.922,1.582,-17.595,0.0,-11.73
5.8500000000000005,0.862,10.011,1.868,-17.595,-2.012,10.299,-1.533,-17.595,-0.144,9.922,1.438,-23.46,-11.73,-17.595
5.855,1.293,10.251,1.868,-17.595,-2.108,10.299,-1.389,-29.326,-0.719,10.354,1.438,-29.326,-23.46,-17.595
5.86,1.581,10.394,1.677,-29.326,-1.772,10.155,-0.862,-35.191,-1.15,10.497,1.15,-29.326,-35.191,-29.326
5.865,1.198,10.394,1.006,-35.191,-1.437,10.203,-0.096,-41.056,-0.719,10.641,0.575,-29.326,-41.056,-41.056
5.87,1.006,10.442,0.383,-41.056,-1.581,10.73,0.383,-46.921,-0.575,10.641,-0.144,-29.326,-46.921,-46.921
5.875,1.15,10.634,-0.144,-46.921,-1.485,13.364,-0.383,-52.786,-0.719,10.641,-0.719,-23.46,-52.786,-46.921
5.88,1.341,15.615,1.485,-52.786,-2.347,13.843,-0.527,-70.381,-0.863,16.825,1.15,-23.46,-58.651,-58.651
5.885,2.491,12.406,-0.24,-76.246,0.24,11.975,2.443,-87.977,-2.445,11.648,-0.575,-17.595,-70.381,-82.111
5.89,-0.958,12.502,-2.347,-87.977,0.192,13.316,3.066,-70.381,1.294,13.086,-2.732,-17.595,-70.381,-87.977
5.8950000000000005,0.24,11.831,-2.874,-64.516,-2.06,13.029,3.832,-64.516,0.288,10.785,-3.451,-23.46,-70.381,-64.516
5.9,1.437,11.017,-3.688,-58.651,-1.15,10.107,4.072,-64.516,-1.007,10.21,-4.314,-29.326,-76.246,-64.516
5.905,2.012,10.538,-3.64,-64.516,-1.581,9.628,4.119,-64.516,-2.588,11.216,-4.17,-46.921,-82.111,-64.516
5.91,2.108,10.778,-3.688,-64.516,-1.581,9.82,4.359,-70.381,-2.445,11.648,-4.17,-41.056,-76.246,-70.381
5.915,1.629,10.251,-4.024,-76.246,-1.198,9.388,4.646,-82.111,-1.582,10.785,-4.602,-35.191,-76.246,-76.246
5.92,1.102,9.724,-4.311,-76.246,-1.054,8.862,5.03,-82.111,-1.007,10.21,-4.889,-23.46,-70.381,-82.111
5.925,0.958,9.149,-4.646,-82.111,-1.006,8.287,5.365,-82.111,-0.863,9.635,-5.177,-17.595,-70.381,-87.977
5.93,0.958,8.574,-4.982,-82.111,-0.958,7.76,5.7,-76.246,-0.863,9.059,-5.608,-17.595,-76.246,-82.111
5.9350000000000005,1.006,7.999,-5.317,-76.246,-1.006,7.568,6.131,-70.381,-1.007,8.34,-5.896,-11.73,-76.246,-76.246
5.94,1.198,7.664,-5.7,-70.381,-1.102,7.329,6.419,-64.516,-1.294,7.909,-6.327,-5.865,-76.246,-70.381
5.945,1.341,7.329,-6.035,-64.516,-1.006,7.089,6.802,-64.516,-1.582,7.478,-6.759,-5.865,-76.246,-70.381
5.95,1.437,7.041,-6.419,-58.651,-1.006,6.993,7.185,-58.651,-1.726,7.19,-7.046,-5.865,-70.381,-64.516
5.955,1.437,6.898,-6.706,-52.786,-0.958,6.946,7.377,-52.786,-1.726,6.902,-7.334,-5.865,-70.381,-58.651
5.96,1.437,6.85,-6.85,-52.786,-1.006,6.85,7.425,-46.921,-1.726,6.902,-7.478,-5.865,-64.516,-52.786
5.965,1.341,6.802,-6.898,-46.921,-0.958,6.754,7.329,-41.056,-1.582,6.902,-7.478,-5.865,-58.651,-46.921
5.97,1.341,6.754,-6.754,-41.056,-1.102,6.706,7.041,-35.191,-1.726,6.902,-7.334,-5.865,-52.786,-41.056
5.9750000000000005,1.437,6.802,-6.419,-35.191,-1.15,6.61,6.754,-35.191,-1.726,7.046,-7.046,-5.865,-46.921,-41.056
5.98,1.485,6.85,-6.131,-35.191,-1.15,6.706,6.61,-35.191,-1.726,7.19,-6.759,-5.865,-46.921,-35.191
5.985,1.485,6.946,-6.035,-29.326,-1.15,6.85,6.562,-29.326,-1.726,7.19,-6.615,-5.865,-41.056,-35.191
5.99,1.533,7.041,-5.988,-29.326,-1.389,7.089,6.514,-29.326,-1.869,7.19,-6.615,0.0,-35.191,-35.191
5.995,1.677,7.233,-5.94,-29.326,-1.581,7.329,6.323,-29.326,-1.869,7.334,-6.615,0.0,-35.191,-29.326
6.0,1.916,7.329,-5.7,-29.326,-1.772,7.425,6.083,-29.326,-2.157,7.478,-6.327,0.0,-29.326,-29.326
6.005,2.06,7.425,-5.509,-35.191,-1.868,7.472,5.796,-35.191,-2.301,7.478,-6.04,0.0,-29.326,-35.191
6.01,2.06,7.472,-5.221,-35.191,-1.868,7.472,5.461,-41.056,-2.157,7.621,-5.752,0.0,-23.46,-41.056
6.015000000000001,2.012,7.52,-4.838,-41.056,-1.964,7.425,5.125,-41.056,-2.157,7.621,-5.464,0.0,-23.46,-41.056
6.0200000000000005,2.06,7.52,-4.551,-41.056,-1.964,7.329,4.934,-46.921,-2.157,7.765,-5.177,0.0,-17.595,-46.921
6.025,2.108,7.472,-4.407,-46.921,-2.203,7.281,4.838,-46.921,-2.157,7.621,-5.033,0.0,-17.595,-46.921
6.03,2.203,7.425,-4.359,-46.921,-2.299,7.329,4.838,-52.786,-2.301,7.478,-4.889,0.0,-17.595,-52.786
6.035,2.299,7.377,-4.359,-46.921,-2.443,7.329,4.838,-52.786,-2.301,7.478,-4.889,5.865,-17.595,-52.786
6.04,2.395,7.377,-4.359,-52.786,-2.491,7.185,4.886,-52.786,-2.445,7.478,-5.033,5.865,-17.595,-52.786
6.045,2.395,7.329,-4.359,-46.921,-2.443,6.993,4.886,-46.921,-2.445,7.478,-5.033,0.0,-17.595,-52.786
6.05,2.299,7.233,-4.407,-46.921,-2.443,6.946,4.886,-46.921,-2.301,7.478,-5.033,5.865,-17.595,-46.921
6.055,2.251,7.281,-4.455,-41.056,-2.491,6.946,5.03,-41.056,-2.157,7.478,-5.033,5.865,-23.46,-46.921
6.0600000000000005,2.395,7.377,-4.598,-35.191,-2.635,7.089,5.221,-35.191,-2.445,7.765,-5.177,5.865,-23.46,-41.056
6.065,2.635,7.568,-4.79,-29.326,-2.778,7.377,5.317,-29.326,-2.588,7.909,-5.321,5.865,-23.46,-35.191
6.07,2.73,7.712,-4.838,-29.326,-2.778,7.616,5.365,-23.46,-2.732,7.909,-5.464,5.865,-23.46,-23.46
6.075,2.682,7.904,-4.886,-23.46,-2.73,7.904,5.413,-23.46,-2.588,8.053,-5.464,5.865,-23.46,-23.46
6.08,2.635,8.191,-4.934,-23.46,-2.73,8.239,5.509,-23.46,-2.588,8.34,-5.608,17.595,-23.46,-23.46
6.085,2.682,8.43,-5.03,-23.46,-2.778,8.478,5.556,-23.46,-2.732,8.628,-5.608,17.595,-23.46,-23.46
6.09,2.73,8.622,-5.077,-17.595,-2.826,8.67,5.604,-17.595,-2.732,8.772,-5.752,17.595,-23.46,-23.46
6.095,2.778,8.718,-5.125,-23.46,-2.826,8.766,5.556,-23.46,-2.732,8.772,-5.752,17.595,-23.46,-23.46
6.1000000000000005,2.778,8.766,-5.125,-23.46,-2.826,8.909,5.652,-29.326,-2.732,8.772,-5.752,17.595,-23.46,-23.46
6.105,2.73,8.766,-5.221,-29.326,-2.778,8.862,5.7,-29.326,-2.732,8.772,-5.752,17.595,-29.326,-29.326
6.11,2.73,8.718,-5.221,-29.326,-2.826,8.766,5.652,-29.326,-2.732,8.628,-5.752,5.865,-29.326,-29.326
6.115,2.778,8.67,-5.173,-29.326,-2.874,8.718,5.556,-35.191,-2.732,8.628,-5.752,5.865,-29.326,-35.191
6.12,2.778,8.574,-5.077,-35.191,-2.874,8.622,5.556,-35.191,-2.876,8.628,-5.752,5.865,-29.326,-35.191
6.125,2.778,8.478,-5.077,-35.191,-2.874,8.574,5.509,-41.056,-2.732,8.484,-5.608,5.865,-29.326,-41.056
6.13,2.826,8.43,-5.077,-35.191,-2.922,8.478,5.461,-41.056,-2.876,8.34,-5.608,5.865,-29.326,-41.056
6.135,2.874,8.335,-4.982,-41.056,-2.922,8.383,5.461,-41.056,-2.876,8.34,-5.608,5.865,-29.326,-41.056
6.140000000000001,2.922,8.287,-4.982,-41.056,-2.922,8.287,5.413,-41.056,-3.02,8.34,-5.608,5.865,-29.326,-46.921
6.1450000000000005,2.922,8.191,-4.934,-41.056,-2.922,8.143,5.317,-46.921,-3.02,8.197,-5.464,0.0,-35.191,-46.921
