time_aligned_sec,L_Acc_X_aligned,L_Acc_Y_aligned,L_Acc_Z_aligned,L_Gyro_Z_aligned,R_Acc_X_aligned,R_Acc_Y_aligned,R_Acc_Z_aligned,R_Gyro_Z_aligned,T_Acc_X_aligned,T_Acc_Y_aligned,T_Acc_Z_aligned,T_Gyro_X_aligned,T_Gyro_Y_aligned,T_Gyro_Z_aligned
0.0,3.353,8.814,-6.993,5.865,-3.114,9.149,7.425,11.73,-2.876,9.203,-6.902,5.865,35.191,5.865
0.005,3.497,8.957,-7.425,11.73,-3.161,9.245,7.904,11.73,-2.876,9.347,-7.334,5.865,41.056,11.73
0.01,3.88,9.197,-7.856,11.73,-3.401,9.436,8.287,11.73,-2.876,9.347,-7.765,5.865,41.056,11.73
0.015,4.215,9.436,-8.239,11.73,-3.545,9.628,8.67,17.595,-3.02,9.491,-8.197,5.865,41.056,11.73
0.02,4.263,9.628,-8.574,11.73,-3.593,9.676,9.053,11.73,-3.02,9.635,-8.628,0.0,46.921,11.73
0.025,4.311,9.867,-9.005,11.73,-3.545,9.484,9.436,17.595,-3.02,9.635,-8.916,5.865,52.786,11.73
0.03,4.551,9.915,-9.436,11.73,-3.545,9.293,9.915,17.595,-2.876,9.059,-9.347,5.865,58.651,11.73
0.035,4.838,9.915,-9.772,17.595,-3.736,9.245,10.251,17.595,-2.732,8.628,-9.778,5.865,64.516,17.595
0.04,4.934,9.628,-10.203,23.46,-3.736,9.149,10.634,23.46,-2.732,8.484,-10.21,5.865,76.246,17.595
0.045,5.317,9.628,-10.299,29.326,-3.976,9.197,10.73,29.326,-2.588,8.628,-10.497,23.46,82.111,23.46
0.05,5.365,9.532,-10.251,29.326,-3.976,9.293,10.634,35.191,-2.732,8.772,-10.641,29.326,93.842,29.326
0.055,5.03,9.484,-10.251,35.191,-3.736,9.628,10.634,35.191,-2.732,9.059,-10.497,41.056,111.437,29.326
0.06,4.598,9.293,-10.059,35.191,-3.449,9.867,10.394,41.056,-2.588,9.635,-10.497,41.056,123.167,35.191
0.065,4.215,9.293,-9.628,41.056,-3.209,9.963,9.915,41.056,-2.445,10.354,-10.21,41.056,134.897,35.191
0.07,4.024,9.676,-9.101,35.191,-3.066,10.251,9.341,41.056,-2.301,10.497,-9.778,41.056,152.493,41.056
0.075,3.401,9.58,-8.335,35.191,-2.73,10.203,8.574,41.056,-2.157,10.641,-9.059,35.191,158.358,41.056
0.08,2.826,9.532,-7.76,29.326,-2.251,10.251,7.999,35.191,-2.013,10.641,-8.34,29.326,170.088,35.191
0.085,2.443,9.293,-7.137,23.46,-1.964,10.059,7.329,29.326,-1.726,10.785,-7.765,29.326,175.953,29.326
0.09,2.156,9.197,-6.467,17.595,-1.724,9.915,6.706,23.46,-1.582,10.641,-7.046,23.46,181.818,23.46
0.095,1.964,9.197,-5.748,11.73,-1.533,9.772,5.94,17.595,-1.438,10.354,-6.327,5.865,181.818,23.46
0.1,1.485,8.862,-5.077,-0.0,-1.102,9.293,5.269,5.865,-1.294,10.21,-5.608,5.865,187.683,11.73
0.105,0.862,8.574,-4.359,-0.0,-0.575,8.814,4.503,0.0,-0.863,9.635,-4.889,0.0,187.683,5.865
0.11,0.431,8.478,-3.353,-0.0,-0.144,8.43,3.545,0.0,-0.431,8.916,-4.17,0.0,187.683,0.0
0.115,0.0,8.526,-2.203,-5.865,0.287,8.239,2.395,0.0,0.0,8.197,-3.164,-5.865,193.548,0.0
0.12,-0.335,8.957,-1.15,-0.0,0.575,8.43,1.341,5.865,0.431,7.765,-2.013,0.0,193.548,0.0
0.125,-0.766,9.149,-0.048,-0.0,0.958,8.574,0.192,5.865,0.719,7.909,-0.863,0.0,193.548,0.0
0.13,-1.293,9.341,1.245,-0.0,1.389,8.718,-1.102,5.865,1.007,7.909,0.288,5.865,193.548,0.0
0.135,-1.916,9.053,2.778,-0.0,1.868,8.383,-2.635,5.865,1.294,8.053,1.582,17.595,187.683,0.0
0.14,-2.635,8.862,4.215,5.865,2.443,8.095,-4.072,11.73,1.726,7.621,3.02,23.46,187.683,5.865
0.145,-3.209,9.005,5.988,11.73,2.874,8.047,-5.892,17.595,2.157,7.334,4.602,35.191,181.818,11.73
0.15,-3.688,9.293,7.712,17.595,3.257,8.143,-7.616,23.46,2.301,7.046,6.471,46.921,181.818,17.595
0.155,-4.455,9.293,9.341,23.46,3.832,8.287,-9.245,23.46,2.732,7.046,8.197,58.651,170.088,17.595
0.16,-5.03,9.197,10.778,23.46,4.119,8.574,-10.73,29.326,3.02,7.334,9.778,70.381,164.223,23.46
0.165,-5.604,8.957,12.215,29.326,4.311,8.622,-12.215,35.191,3.02,7.909,11.36,82.111,152.493,29.326
0.17,-5.748,8.957,13.364,29.326,4.359,8.909,-13.364,35.191,2.876,8.197,12.798,93.842,134.897,29.326
0.17500000000000002,-6.035,8.862,14.37,29.326,4.263,9.293,-14.37,29.326,2.876,8.772,13.949,99.707,117.302,29.326
0.18,-6.131,8.622,14.753,23.46,4.167,9.58,-14.753,29.326,2.445,9.491,14.811,99.707,93.842,29.326
0.185,-5.988,8.622,15.041,17.595,4.024,9.963,-15.041,23.46,2.157,10.354,15.243,99.707,70.381,23.46
0.19,-5.509,8.574,15.184,5.865,3.449,10.203,-15.184,11.73,2.013,11.073,15.53,93.842,46.921,23.46
0.195,-5.748,8.43,14.562,-0.0,3.688,10.107,-14.562,5.865,1.438,11.504,15.53,82.111,17.595,5.865
0.2,-5.652,7.951,14.035,-5.865,3.497,9.82,-14.035,0.0,1.582,11.504,14.955,70.381,-11.73,5.865
0.20500000000000002,-4.838,7.329,13.412,-17.595,2.922,9.245,-13.412,-17.595,1.294,11.216,14.524,52.786,-41.056,-5.865
0.21,-4.742,6.754,12.31,-23.46,2.778,8.957,-12.31,-23.46,1.007,10.785,13.805,29.326,-70.381,-17.595
0.215,-4.407,6.323,10.969,-35.191,2.347,8.718,-11.065,-35.191,0.863,10.785,12.798,5.865,-99.707,-23.46
0.22,-3.928,6.514,9.388,-46.921,2.06,8.622,-9.484,-41.056,0.431,10.641,11.504,-11.73,-123.167,-35.191
0.225,-3.257,6.85,7.377,-52.786,1.724,8.335,-7.472,-46.921,0.288,10.354,10.066,-35.191,-152.493,-46.921
0.23,-2.587,7.281,4.934,-52.786,1.389,7.856,-5.077,-52.786,0.288,9.491,8.053,-52.786,-175.953,-52.786
0.23500000000000001,-1.437,7.568,2.108,-52.786,0.719,7.377,-2.203,-52.786,0.288,8.197,5.608,-70.381,-199.413,-52.786
0.24,-0.096,7.568,-1.15,-52.786,-0.192,7.089,1.102,-58.651,-0.144,7.19,2.732,-76.246,-217.009,-58.651
0.245,1.006,7.425,-4.79,-52.786,-1.102,6.946,4.742,-52.786,-0.719,6.615,-0.575,-76.246,-234.604,-58.651
0.25,2.922,7.233,-8.622,-46.921,-2.443,6.754,8.67,-52.786,-1.294,6.327,-4.314,-70.381,-240.469,-52.786
0.255,5.221,6.802,-12.55,-41.056,-4.072,6.61,12.694,-46.921,-2.013,6.183,-8.197,-64.516,-246.334,-52.786
0.26,7.329,6.371,-16.621,-35.191,-5.604,6.514,16.861,-41.056,-3.02,6.327,-12.367,-58.651,-246.334,-46.921
0.265,9.436,6.131,-20.405,-35.191,-7.137,6.562,20.693,-35.191,-4.026,6.615,-16.537,-52.786,-234.604,-41.056
0.27,11.64,6.083,-24.142,-35.191,-8.718,6.371,24.094,-35.191,-5.033,6.902,-20.707,-52.786,-222.874,-35.191
0.275,13.604,6.227,-24.525,-35.191,-10.059,5.988,24.477,-35.191,-5.896,6.615,-24.302,-52.786,-199.413,-35.191
0.28,15.041,6.227,-24.525,-29.326,-11.017,5.461,24.477,-29.326,-6.759,5.896,-27.322,-58.651,-164.223,-35.191
0.28500000000000003,15.759,6.179,-24.525,-29.326,-11.496,4.886,24.477,-23.46,-7.19,4.889,-29.479,-52.786,-123.167,-29.326
0.29,15.52,5.892,-24.525,-23.46,-11.304,4.311,24.477,-17.595,-7.478,3.883,-30.773,-46.921,-76.246,-23.46
0.295,15.041,5.413,-24.525,-11.73,-10.969,3.832,24.477,-5.865,-7.334,3.02,-31.061,-35.191,-29.326,-17.595
0.3,13.843,5.509,-24.525,-0.0,-10.251,4.072,24.477,5.865,-7.046,2.588,-30.198,-23.46,29.326,-11.73
0.305,13.173,5.844,-24.525,11.73,-9.628,4.646,24.477,17.595,-6.902,2.876,-28.76,-5.865,76.246,0.0
0.31,12.023,6.131,-24.525,23.46,-8.909,5.461,24.381,23.46,-6.327,3.739,-26.891,5.865,123.167,11.73
0.315,9.963,6.61,-21.938,23.46,-7.329,6.419,21.795,29.326,-6.04,4.889,-24.59,29.326,164.223,23.46
0.32,7.951,6.562,-18.394,29.326,-5.94,6.754,18.489,35.191,-4.745,6.183,-21.57,41.056,205.279,29.326
0.325,5.652,6.514,-15.041,35.191,-4.503,6.946,14.993,41.056,-4.026,6.759,-17.975,41.056,234.604,35.191
0.33,3.64,7.089,-11.113,35.191,-3.018,7.664,10.969,41.056,-3.307,7.19,-14.38,46.921,263.93,41.056
0.335,2.156,8.526,-7.616,35.191,-1.581,8.574,7.472,41.056,-2.445,8.053,-10.21,41.056,281.525,41.056
0.34,0.623,9.388,-3.784,35.191,-0.814,9.436,3.593,35.191,-1.15,8.484,-6.759,41.056,287.39,35.191
0.34500000000000003,-0.862,10.203,-0.24,35.191,0.383,10.299,0.0,41.056,-1.007,9.347,-2.876,41.056,293.255,35.191
0.35000000000000003,-2.491,10.873,3.114,41.056,1.868,10.969,-3.353,46.921,-0.144,10.21,0.863,41.056,293.255,35.191
0.355,-3.209,11.544,6.371,35.191,2.299,11.544,-6.61,41.056,1.15,10.929,4.17,41.056,281.525,41.056
0.36,-4.024,11.448,9.293,23.46,2.635,11.64,-9.532,29.326,1.15,11.504,7.334,41.056,269.795,35.191
0.365,-5.125,11.113,11.736,17.595,3.449,11.448,-11.975,23.46,1.15,11.648,10.354,46.921,258.064,23.46
0.37,-6.179,11.879,13.795,17.595,4.215,12.023,-13.987,23.46,1.726,11.504,12.654,46.921,234.604,17.595
0.375,-6.227,12.071,15.855,11.73,4.311,12.454,-16.047,17.595,2.157,11.935,14.668,46.921,211.144,17.595
0.38,-6.419,11.783,17.292,5.865,4.359,12.358,-17.436,11.73,2.301,12.654,16.681,46.921,187.683,11.73
0.385,-6.946,11.4,18.106,-0.0,4.694,12.119,-18.202,5.865,2.301,12.654,18.119,46.921,158.358,5.865
0.39,-6.85,11.209,18.681,-0.0,4.646,12.023,-18.777,5.865,2.445,12.511,18.838,41.056,129.032,5.865
0.395,-6.514,11.209,18.968,-11.73,4.407,12.023,-19.016,-5.865,2.445,12.654,19.413,35.191,93.842,0.0
0.4,-6.467,10.73,18.729,-17.595,4.359,11.544,-18.777,-11.73,2.301,12.654,19.557,29.326,64.516,-5.865
0.405,-6.419,10.251,18.25,-23.46,4.455,11.065,-18.25,-23.46,2.157,12.079,19.269,23.46,35.191,-17.595
0.41000000000000003,-6.179,9.772,17.484,-29.326,4.407,10.49,-17.484,-29.326,2.445,11.648,18.694,5.865,0.0,-23.46
0.41500000000000004,-5.892,9.053,16.669,-35.191,4.119,9.82,-16.669,-35.191,2.588,10.929,17.975,5.865,-29.326,-29.326
0.42,-4.694,8.814,14.083,-46.921,3.305,9.772,-14.035,-46.921,2.301,10.354,17.112,0.0,-52.786,-35.191
0.425,-5.604,7.664,13.268,-46.921,3.88,8.957,-13.316,-46.921,2.013,10.497,14.524,-5.865,-82.111,-46.921
0.43,-4.119,7.664,12.023,-52.786,2.97,8.478,-12.023,-52.786,2.013,9.922,13.805,-17.595,-105.572,-46.921
0.435,-4.024,9.101,11.257,-58.651,3.066,8.43,-11.209,-58.651,1.726,9.059,12.511,-29.326,-129.032,-58.651
0.44,-4.694,8.478,9.245,-46.921,3.497,7.281,-9.245,-46.921,2.157,7.621,11.648,-41.056,-146.628,-58.651
0.445,-3.88,7.472,6.898,-46.921,2.73,6.658,-6.85,-46.921,2.157,6.183,9.778,-35.191,-164.223,-46.921
0.45,-2.826,6.993,3.64,-41.056,2.012,6.61,-3.64,-46.921,1.582,5.752,7.334,-23.46,-181.818,-46.921
0.455,-1.677,6.131,-0.24,-35.191,1.198,6.131,0.287,-35.191,1.15,6.183,4.17,-11.73,-199.413,-41.056
0.46,0.862,5.796,-4.79,-17.595,-0.479,5.844,4.934,-17.595,0.719,5.896,0.144,0.0,-211.144,-35.191
0.465,2.06,4.598,-7.664,-11.73,-1.916,5.94,7.76,-11.73,-0.288,5.752,-4.602,0.0,-222.874,-17.595
0.47000000000000003,4.215,4.311,-11.161,-17.595,-3.114,5.988,11.4,-17.595,-1.869,7.046,-7.478,0.0,-222.874,-11.73
0.47500000000000003,5.556,4.024,-14.657,-23.46,-4.263,5.461,14.897,-23.46,-2.013,7.334,-11.216,-5.865,-222.874,-17.595
0.48,7.568,4.119,-17.1,-17.595,-5.604,4.886,17.436,-17.595,-3.02,6.615,-14.668,-23.46,-211.144,-23.46
0.485,9.101,4.072,-19.16,-23.46,-6.706,4.119,19.639,-23.46,-3.739,5.464,-17.256,-41.056,-199.413,-17.595
0.49,10.203,4.024,-21.172,-23.46,-7.425,3.353,21.699,-23.46,-4.314,4.026,-19.701,-46.921,-181.818,-23.46
0.495,11.352,3.88,-23.04,-17.595,-8.239,2.778,23.375,-11.73,-4.745,2.732,-21.714,-46.921,-152.493,-23.46
0.5,12.215,3.784,-24.525,-5.865,-8.909,2.395,24.381,0.0,-5.321,1.726,-23.439,-41.056,-123.167,-11.73
0.505,12.598,3.832,-24.525,11.73,-9.245,2.443,24.429,11.73,-5.896,1.15,-24.734,-35.191,-82.111,-5.865
0.51,12.262,4.215,-24.525,23.46,-9.005,3.114,24.429,29.326,-6.04,1.294,-25.453,-17.595,-41.056,11.73
0.515,11.592,4.838,-24.525,41.056,-8.766,4.119,24.285,41.056,-5.896,2.301,-25.309,-5.865,0.0,29.326
0.52,11.113,5.748,-24.094,46.921,-8.526,5.365,22.944,52.786,-6.04,3.595,-24.446,5.865,41.056,41.056
0.525,10.011,6.754,-20.837,52.786,-7.712,6.658,21.268,58.651,-6.04,5.033,-23.008,17.595,76.246,46.921
0.53,8.047,7.281,-18.298,52.786,-6.61,7.472,18.633,52.786,-5.464,6.615,-21.139,23.46,105.572,52.786
0.535,7.712,8.143,-15.568,46.921,-5.892,8.383,15.903,52.786,-5.177,7.621,-18.406,29.326,134.897,52.786
0.54,6.85,8.43,-13.795,41.056,-5.604,9.341,14.035,41.056,-4.17,8.628,-15.674,29.326,158.358,46.921
0.545,5.604,7.951,-12.55,46.921,-4.694,9.293,12.741,52.786,-4.458,10.066,-13.805,29.326,175.953,41.056
0.55,4.934,8.526,-10.49,52.786,-4.072,8.909,10.634,58.651,-3.739,10.354,-12.367,17.595,193.548,46.921
0.555,4.311,9.053,-7.425,46.921,-3.497,8.957,7.568,52.786,-3.307,9.203,-10.21,5.865,205.279,52.786
0.56,2.73,9.053,-4.551,29.326,-2.539,8.909,4.598,35.191,-2.876,8.772,-7.046,0.0,211.144,46.921
0.5650000000000001,1.293,10.155,-1.724,29.326,-1.341,9.628,1.772,35.191,-2.445,8.772,-4.17,5.865,217.009,29.326
0.5700000000000001,-0.048,10.682,1.102,35.191,-0.144,9.963,-1.054,41.056,-1.438,9.203,-1.294,5.865,222.874,29.326
0.5750000000000001,-0.527,11.448,3.88,35.191,0.0,10.682,-3.88,46.921,-0.575,9.347,1.726,5.865,217.009,35.191
0.58,-1.341,12.215,6.275,41.056,0.671,11.496,-6.323,46.921,-0.719,10.066,4.458,23.46,211.144,41.056
0.585,-2.395,12.406,8.574,41.056,1.293,12.119,-8.622,46.921,-0.144,10.785,6.902,29.326,205.279,41.056
0.59,-3.161,12.167,10.873,35.191,1.677,12.454,-10.921,41.056,0.0,11.792,9.347,41.056,193.548,41.056
0.595,-4.024,12.071,12.741,35.191,2.299,12.502,-12.837,41.056,0.0,12.511,11.504,46.921,175.953,41.056
0.6,-4.407,12.119,14.226,35.191,2.539,12.694,-14.274,35.191,0.431,12.798,13.373,46.921,158.358,35.191
0.605,-4.407,11.975,15.424,23.46,2.347,12.933,-15.472,29.326,0.575,13.086,14.811,46.921,129.032,35.191
0.61,-4.598,11.4,16.094,11.73,2.587,12.646,-16.094,17.595,0.288,13.661,15.962,41.056,105.572,23.46
0.615,-5.317,11.209,16.238,5.865,3.209,12.262,-16.238,11.73,0.575,13.661,16.537,35.191,76.246,11.73
0.62,-4.886,10.921,16.717,-0.0,2.778,11.783,-16.717,5.865,1.15,13.086,16.681,23.46,46.921,11.73
0.625,-4.119,11.4,16.382,-5.865,2.587,11.975,-16.382,-5.865,0.719,12.511,17.112,5.865,17.595,0.0
0.63,-4.407,11.065,15.472,-17.595,2.826,11.688,-15.472,-11.73,1.007,12.367,16.825,0.0,-11.73,-11.73
0.635,-4.215,10.634,14.61,-23.46,2.587,11.448,-14.61,-23.46,1.15,12.223,15.818,-5.865,-35.191,-17.595
0.64,-3.928,10.203,13.891,-35.191,2.347,11.113,-13.891,-29.326,0.863,12.079,15.099,-11.73,-64.516,-23.46
0.645,-3.88,10.107,12.694,-35.191,2.395,10.778,-12.694,-35.191,0.719,11.792,14.236,-17.595,-87.977,-35.191
0.65,-3.545,9.915,11.352,-35.191,2.156,10.394,-11.4,-41.056,0.863,11.216,13.23,-29.326,-111.437,-35.191
0.655,-3.018,9.963,9.58,-41.056,1.868,10.251,-9.628,-41.056,0.719,10.641,11.792,-35.191,-129.032,-41.056
0.66,-2.347,9.724,7.377,-41.056,1.341,10.059,-7.425,-41.056,0.575,10.354,10.066,-41.056,-152.493,-41.056
0.665,-1.581,9.101,4.79,-41.056,0.719,9.436,-4.838,-41.056,0.288,10.21,7.909,-41.056,-170.088,-41.056
0.67,-0.623,8.383,1.868,-35.191,0.192,8.718,-1.868,-35.191,-0.144,9.635,5.321,-41.056,-187.683,-41.056
0.675,0.814,8.143,-1.341,-29.326,-0.719,8.43,1.389,-35.191,-0.288,8.772,2.301,-46.921,-199.413,-35.191
0.68,2.491,7.568,-4.742,-35.191,-2.06,7.904,4.838,-35.191,-0.719,8.628,-1.007,-46.921,-211.144,-35.191
0.685,3.832,6.85,-8.143,-35.191,-2.97,6.993,8.335,-35.191,-1.726,8.053,-4.458,-46.921,-217.009,-35.191
0.6900000000000001,5.221,6.371,-11.4,-35.191,-3.88,6.227,11.64,-35.191,-2.157,7.046,-8.053,-52.786,-217.009,-35.191
0.6950000000000001,6.946,5.988,-14.322,-35.191,-5.125,5.461,14.657,-35.191,-2.732,6.04,-11.504,-52.786,-211.144,-35.191
0.7000000000000001,8.383,5.7,-17.005,-29.326,-6.179,4.79,17.484,-29.326,-3.451,4.889,-14.524,-46.921,-199.413,-35.191
0.705,9.58,5.509,-19.447,-23.46,-7.041,4.359,19.974,-23.46,-4.026,3.883,-17.4,-41.056,-181.818,-35.191
0.71,10.778,5.317,-21.363,-23.46,-8.047,4.167,21.938,-23.46,-4.602,3.307,-19.988,-35.191,-158.358,-23.46
0.715,11.688,4.742,-22.944,-23.46,-8.862,3.784,23.279,-17.595,-5.608,3.164,-22.001,-17.595,-129.032,-23.46
0.72,12.023,3.88,-24.477,-17.595,-9.053,3.257,24.046,-11.73,-6.183,3.02,-23.439,-5.865,-93.842,-23.46
0.725,12.071,3.161,-24.525,-5.865,-9.245,2.778,24.094,-5.865,-6.327,2.732,-24.158,5.865,-58.651,-11.73
0.73,11.879,2.778,-24.525,-0.0,-9.341,2.635,23.423,0.0,-6.615,2.445,-24.302,5.865,-23.46,-5.865
0.735,11.209,2.778,-21.89,5.865,-8.862,2.778,22.465,11.73,-6.902,2.588,-23.439,17.595,11.73,5.865
0.74,9.963,3.64,-20.645,23.46,-7.76,3.545,21.172,29.326,-6.471,2.876,-22.577,17.595,46.921,11.73
0.745,9.82,4.598,-18.729,35.191,-7.712,4.503,19.208,41.056,-5.608,3.451,-21.139,17.595,76.246,23.46
0.75,9.005,5.604,-16.717,41.056,-7.233,5.796,17.148,46.921,-5.752,4.458,-19.125,17.595,105.572,35.191
0.755,7.712,6.514,-14.897,41.056,-6.131,6.898,15.28,46.921,-5.464,6.04,-16.968,23.46,129.032,41.056
0.76,6.275,7.329,-12.741,41.056,-5.173,7.616,12.981,46.921,-4.602,7.19,-15.099,23.46,152.493,41.056
0.765,5.077,7.712,-9.867,41.056,-4.263,8.143,10.059,41.056,-4.17,7.909,-12.654,17.595,175.953,41.056
0.77,3.736,8.287,-6.993,35.191,-3.305,8.478,7.137,41.056,-3.451,8.484,-9.635,5.865,187.683,41.056
0.775,2.395,8.909,-4.119,35.191,-2.203,8.814,4.215,41.056,-2.876,8.628,-6.759,5.865,199.413,35.191
0.78,1.293,9.58,-1.293,35.191,-1.389,9.149,1.389,41.056,-2.013,8.628,-3.739,5.865,205.279,35.191
0.785,0.623,10.442,1.341,35.191,-0.862,9.724,-1.245,41.056,-1.582,8.772,-0.863,5.865,205.279,35.191
0.79,-0.24,10.969,3.784,35.191,-0.287,10.442,-3.736,41.056,-1.294,9.059,1.869,17.595,199.413,35.191
0.795,-1.15,11.352,5.892,41.056,0.24,11.161,-5.892,41.056,-1.007,9.922,4.314,23.46,199.413,35.191
0.8,-1.772,11.783,7.808,41.056,0.623,11.879,-7.808,46.921,-0.719,10.929,6.471,35.191,187.683,41.056
0.805,-2.203,12.31,9.532,46.921,0.862,12.598,-9.484,46.921,-0.575,11.935,8.34,35.191,175.953,46.921
0.81,-2.491,12.598,10.873,41.056,0.958,13.173,-10.825,46.921,-0.575,12.798,10.066,41.056,158.358,46.921
0.8150000000000001,-2.635,12.646,11.831,29.326,1.054,13.412,-11.831,35.191,-0.575,13.661,11.36,35.191,140.762,41.056
0.8200000000000001,-2.778,12.502,12.55,23.46,1.102,13.412,-12.502,23.46,-0.719,14.092,12.223,35.191,117.302,29.326
0.8250000000000001,-2.73,12.215,12.885,11.73,1.102,13.077,-12.837,11.73,-0.719,14.092,12.942,29.326,93.842,23.46
0.8300000000000001,-2.587,11.736,12.933,-0.0,0.958,12.694,-12.885,0.0,-0.719,13.805,13.23,17.595,70.381,11.73
0.835,-2.347,11.496,12.55,-11.73,0.814,12.454,-12.454,-5.865,-0.719,13.373,13.23,5.865,46.921,0.0
0.84,-2.156,11.352,11.879,-11.73,0.719,12.119,-11.783,-11.73,-0.863,13.23,12.798,0.0,23.46,-5.865
0.845,-1.677,11.257,11.304,-11.73,0.431,11.927,-11.209,-11.73,-0.863,12.798,12.079,-5.865,0.0,-11.73
0.85,-1.581,11.161,10.49,-17.595,0.431,11.64,-10.346,-11.73,-0.863,12.511,11.504,-17.595,-23.46,-11.73
0.855,-1.245,11.161,9.484,-17.595,0.335,11.257,-9.341,-17.595,-0.863,12.079,10.641,-23.46,-41.056,-17.595
0.86,-0.766,11.209,8.43,-23.46,0.048,10.969,-8.287,-23.46,-0.719,11.216,9.635,-29.326,-58.651,-17.595
0.865,-0.479,11.113,7.089,-29.326,-0.048,10.49,-6.898,-29.326,-0.719,10.641,8.628,-29.326,-76.246,-23.46
0.87,-0.048,10.873,5.556,-29.326,-0.24,10.107,-5.317,-23.46,-0.719,9.922,7.19,-29.326,-87.977,-23.46
0.875,0.575,10.682,3.832,-23.46,-0.623,9.915,-3.593,-23.46,-0.719,9.491,5.608,-23.46,-99.707,-23.46
0.88,1.389,10.538,2.251,-23.46,-1.198,9.963,-1.964,-23.46,-0.863,9.203,3.883,-11.73,-111.437,-23.46
0.885,1.916,9.101,-0.24,-23.46,-2.108,9.676,0.479,-23.46,-1.294,9.491,2.157,-5.865,-117.302,-23.46
0.89,3.114,10.155,0.0,-17.595,-1.916,8.862,0.431,-17.595,-2.445,10.066,-0.288,5.865,-117.302,-23.46
0.895,2.922,9.101,-2.108,-17.595,-2.635,8.718,2.443,-11.73,-1.007,7.765,-0.288,5.865,-123.167,-17.595
0.9,3.353,8.478,-3.593,-23.46,-3.066,8.862,3.928,-23.46,-2.445,8.484,-2.301,5.865,-117.302,-17.595
0.905,3.545,8.718,-4.742,-23.46,-3.114,8.622,5.077,-23.46,-2.732,9.203,-3.739,23.46,-111.437,-23.46
0.91,4.407,9.005,-5.269,-11.73,-3.545,8.335,5.652,-11.73,-2.732,8.484,-4.889,23.46,-111.437,-23.46
0.915,4.982,8.814,-5.892,-11.73,-4.024,8.287,6.323,-5.865,-2.732,7.765,-5.608,23.46,-105.572,-11.73
0.92,5.077,8.239,-6.658,-11.73,-4.167,8.335,7.089,-5.865,-3.307,7.765,-6.183,29.326,-99.707,-5.865
0.925,4.982,7.712,-7.425,-11.73,-4.263,8.239,7.856,-11.73,-3.451,8.484,-7.046,35.191,-93.842,-11.73
0.93,5.269,7.664,-7.76,-11.73,-4.503,8.143,8.191,-5.865,-3.595,8.628,-7.765,35.191,-82.111,-11.73
0.935,5.413,7.951,-7.808,-5.865,-4.503,8.095,8.335,-5.865,-3.883,8.484,-8.197,35.191,-76.246,-11.73
0.9400000000000001,5.604,8.239,-7.856,-5.865,-4.742,8.287,8.335,-5.865,-3.739,8.197,-8.197,29.326,-64.516,-5.865
0.9450000000000001,5.461,8.191,-7.76,-5.865,-4.79,8.383,8.191,-5.865,-4.026,8.34,-8.197,23.46,-58.651,-5.865
0.9500000000000001,5.221,8.143,-7.616,-11.73,-4.503,8.287,8.095,-5.865,-4.17,8.628,-8.197,23.46,-46.921,-11.73
0.9550000000000001,5.317,7.951,-7.233,-11.73,-4.694,8.239,7.712,-5.865,-3.883,8.484,-8.053,23.46,-41.056,-5.865
0.96,4.886,7.76,-6.658,-11.73,-4.407,8.047,7.137,-5.865,-4.17,8.484,-7.621,23.46,-35.191,-11.73
0.965,5.125,8.095,-6.419,-11.73,-4.263,7.999,6.898,-5.865,-4.026,8.34,-7.046,17.595,-29.326,-11.73
0.97,5.173,7.999,-6.131,-11.73,-4.598,7.808,6.61,-5.865,-3.595,7.909,-6.759,17.595,-23.46,-5.865
0.975,4.934,8.095,-5.652,-11.73,-4.119,7.904,6.179,-5.865,-4.026,7.621,-6.471,17.595,-17.595,-5.865
0.98,4.646,8.191,-5.365,-5.865,-4.119,7.808,5.796,0.0,-3.307,7.621,-6.183,17.595,-5.865,-5.865
0.985,4.79,8.383,-4.838,-5.865,-4.215,8.287,5.317,0.0,-3.739,7.478,-5.752,23.46,0.0,-5.865
0.99,4.694,8.67,-4.598,-5.865,-4.167,8.67,5.03,0.0,-3.739,8.197,-5.177,23.46,5.865,0.0
0.995,4.503,8.622,-4.263,-5.865,-4.167,8.909,4.694,0.0,-3.739,8.772,-4.889,29.326,11.73,0.0
1.0,4.167,8.622,-3.88,-11.73,-4.072,9.005,4.311,-5.865,-3.883,9.203,-4.602,29.326,17.595,-5.865
1.0050000000000001,3.976,8.718,-3.449,-11.73,-3.928,9.005,3.832,-5.865,-4.026,9.347,-4.17,29.326,17.595,-5.865
1.01,3.88,8.862,-2.97,-5.865,-3.784,8.957,3.353,-5.865,-3.883,9.347,-3.739,23.46,17.595,-5.865
1.0150000000000001,3.928,9.149,-2.587,-5.865,-3.832,9.101,2.97,-5.865,-3.739,9.059,-3.307,17.595,17.595,-5.865
1.02,3.88,9.245,-2.347,-5.865,-3.832,9.245,2.73,-5.865,-3.883,9.059,-2.876,17.595,17.595,-5.865
1.025,3.88,9.388,-2.203,-5.865,-3.784,9.388,2.635,-5.865,-3.883,9.203,-2.588,17.595,17.595,-5.865
1.03,4.024,9.532,-2.06,-5.865,-3.88,9.532,2.491,-5.865,-3.739,9.347,-2.445,17.595,17.595,-5.865
1.035,3.976,9.58,-1.916,-11.73,-3.784,9.628,2.347,-5.865,-3.883,9.635,-2.301,17.595,17.595,-5.865
1.04,3.88,9.628,-1.724,-11.73,-3.736,9.628,2.156,-5.865,-3.739,9.635,-2.157,17.595,17.595,-5.865
1.045,3.832,9.58,-1.533,-11.73,-3.736,9.628,1.964,-11.73,-3.595,9.635,-2.013,17.595,17.595,-11.73
1.05,3.688,9.628,-1.437,-11.73,-3.64,9.724,1.868,-11.73,-3.739,9.635,-1.869,17.595,17.595,-11.73
1.055,3.497,9.82,-1.341,-11.73,-3.449,9.82,1.724,-5.865,-3.739,9.778,-1.726,17.595,17.595,-11.73
1.06,3.545,10.059,-1.054,-5.865,-3.449,9.915,1.437,-5.865,-3.451,9.922,-1.582,17.595,17.595,-11.73
1.065,3.593,10.299,-0.814,-11.73,-3.449,10.059,1.198,-5.865,-3.451,9.778,-1.294,17.595,11.73,-5.865
1.07,3.545,10.394,-0.671,-11.73,-3.449,10.155,1.054,-11.73,-3.451,9.922,-1.007,23.46,11.73,-11.73
1.075,3.449,10.299,-0.623,-11.73,-3.449,10.203,1.006,-11.73,-3.451,9.922,-1.007,23.46,11.73,-11.73
1.08,3.449,10.251,-0.671,-11.73,-3.497,10.346,1.054,-11.73,-3.451,10.21,-0.863,29.326,5.865,-11.73
1.085,3.545,10.346,-0.719,-11.73,-3.593,10.538,1.102,-11.73,-3.595,10.497,-0.863,29.326,5.865,-11.73
1.09,3.736,10.538,-0.719,-17.595,-3.736,10.778,1.102,-11.73,-3.739,10.785,-1.007,29.326,5.865,-11.73
1.095,3.784,10.778,-0.814,-17.595,-3.784,10.921,1.15,-11.73,-3.883,10.929,-1.007,29.326,0.0,-11.73
1.1,3.832,10.825,-0.862,-17.595,-3.832,11.017,1.245,-17.595,-3.883,11.073,-1.007,23.46,0.0,-11.73
1.105,3.976,10.825,-0.958,-23.46,-3.976,10.969,1.341,-17.595,-4.026,11.216,-1.007,23.46,-5.865,-17.595
1.11,4.024,10.825,-1.15,-29.326,-4.024,10.921,1.533,-23.46,-4.026,11.216,-1.15,23.46,-5.865,-23.46
1.115,4.215,10.73,-1.293,-29.326,-4.119,10.73,1.677,-29.326,-4.026,10.929,-1.438,17.595,-11.73,-23.46
1.12,4.359,10.682,-1.485,-29.326,-4.215,10.634,1.868,-29.326,-4.17,10.785,-1.582,17.595,-11.73,-23.46
1.125,4.455,10.682,-1.629,-35.191,-4.263,10.586,2.012,-29.326,-4.17,10.641,-1.726,17.595,-11.73,-29.326
1.1300000000000001,4.551,10.682,-1.724,-35.191,-4.359,10.586,2.108,-35.191,-4.17,10.497,-1.869,23.46,-11.73,-35.191
1.135,4.694,10.73,-1.82,-35.191,-4.455,10.538,2.203,-35.191,-4.314,10.497,-2.013,23.46,-11.73,-35.191
1.1400000000000001,4.598,10.778,-1.964,-35.191,-4.407,10.538,2.347,-35.191,-4.314,10.497,-2.157,23.46,-11.73,-35.191
1.145,4.79,10.778,-2.012,-35.191,-4.503,10.586,2.395,-35.191,-4.314,10.354,-2.157,23.46,-11.73,-35.191
1.1500000000000001,4.838,10.778,-2.012,-35.191,-4.551,10.586,2.443,-35.191,-4.314,10.497,-2.301,29.326,-11.73,-35.191
1.155,4.886,10.778,-2.108,-35.191,-4.598,10.682,2.491,-35.191,-4.458,10.497,-2.301,29.326,-11.73,-35.191
1.16,4.838,10.682,-2.203,-41.056,-4.646,10.682,2.587,-35.191,-4.314,10.641,-2.445,29.326,-11.73,-41.056
1.165,4.838,10.538,-2.203,-41.056,-4.646,10.586,2.539,-41.056,-4.458,10.785,-2.445,35.191,-11.73,-41.056
1.17,4.934,10.442,-2.156,-41.056,-4.694,10.394,2.539,-41.056,-4.602,10.641,-2.445,35.191,-5.865,-41.056
1.175,4.886,10.203,-2.156,-46.921,-4.742,10.155,2.587,-46.921,-4.602,10.354,-2.445,35.191,-5.865,-46.921
1.18,4.886,10.011,-2.203,-46.921,-4.694,9.963,2.635,-46.921,-4.602,10.21,-2.445,35.191,-5.865,-46.921
1.185,4.886,9.915,-2.203,-46.921,-4.694,9.867,2.587,-46.921,-4.602,10.066,-2.445,35.191,-5.865,-46.921
1.19,4.934,9.724,-2.156,-46.921,-4.742,9.772,2.539,-46.921,-4.602,9.922,-2.445,35.191,-5.865,-46.921
1.195,4.886,9.484,-2.156,-46.921,-4.742,9.676,2.539,-46.921,-4.602,9.922,-2.445,35.191,-5.865,-46.921
1.2,4.838,9.293,-2.156,-52.786,-4.742,9.58,2.539,-46.921,-4.745,9.922,-2.445,35.191,-5.865,-46.921
1.205,4.886,9.197,-2.06,-52.786,-4.79,9.484,2.443,-52.786,-4.745,9.922,-2.445,35.191,-5.865,-52.786
1.21,4.838,9.101,-2.012,-52.786,-4.742,9.245,2.395,-52.786,-4.745,9.778,-2.301,29.326,-5.865,-52.786
1.215,4.79,8.862,-1.868,-58.651,-4.646,8.957,2.299,-52.786,-4.602,9.491,-2.301,29.326,-5.865,-52.786
1.22,4.551,8.574,-1.772,-58.651,-4.455,8.622,2.203,-58.651,-4.602,9.059,-2.157,29.326,-5.865,-58.651
1.225,4.503,8.383,-1.724,-58.651,-4.407,8.287,2.156,-58.651,-4.458,8.628,-2.013,23.46,-5.865,-58.651
1.23,4.503,8.191,-1.677,-58.651,-4.407,8.047,2.06,-58.651,-4.314,8.34,-2.013,23.46,-5.865,-64.516
1.235,4.407,8.047,-1.629,-58.651,-4.263,7.808,2.06,-58.651,-4.314,7.909,-2.013,23.46,-5.865,-58.651
1.24,4.455,7.904,-1.485,-58.651,-4.263,7.616,1.916,-52.786,-4.17,7.765,-1.869,29.326,-5.865,-58.651
1.245,4.455,7.664,-1.341,-58.651,-4.311,7.52,1.772,-52.786,-4.17,7.478,-1.869,29.326,-5.865,-58.651
1.25,4.359,7.377,-1.389,-58.651,-4.215,7.377,1.82,-58.651,-4.17,7.478,-1.582,29.326,-5.865,-58.651
1.2550000000000001,4.263,7.185,-1.293,-58.651,-4.167,7.329,1.724,-52.786,-4.17,7.478,-1.726,35.191,0.0,-58.651
1.26,4.167,6.993,-1.15,-52.786,-4.119,7.185,1.581,-52.786,-4.17,7.478,-1.582,35.191,0.0,-58.651
1.2650000000000001,4.072,6.898,-1.006,-52.786,-4.024,7.041,1.437,-52.786,-4.17,7.478,-1.438,29.326,0.0,-52.786
1.27,3.928,6.754,-0.91,-52.786,-3.88,6.802,1.341,-52.786,-4.026,7.19,-1.294,29.326,0.0,-58.651
1.2750000000000001,3.784,6.61,-0.862,-52.786,-3.784,6.562,1.245,-52.786,-3.883,6.902,-1.15,29.326,0.0,-52.786
1.28,3.688,6.371,-0.766,-52.786,-3.736,6.371,1.245,-52.786,-3.883,6.615,-1.15,29.326,0.0,-58.651
1.285,3.688,6.179,-0.814,-52.786,-3.688,6.179,1.245,-52.786,-3.739,6.327,-1.007,23.46,-5.865,-52.786
1.29,3.593,6.083,-0.862,-46.921,-3.593,6.083,1.293,-46.921,-3.739,6.183,-1.15,23.46,-5.865,-52.786
1.295,3.64,5.892,-0.91,-46.921,-3.593,5.94,1.389,-46.921,-3.595,6.183,-1.15,23.46,-5.865,-52.786
1.3,3.593,5.7,-0.958,-46.921,-3.545,5.748,1.389,-46.921,-3.595,6.04,-1.294,23.46,-5.865,-46.921
1.305,3.64,5.556,-0.91,-46.921,-3.545,5.556,1.341,-46.921,-3.595,5.896,-1.294,23.46,-5.865,-46.921
1.31,3.593,5.365,-0.91,-41.056,-3.497,5.269,1.341,-41.056,-3.451,5.608,-1.294,23.46,-5.865,-46.921
1.315,3.401,5.077,-0.91,-41.056,-3.401,4.982,1.389,-41.056,-3.451,5.177,-1.15,23.46,-5.865,-41.056
1.32,3.305,4.838,-0.91,-41.056,-3.305,4.79,1.341,-35.191,-3.451,5.033,-1.15,23.46,-5.865,-41.056
1.325,3.305,4.694,-0.814,-35.191,-3.209,4.646,1.293,-35.191,-3.307,4.745,-1.15,23.46,-5.865,-41.056
1.33,3.209,4.503,-0.862,-29.326,-3.161,4.503,1.293,-29.326,-3.164,4.602,-1.15,29.326,-5.865,-35.191
1.335,3.114,4.119,-0.814,-29.326,-3.114,4.263,1.293,-29.326,-3.164,4.602,-1.15,23.46,-5.865,-35.191
1.34,3.018,3.593,-0.862,-23.46,-3.066,3.88,1.341,-23.46,-3.164,4.458,-1.15,23.46,-5.865,-23.46
1.345,3.018,3.066,-0.958,-23.46,-3.018,3.401,1.437,-17.595,-3.164,4.026,-1.15,23.46,-5.865,-23.46
1.35,2.922,2.443,-1.006,-17.595,-2.922,2.826,1.485,-11.73,-3.02,3.739,-1.294,23.46,-11.73,-17.595
1.355,3.114,2.06,-0.958,-11.73,-3.018,2.203,1.437,-11.73,-2.876,3.164,-1.294,17.595,-11.73,-17.595
1.36,2.97,1.485,-1.15,-5.865,-2.826,1.533,1.629,-5.865,-2.876,2.301,-1.294,5.865,-11.73,-11.73
1.365,2.778,0.862,-1.389,-0.0,-2.778,1.054,1.868,5.865,-2.732,1.582,-1.582,5.865,-5.865,-5.865
1.37,2.73,0.383,-1.581,11.73,-2.778,0.766,2.108,17.595,-2.732,1.294,-1.726,5.865,-5.865,5.865
1.375,2.73,0.335,-1.82,23.46,-2.682,0.719,2.347,23.46,-2.732,1.15,-2.013,5.865,-5.865,11.73
1.3800000000000001,2.635,0.431,-2.012,29.326,-2.635,0.671,2.539,35.191,-2.732,1.007,-2.157,0.0,-5.865,23.46
1.385,2.395,0.479,-2.203,41.056,-2.395,0.623,2.73,41.056,-2.588,0.863,-2.445,-5.865,-5.865,29.326
1.3900000000000001,2.012,0.192,-2.587,46.921,-2.012,0.24,3.114,46.921,-2.301,0.719,-2.588,-5.865,0.0,41.056
1.395,1.533,-0.575,-3.018,52.786,-1.581,-0.431,3.545,58.651,-2.013,0.144,-3.02,-11.73,0.0,46.921
1.4000000000000001,1.198,-1.581,-3.449,58.651,-1.245,-1.389,3.976,64.516,-1.726,-0.431,-3.307,-11.73,0.0,52.786
1.405,1.006,-2.443,-3.784,70.381,-0.91,-2.347,4.359,70.381,-1.294,-1.294,-3.883,-11.73,0.0,58.651
1.41,1.102,-3.018,-3.88,82.111,-0.719,-3.401,4.503,82.111,-0.719,-2.445,-4.17,-17.595,0.0,70.381
1.415,0.671,-3.976,-4.215,93.842,-0.24,-4.598,4.838,99.707,-0.431,-3.883,-4.314,-17.595,0.0,82.111
1.42,-0.048,-5.365,-4.742,105.572,0.431,-5.844,5.365,111.437,0.144,-5.321,-4.745,-17.595,5.865,93.842
1.425,-0.623,-6.61,-5.173,123.167,0.958,-6.898,5.844,129.032,0.863,-6.471,-5.177,-11.73,11.73,105.572
1.43,-0.814,-7.377,-5.173,140.762,1.389,-7.76,5.844,146.628,1.438,-7.478,-5.752,0.0,17.595,123.167
1.435,-1.102,-7.281,-5.03,170.088,1.724,-7.856,5.7,170.088,2.013,-8.34,-5.752,0.0,23.46,140.762
1.44,-1.677,-7.041,-4.694,187.683,2.395,-7.568,5.365,193.548,2.445,-8.628,-5.608,5.865,35.191,170.088
1.445,-2.347,-6.802,-4.742,211.144,3.018,-6.993,5.413,217.009,3.164,-8.197,-5.177,5.865,41.056,187.683
1.45,-2.73,-5.269,-4.79,228.739,3.305,-4.838,5.365,240.469,3.739,-7.334,-5.177,17.595,52.786,211.144
1.455,-2.682,-2.826,-4.167,252.199,3.209,-1.389,4.694,258.064,4.026,-4.602,-5.177,23.46,58.651,234.604
1.46,-2.97,0.431,-3.784,258.064,3.209,2.443,4.263,269.795,3.739,-0.431,-4.458,23.46,70.381,252.199
1.465,-3.449,3.64,-3.353,258.064,3.257,6.467,3.736,269.795,3.451,4.026,-4.026,5.865,76.246,263.93
1.47,2.73,23.423,12.694,234.604,-10.203,24.046,-14.657,240.469,3.02,8.772,-3.595,-5.865,76.246,258.064
1.475,-4.646,24.094,21.603,-76.246,-4.551,24.429,-22.944,-76.246,-17.831,72.331,15.674,-35.191,35.191,234.604
1.48,-5.413,24.094,24.237,-258.064,3.688,16.142,-24.525,-258.064,-14.524,66.004,28.041,-263.93,-29.326,-93.842
1.485,0.958,10.346,12.741,-299.12,-0.766,2.443,-12.741,-304.985,1.726,4.745,28.904,-299.12,-76.246,-263.93
1.49,12.741,5.413,-10.251,-234.604,-11.879,3.593,10.73,-234.604,-0.863,-4.458,12.942,-211.144,-164.223,-304.985
1.495,23.854,10.586,-17.963,-111.437,-23.04,10.49,18.585,-111.437,-10.785,2.588,-10.785,-123.167,-181.818,-234.604
1.5,23.998,14.035,-16.861,-11.73,-24.525,10.011,17.723,-11.73,-19.557,11.36,-18.982,-87.977,-175.953,-105.572
1.5050000000000001,20.932,15.232,-11.065,58.651,-15.28,9.293,11.879,58.651,-16.681,7.19,-18.119,-87.977,-123.167,-5.865
1.51,12.358,18.777,-6.754,105.572,-9.484,15.041,7.233,105.572,-10.066,4.889,-11.935,-70.381,-35.191,58.651
1.5150000000000001,7.52,22.705,-5.413,123.167,-7.281,22.13,5.556,123.167,-7.046,12.511,-7.19,-17.595,41.056,105.572
1.52,4.598,23.854,-4.934,129.032,-4.598,23.375,5.077,134.897,-7.19,22.001,-5.464,23.46,82.111,123.167
1.5250000000000001,5.844,20.932,-4.407,140.762,-6.562,20.693,4.551,146.628,-4.889,22.864,-4.889,41.056,93.842,129.032
1.53,3.784,14.418,-4.982,117.302,-4.694,15.951,5.173,117.302,-7.334,20.42,-4.314,52.786,87.977,140.762
1.5350000000000001,1.82,8.478,-5.365,76.246,-2.97,11.161,5.652,82.111,-5.608,17.112,-5.033,58.651,70.381,117.302
1.54,1.15,5.988,-3.497,58.651,-2.203,8.143,3.784,64.516,-4.026,13.086,-5.464,52.786,58.651,76.246
1.545,1.533,7.377,-2.251,52.786,-1.677,8.335,2.682,58.651,-3.02,9.778,-3.595,29.326,41.056,58.651
1.55,2.73,9.676,-2.203,41.056,-2.443,10.394,2.587,46.921,-1.869,9.059,-2.588,5.865,29.326,58.651
1.555,2.156,11.352,-1.485,23.46,-2.012,12.071,1.868,23.46,-2.301,11.073,-2.445,-5.865,23.46,41.056
1.56,1.533,12.454,0.096,-0.0,-1.485,12.215,0.287,5.865,-2.013,12.654,-1.726,-11.73,23.46,23.46
1.565,1.437,11.496,1.245,-11.73,-1.533,11.017,-0.862,-11.73,-1.726,11.935,-0.144,-17.595,23.46,5.865
1.57,1.677,9.676,1.341,-17.595,-1.629,9.149,-0.91,-11.73,-1.726,10.497,1.007,-17.595,17.595,-11.73
1.575,3.161,8.095,1.054,-11.73,-2.778,7.52,-0.575,-11.73,-1.726,8.628,1.15,-11.73,11.73,-17.595
1.58,4.359,7.281,0.575,-17.595,-3.545,6.706,-0.096,-11.73,-2.588,7.046,0.719,-5.865,11.73,-11.73
1.585,4.072,6.706,0.335,-23.46,-3.64,6.658,0.144,-23.46,-2.876,6.327,0.144,0.0,11.73,-11.73
1.59,2.826,7.041,0.479,-35.191,-2.826,7.281,-0.096,-29.326,-3.307,6.759,-0.0,5.865,17.595,-23.46
1.595,2.203,7.472,1.054,-35.191,-2.635,7.808,-0.623,-35.191,-3.02,7.621,0.288,5.865,23.46,-35.191
1.6,2.156,7.999,1.006,-35.191,-2.682,8.335,-0.623,-35.191,-3.02,8.053,0.863,5.865,23.46,-35.191
1.605,2.395,8.287,0.383,-35.191,-2.73,8.67,0.048,-29.326,-3.164,8.628,0.863,5.865,17.595,-35.191
1.61,2.73,8.095,-0.479,-35.191,-3.018,8.478,0.862,-29.326,-3.164,9.059,0.144,5.865,5.865,-35.191
1.615,3.161,8.047,-1.054,-35.191,-3.161,8.143,1.485,-35.191,-3.307,8.772,-0.719,0.0,0.0,-35.191
1.62,3.449,8.047,-1.533,-35.191,-3.353,7.904,1.964,-35.191,-3.307,8.197,-1.294,-5.865,-5.865,-35.191
1.625,3.736,8.239,-1.916,-29.326,-3.593,7.999,2.347,-29.326,-3.307,7.765,-1.869,-5.865,-5.865,-35.191
1.6300000000000001,3.928,8.526,-2.06,-29.326,-3.736,8.287,2.539,-23.46,-3.451,7.765,-2.157,-5.865,-5.865,-35.191
1.635,3.976,8.718,-2.156,-23.46,-3.832,8.574,2.587,-17.595,-3.595,8.197,-2.445,0.0,-5.865,-23.46
1.6400000000000001,3.976,8.67,-2.156,-17.595,-3.832,8.67,2.587,-11.73,-3.739,8.484,-2.445,0.0,-5.865,-23.46
1.645,4.119,8.718,-2.012,-11.73,-3.928,8.718,2.443,-5.865,-3.739,8.628,-2.445,0.0,-5.865,-17.595
1.6500000000000001,4.167,8.67,-2.012,-5.865,-3.976,8.766,2.395,-5.865,-3.739,8.772,-2.301,0.0,-5.865,-11.73
1.655,4.167,8.622,-2.012,-5.865,-3.928,8.718,2.443,0.0,-3.883,8.772,-2.301,0.0,-5.865,-5.865
1.6600000000000001,4.072,8.622,-1.916,-0.0,-3.832,8.67,2.347,0.0,-3.739,8.772,-2.301,0.0,-5.865,0.0
1.665,3.88,8.67,-1.868,-0.0,-3.64,8.718,2.299,5.865,-3.595,8.772,-2.157,0.0,-5.865,0.0
1.67,3.736,8.814,-1.916,5.865,-3.688,8.814,2.299,5.865,-3.595,8.772,-2.157,0.0,0.0,5.865
1.675,3.784,9.053,-1.916,5.865,-3.449,9.197,2.347,11.73,-3.739,8.916,-2.157,0.0,0.0,5.865
1.68,3.497,9.101,-2.156,5.865,-3.401,9.245,2.587,11.73,-3.164,9.347,-2.301,0.0,0.0,5.865
1.685,3.64,9.293,-2.156,11.73,-3.449,9.293,2.587,11.73,-3.451,9.347,-2.445,-5.865,0.0,5.865
1.69,3.736,9.293,-2.299,11.73,-3.497,9.293,2.73,11.73,-3.451,9.347,-2.445,-5.865,0.0,11.73
1.695,3.688,9.388,-2.491,11.73,-3.449,9.341,2.922,11.73,-3.307,9.347,-2.588,-5.865,0.0,11.73
1.7,3.688,9.436,-2.587,5.865,-3.497,9.388,3.018,11.73,-3.307,9.347,-2.732,-5.865,0.0,11.73
1.705,3.64,9.484,-2.635,5.865,-3.449,9.436,3.066,11.73,-3.451,9.347,-2.876,-5.865,0.0,11.73
1.71,3.736,9.58,-2.73,5.865,-3.497,9.484,3.161,11.73,-3.307,9.347,-3.02,-5.865,0.0,5.865
1.715,4.934,10.682,-3.353,5.865,-4.742,10.011,3.736,5.865,-3.451,9.347,-3.02,0.0,0.0,5.865
1.72,5.03,10.107,-3.736,-11.73,-4.359,10.394,4.167,-5.865,-4.889,9.491,-3.595,0.0,0.0,5.865
1.725,4.167,9.293,-4.838,-17.595,-4.119,10.107,5.221,-17.595,-3.883,10.785,-4.17,5.865,5.865,-11.73
1.73,4.934,9.388,-4.838,-17.595,-4.646,10.011,5.221,-11.73,-4.17,10.785,-5.177,5.865,5.865,-17.595
1.735,5.509,10.107,-4.694,-11.73,-5.03,10.155,5.125,-11.73,-4.458,10.497,-5.177,-5.865,5.865,-17.595
1.74,5.461,10.538,-4.934,-17.595,-4.982,10.394,5.365,-11.73,-4.602,10.21,-5.033,-11.73,11.73,-11.73
1.745,5.317,10.73,-5.221,-17.595,-4.934,10.634,5.652,-11.73,-4.602,10.21,-5.321,-11.73,17.595,-17.595
1.75,5.509,10.825,-5.461,-17.595,-5.125,10.825,5.892,-17.595,-4.602,10.497,-5.608,-11.73,17.595,-17.595
1.7550000000000001,5.748,10.969,-5.748,-17.595,-5.317,10.921,6.227,-17.595,-4.889,10.929,-5.896,-11.73,23.46,-17.595
1.76,6.035,11.065,-6.083,-17.595,-5.461,11.017,6.514,-17.595,-4.889,10.929,-6.183,-11.73,23.46,-17.595
1.7650000000000001,6.323,11.065,-6.275,-17.595,-5.7,11.065,6.754,-17.595,-5.033,11.073,-6.471,-5.865,29.326,-17.595
1.77,6.227,10.969,-6.467,-23.46,-5.652,11.017,6.898,-17.595,-5.177,11.073,-6.615,-5.865,29.326,-17.595
1.7750000000000001,6.131,10.778,-6.514,-23.46,-5.509,10.873,6.946,-17.595,-5.177,11.073,-6.759,-5.865,35.191,-23.46
1.78,6.371,10.825,-6.562,-23.46,-5.509,10.682,6.993,-23.46,-5.033,10.929,-6.902,-5.865,41.056,-23.46
1.7850000000000001,6.61,10.921,-6.514,-23.46,-5.7,10.442,6.946,-23.46,-4.745,10.641,-6.902,-11.73,46.921,-23.46
1.79,6.275,10.634,-6.371,-29.326,-5.413,10.155,6.802,-29.326,-4.889,10.066,-6.902,-5.865,52.786,-23.46
1.795,5.796,9.963,-6.083,-29.326,-5.077,9.628,6.514,-29.326,-4.602,9.778,-6.759,-5.865,64.516,-23.46
1.8,5.365,9.388,-5.652,-29.326,-4.742,9.149,6.035,-29.326,-4.458,9.347,-6.471,0.0,70.381,-29.326
1.805,5.173,8.862,-5.03,-29.326,-4.598,8.718,5.461,-23.46,-4.314,8.916,-5.896,5.865,76.246,-23.46
1.81,4.934,8.383,-4.551,-23.46,-4.407,8.335,4.934,-23.46,-4.026,8.628,-5.321,5.865,82.111,-23.46
1.815,4.455,7.904,-3.928,-23.46,-4.024,8.047,4.311,-23.46,-3.883,8.34,-4.745,5.865,87.977,-23.46
1.82,4.024,7.616,-3.209,-23.46,-3.736,7.76,3.593,-23.46,-3.739,8.197,-4.17,5.865,93.842,-23.46
1.825,3.64,7.425,-2.347,-23.46,-3.401,7.568,2.682,-23.46,-3.451,7.909,-3.451,5.865,99.707,-23.46
1.83,3.161,7.281,-1.293,-23.46,-2.97,7.281,1.677,-23.46,-3.164,7.621,-2.445,5.865,105.572,-23.46
1.835,2.682,7.281,-0.144,-23.46,-2.539,6.946,0.479,-17.595,-2.876,7.334,-1.438,5.865,105.572,-23.46
1.84,2.251,7.329,1.198,-23.46,-2.156,6.754,-0.814,-17.595,-2.445,6.615,-0.288,5.865,105.572,-23.46
1.845,1.772,7.472,2.491,-17.595,-1.724,6.706,-2.156,-17.595,-2.157,6.183,1.15,5.865,105.572,-17.595
1.85,1.293,7.616,3.88,-17.595,-1.245,6.706,-3.545,-11.73,-1.869,6.04,2.445,17.595,105.572,-17.595
1.855,0.719,7.76,5.413,-11.73,-0.719,6.658,-5.125,-11.73,-1.438,5.896,3.883,23.46,105.572,-17.595
1.86,0.0,7.616,6.993,-11.73,-0.192,6.514,-6.754,-5.865,-1.007,5.752,5.464,35.191,99.707,-11.73
1.865,-0.766,7.377,8.67,-5.865,0.335,6.419,-8.43,-5.865,-0.575,5.608,7.046,46.921,99.707,-11.73
1.87,-1.581,7.185,10.394,-5.865,0.814,6.371,-10.203,0.0,-0.288,5.608,8.916,58.651,93.842,-5.865
1.875,-2.347,6.946,12.071,-0.0,1.341,6.419,-11.879,5.865,0.0,5.752,10.641,70.381,87.977,0.0
1.8800000000000001,-3.114,6.514,13.46,5.865,1.724,6.419,-13.364,5.865,0.288,5.896,12.367,76.246,76.246,0.0
1.885,-3.736,6.035,14.514,5.865,2.06,6.419,-14.418,11.73,0.288,6.327,13.805,87.977,64.516,5.865
1.8900000000000001,-4.119,5.652,15.136,11.73,2.203,6.467,-15.089,11.73,0.288,6.759,14.811,87.977,46.921,11.73
1.895,-4.359,5.221,15.376,11.73,2.251,6.419,-15.328,11.73,0.288,7.19,15.53,87.977,23.46,11.73
1.9000000000000001,-4.455,4.694,15.041,5.865,2.251,6.275,-15.041,11.73,0.144,7.478,15.818,82.111,-5.865,11.73
1.905,-4.311,4.215,14.226,-0.0,2.108,6.083,-14.226,5.865,0.0,7.621,15.53,70.381,-29.326,5.865
1.9100000000000001,-4.167,3.736,13.22,-0.0,1.916,5.748,-13.22,0.0,0.0,7.621,14.668,52.786,-58.651,5.865
1.915,-3.928,3.593,11.592,-5.865,1.82,5.413,-11.592,0.0,-0.288,7.334,13.661,35.191,-87.977,0.0
1.92,-3.449,3.784,9.388,-5.865,1.629,5.173,-9.388,-5.865,-0.144,6.902,12.079,5.865,-117.302,-5.865
1.925,-2.635,4.215,6.706,-5.865,1.293,5.03,-6.706,-5.865,-0.144,6.327,9.922,-5.865,-140.762,-5.865
1.93,-1.341,4.742,3.593,-11.73,0.671,4.934,-3.545,-5.865,0.0,5.608,7.19,-23.46,-170.088,-11.73
1.935,-0.096,5.173,0.192,-5.865,-0.144,4.982,-0.096,-5.865,0.0,5.033,4.026,-35.191,-187.683,-11.73
1.94,1.485,5.796,-3.401,-0.0,-1.102,5.221,3.593,0.0,-0.431,4.745,0.431,-41.056,-199.413,-5.865
1.945,3.161,6.467,-7.089,5.865,-2.251,5.748,7.329,5.865,-0.863,4.745,-3.307,-41.056,-205.279,0.0
1.95,4.982,7.185,-10.586,11.73,-3.593,6.706,10.921,11.73,-1.582,5.177,-7.046,-35.191,-211.144,5.865
1.955,6.323,7.856,-13.843,17.595,-4.598,7.425,14.226,17.595,-2.445,6.183,-10.785,-29.326,-199.413,11.73
1.96,8.095,8.383,-16.478,17.595,-6.035,8.143,16.909,17.595,-3.02,7.046,-14.092,-17.595,-187.683,17.595
1.965,9.293,8.622,-18.681,17.595,-7.089,8.574,19.16,17.595,-4.17,7.909,-16.825,-17.595,-170.088,17.595
1.97,10.107,8.766,-20.405,17.595,-7.808,8.766,20.884,17.595,-5.033,8.484,-19.269,-11.73,-152.493,17.595
1.975,10.825,9.101,-21.507,17.595,-8.478,9.101,22.034,17.595,-5.608,8.772,-20.995,-11.73,-129.032,17.595
1.98,11.352,9.484,-22.274,17.595,-9.005,9.436,22.705,17.595,-6.327,9.059,-22.145,-5.865,-99.707,17.595
1.985,11.592,9.772,-22.705,17.595,-9.293,9.867,22.992,17.595,-6.759,9.491,-22.864,-5.865,-70.381,17.595
1.99,11.64,9.915,-22.561,17.595,-9.388,10.059,22.896,23.46,-7.046,10.066,-23.152,-5.865,-46.921,17.595
1.995,11.544,9.915,-21.938,17.595,-9.436,10.203,22.417,17.595,-7.19,10.21,-23.008,-5.865,-17.595,17.595
2.0,11.257,9.915,-21.268,17.595,-9.149,10.299,21.795,23.46,-7.334,10.497,-22.577,-5.865,11.73,17.595
2.005,11.161,9.915,-20.31,17.595,-9.149,10.394,20.789,17.595,-7.19,10.641,-21.858,-11.73,35.191,17.595
2.0100000000000002,10.778,9.82,-19.016,11.73,-8.862,10.251,19.447,17.595,-7.334,10.929,-20.851,-11.73,64.516,17.595
2.015,9.436,9.532,-17.1,11.73,-7.856,9.58,17.484,11.73,-7.046,10.641,-19.413,-17.595,87.977,11.73
2.02,8.191,8.814,-14.37,11.73,-6.898,8.622,14.753,11.73,-6.327,9.635,-17.4,-23.46,111.437,11.73
2.025,6.61,8.239,-12.119,11.73,-5.796,8.143,12.454,17.595,-5.608,8.484,-14.524,-23.46,129.032,11.73
2.0300000000000002,5.796,8.335,-9.388,23.46,-4.886,8.095,9.724,23.46,-5.033,8.053,-12.223,-23.46,146.628,11.73
2.035,6.467,10.825,-6.323,29.326,-4.742,9.149,6.61,35.191,-4.026,7.765,-9.491,-17.595,158.358,23.46
2.04,5.077,10.778,-3.928,23.46,-4.311,9.867,4.167,23.46,-3.307,7.765,-6.327,-17.595,164.223,29.326
2.045,2.491,9.915,-1.677,5.865,-2.491,10.107,1.772,11.73,-3.739,9.203,-3.883,0.0,181.818,23.46
2.05,0.91,9.484,1.437,5.865,-1.437,9.82,-1.341,11.73,-2.588,10.21,-1.294,5.865,187.683,11.73
2.055,0.0,9.676,5.03,11.73,-0.671,9.245,-4.934,11.73,-2.013,10.066,1.869,17.595,187.683,5.865
2.06,-0.958,9.963,8.43,11.73,0.096,8.957,-8.383,17.595,-1.438,8.772,5.464,5.865,181.818,11.73
2.065,-2.156,9.82,11.017,11.73,0.958,9.005,-10.969,17.595,-0.863,8.053,8.916,17.595,170.088,17.595
2.07,-3.449,9.197,12.933,11.73,1.772,9.197,-12.933,17.595,-0.431,8.34,11.504,29.326,158.358,17.595
2.075,-4.119,8.718,14.562,11.73,2.108,9.293,-14.562,17.595,0.0,9.203,13.517,35.191,140.762,17.595
2.08,-4.455,8.478,15.759,11.73,2.347,9.293,-15.759,17.595,0.0,9.778,15.099,41.056,117.302,17.595
2.085,-4.598,8.287,16.573,11.73,2.443,9.197,-16.573,11.73,0.288,9.922,16.249,35.191,93.842,11.73
2.09,-4.694,7.999,16.957,5.865,2.539,8.862,-16.909,11.73,0.288,9.922,16.968,29.326,64.516,11.73
2.095,-4.79,7.664,16.765,5.865,2.635,8.526,-16.717,5.865,0.431,9.635,17.4,23.46,35.191,5.865
2.1,-4.551,7.616,16.238,-0.0,2.587,8.239,-16.19,5.865,0.575,9.203,17.112,5.865,5.865,5.865
2.105,-4.167,7.664,15.28,-0.0,2.443,8.047,-15.232,5.865,0.719,8.628,16.537,0.0,-23.46,5.865
2.11,-3.88,7.616,14.083,-0.0,2.203,7.999,-14.035,0.0,0.719,8.34,15.674,-5.865,-46.921,0.0
2.115,-3.401,7.808,12.358,-0.0,1.868,8.191,-12.31,5.865,0.575,8.34,14.524,-11.73,-76.246,0.0
2.12,-2.73,7.999,10.346,-0.0,1.437,8.383,-10.299,0.0,0.288,8.484,12.798,-17.595,-99.707,0.0
2.125,-1.82,8.287,7.856,-0.0,0.766,8.574,-7.76,5.865,0.0,8.628,10.641,-17.595,-117.302,0.0
2.13,-0.719,8.67,4.886,-0.0,-0.048,8.766,-4.79,0.0,-0.431,8.772,8.197,-23.46,-140.762,0.0
2.1350000000000002,0.862,9.197,1.437,-0.0,-1.006,9.101,-1.245,0.0,-0.863,8.772,5.177,-23.46,-158.358,0.0
2.14,2.635,9.724,-2.203,-0.0,-2.156,9.484,2.443,5.865,-1.294,8.916,1.582,-23.46,-170.088,0.0
2.145,4.359,10.011,-5.7,-0.0,-3.401,9.676,5.988,5.865,-1.869,9.203,-2.157,-23.46,-175.953,0.0
2.15,5.988,10.059,-8.957,-0.0,-4.598,9.676,9.341,0.0,-2.588,9.347,-5.896,-23.46,-175.953,0.0
2.1550000000000002,7.52,10.107,-11.831,-0.0,-5.748,9.676,12.262,0.0,-3.307,9.347,-9.203,-17.595,-170.088,0.0
2.16,8.862,10.011,-14.083,-0.0,-6.802,9.58,14.562,0.0,-4.17,9.347,-12.223,-11.73,-158.358,0.0
2.165,9.82,9.82,-15.759,-0.0,-7.616,9.388,16.286,5.865,-4.889,9.203,-14.524,-5.865,-140.762,0.0
2.17,10.49,9.484,-16.861,-0.0,-8.239,9.149,17.436,5.865,-5.608,9.059,-16.249,0.0,-117.302,0.0
2.1750000000000003,10.778,9.197,-17.388,5.865,-8.622,8.909,17.963,5.865,-6.183,8.916,-17.4,5.865,-93.842,5.865
2.18,10.825,8.909,-17.436,5.865,-8.766,8.766,18.01,5.865,-6.615,8.772,-17.975,5.865,-70.381,5.865
2.185,10.49,8.43,-17.052,5.865,-8.718,8.574,17.627,5.865,-6.902,8.772,-17.975,5.865,-41.056,5.865
2.19,10.011,8.287,-16.478,5.865,-8.43,8.478,17.005,5.865,-7.046,8.772,-17.687,5.865,-17.595,5.865
2.195,9.915,8.526,-15.711,5.865,-8.383,8.862,16.19,5.865,-6.902,8.772,-16.968,5.865,5.865,5.865
2.2,9.484,8.287,-14.657,-0.0,-8.143,8.862,15.184,0.0,-6.902,9.203,-16.249,5.865,23.46,5.865
2.205,8.67,8.095,-13.412,-0.0,-7.52,8.526,13.891,5.865,-6.902,9.347,-15.099,5.865,46.921,0.0
2.21,8.383,8.239,-11.783,-0.0,-7.233,8.383,12.262,5.865,-6.471,8.916,-13.805,0.0,64.516,0.0
2.215,7.664,9.149,-9.724,-0.0,-6.61,8.622,10.155,5.865,-6.183,8.484,-12.079,-5.865,76.246,0.0
2.22,6.61,9.101,-7.664,5.865,-5.94,8.478,8.047,11.73,-5.608,8.197,-9.922,-5.865,87.977,0.0
2.225,6.035,9.149,-5.844,5.865,-5.556,9.005,6.227,11.73,-5.321,8.053,-7.909,0.0,99.707,5.865
2.23,4.79,9.484,-3.832,5.865,-4.359,9.484,4.119,5.865,-5.177,8.916,-6.04,5.865,111.437,5.865
2.235,4.79,10.107,-1.964,5.865,-4.79,10.011,2.251,11.73,-4.026,9.491,-3.883,5.865,117.302,5.865
2.24,4.119,10.586,-0.479,5.865,-3.928,10.442,0.814,5.865,-4.889,10.066,-2.013,5.865,117.302,5.865
2.245,3.545,10.73,0.766,-0.0,-3.928,10.873,-0.527,5.865,-3.883,10.354,-0.575,5.865,117.302,5.865
2.25,2.491,10.778,2.203,-5.865,-2.922,10.969,-1.916,0.0,-4.314,11.073,0.863,5.865,117.302,0.0
2.255,2.06,10.921,3.497,-11.73,-2.826,10.921,-3.305,-5.865,-3.451,11.073,2.301,5.865,111.437,-5.865
2.2600000000000002,1.868,11.448,4.551,-11.73,-2.443,11.065,-4.311,-5.865,-3.595,10.929,3.595,5.865,105.572,-5.865
2.265,1.581,11.688,5.317,-5.865,-2.299,11.257,-5.077,-5.865,-3.164,10.785,4.602,5.865,93.842,-11.73
2.27,1.629,11.975,5.7,-5.865,-2.395,11.688,-5.461,-5.865,-3.164,10.929,5.321,5.865,82.111,-5.865
2.275,1.437,12.215,5.748,-5.865,-2.156,12.023,-5.509,-5.865,-3.307,11.504,5.752,17.595,70.381,-5.865
2.2800000000000002,1.677,12.406,5.796,-11.73,-2.299,12.406,-5.604,-5.865,-3.02,11.935,5.752,23.46,58.651,-5.865
2.285,1.772,12.55,5.7,-17.595,-2.395,12.646,-5.509,-11.73,-3.164,12.367,5.896,23.46,46.921,-11.73
2.29,1.772,12.406,5.509,-23.46,-2.395,12.55,-5.269,-17.595,-3.164,12.654,5.752,23.46,35.191,-17.595
2.295,1.868,12.119,5.221,-29.326,-2.539,12.358,-4.982,-29.326,-3.164,12.798,5.464,23.46,23.46,-23.46
2.3000000000000003,2.012,11.879,4.79,-29.326,-2.635,12.023,-4.503,-29.326,-3.307,12.511,5.177,23.46,11.73,-23.46
2.305,2.347,11.879,4.311,-29.326,-2.778,11.783,-4.024,-29.326,-3.307,12.079,4.745,23.46,0.0,-29.326
2.31,2.539,11.879,3.64,-35.191,-2.874,11.64,-3.305,-29.326,-3.307,11.792,4.17,17.595,-11.73,-35.191
2.315,2.73,11.688,2.922,-35.191,-2.97,11.496,-2.635,-35.191,-3.307,11.504,3.451,17.595,-17.595,-35.191
2.32,2.97,11.448,2.251,-41.056,-3.161,11.304,-1.916,-41.056,-3.307,11.36,2.876,23.46,-23.46,-35.191
2.325,3.209,11.209,1.485,-41.056,-3.353,11.065,-1.102,-41.056,-3.451,11.216,2.157,23.46,-35.191,-41.056
2.33,3.545,11.017,0.671,-46.921,-3.545,10.873,-0.287,-46.921,-3.595,10.929,1.294,23.46,-35.191,-46.921
2.335,3.88,10.873,-0.096,-52.786,-3.832,10.778,0.479,-52.786,-3.739,10.785,0.431,29.326,-41.056,-46.921
2.34,4.024,10.634,-0.814,-52.786,-3.928,10.634,1.198,-52.786,-3.883,10.785,-0.288,29.326,-46.921,-52.786
2.345,4.215,10.442,-1.485,-58.651,-4.072,10.49,1.868,-58.651,-3.883,10.641,-1.007,29.326,-46.921,-58.651
2.35,4.503,10.346,-2.012,-58.651,-4.311,10.394,2.395,-58.651,-4.026,10.497,-1.726,29.326,-46.921,-58.651
2.355,4.742,10.251,-2.443,-64.516,-4.503,10.251,2.826,-64.516,-4.17,10.497,-2.301,35.191,-46.921,-64.516
2.36,4.934,10.011,-2.826,-64.516,-4.598,9.915,3.257,-64.516,-4.314,10.21,-2.732,35.191,-46.921,-64.516
2.365,5.125,9.628,-3.305,-70.381,-4.694,9.341,3.736,-64.516,-4.458,9.778,-3.164,35.191,-46.921,-64.516
2.37,4.79,8.67,-3.401,-70.381,-4.598,8.814,3.784,-70.381,-4.458,9.203,-3.595,35.191,-46.921,-70.381
2.375,4.646,8.287,-4.072,-64.516,-4.598,8.574,4.503,-64.516,-4.458,8.916,-3.739,35.191,-46.921,-70.381
2.38,5.796,8.191,-4.215,-64.516,-5.221,8.143,4.646,-58.651,-4.602,8.916,-4.314,41.056,-41.056,-64.516
2.3850000000000002,6.802,9.484,-3.928,-58.651,-5.892,8.43,4.407,-58.651,-4.745,8.197,-4.602,35.191,-41.056,-64.516
2.39,6.083,9.245,-4.311,-64.516,-5.413,8.909,4.742,-64.516,-5.177,7.765,-4.314,35.191,-35.191,-58.651
2.395,5.317,8.43,-4.551,-70.381,-5.221,8.766,4.982,-64.516,-4.889,8.772,-4.745,41.056,-29.326,-64.516
2.4,5.7,8.335,-4.119,-64.516,-5.461,8.43,4.551,-64.516,-5.177,9.059,-4.889,46.921,-23.46,-70.381
2.4050000000000002,5.94,8.239,-3.784,-64.516,-5.652,8.095,4.215,-64.516,-5.321,8.628,-4.458,46.921,-17.595,-64.516
2.41,5.748,8.095,-3.736,-64.516,-5.461,7.999,4.167,-64.516,-5.464,8.053,-4.17,46.921,-17.595,-64.516
2.415,5.748,7.856,-3.784,-64.516,-5.509,7.904,4.167,-64.516,-5.177,8.053,-4.026,46.921,-17.595,-64.516
2.42,5.7,7.616,-3.688,-64.516,-5.509,7.76,4.072,-64.516,-5.321,8.053,-4.17,46.921,-11.73,-64.516
2.4250000000000003,5.556,7.377,-3.497,-64.516,-5.365,7.472,3.928,-64.516,-5.321,7.909,-4.026,46.921,-11.73,-64.516
2.43,5.461,7.281,-3.209,-58.651,-5.269,7.185,3.688,-58.651,-5.177,7.621,-3.739,41.056,-5.865,-64.516
2.435,5.509,7.233,-3.161,-58.651,-5.221,7.089,3.593,-58.651,-5.033,7.19,-3.595,41.056,-5.865,-64.516
2.44,5.509,7.089,-3.066,-58.651,-5.269,7.185,3.497,-58.651,-5.033,7.046,-3.451,41.056,-5.865,-58.651
2.445,5.365,6.993,-2.922,-58.651,-5.173,7.233,3.353,-58.651,-5.177,7.334,-3.451,41.056,0.0,-58.651
2.45,5.125,6.85,-2.73,-58.651,-5.03,7.041,3.114,-58.651,-5.033,7.478,-3.307,41.056,0.0,-58.651
2.455,4.886,6.706,-2.443,-58.651,-4.79,6.85,2.874,-58.651,-4.889,7.334,-3.02,41.056,0.0,-58.651
2.46,4.742,6.467,-2.203,-58.651,-4.694,6.562,2.587,-58.651,-4.745,7.046,-2.732,35.191,5.865,-58.651
2.465,4.455,6.131,-2.06,-58.651,-4.503,6.227,2.491,-58.651,-4.602,6.759,-2.445,35.191,5.865,-64.516
2.47,4.311,5.796,-1.916,-58.651,-4.359,5.94,2.347,-58.651,-4.458,6.327,-2.301,29.326,5.865,-64.516
2.475,4.263,5.556,-1.868,-58.651,-4.311,5.652,2.299,-58.651,-4.314,6.04,-2.157,29.326,5.865,-58.651
2.48,4.215,5.413,-1.82,-58.651,-4.167,5.461,2.299,-58.651,-4.314,5.896,-2.157,29.326,5.865,-58.651
2.485,4.072,5.317,-1.772,-52.786,-4.024,5.317,2.203,-52.786,-4.17,5.608,-2.157,29.326,5.865,-58.651
2.49,4.024,5.173,-1.677,-52.786,-3.928,5.173,2.108,-52.786,-4.026,5.464,-2.157,23.46,0.0,-58.651
2.495,3.928,4.886,-1.533,-52.786,-3.88,4.886,2.012,-46.921,-3.883,5.177,-2.013,23.46,0.0,-52.786
2.5,3.832,4.551,-1.437,-46.921,-3.832,4.503,1.868,-46.921,-3.883,4.889,-1.869,23.46,5.865,-52.786
2.505,3.64,4.215,-1.341,-46.921,-3.593,4.263,1.82,-46.921,-3.883,4.602,-1.726,23.46,0.0,-52.786
2.5100000000000002,3.593,3.88,-1.198,-41.056,-3.64,3.976,1.677,-41.056,-3.595,4.314,-1.726,23.46,5.865,-46.921
2.515,3.497,3.688,-1.15,-41.056,-3.545,3.736,1.629,-41.056,-3.739,4.026,-1.582,23.46,5.865,-46.921
2.52,3.401,3.545,-1.102,-35.191,-3.401,3.497,1.581,-35.191,-3.595,3.883,-1.438,23.46,0.0,-41.056
2.525,3.353,3.449,-1.006,-29.326,-3.401,3.353,1.485,-29.326,-3.451,3.595,-1.438,23.46,0.0,-35.191
2.5300000000000002,3.257,3.066,-0.958,-29.326,-3.257,3.018,1.437,-29.326,-3.451,3.307,-1.294,17.595,0.0,-35.191
2.535,3.018,2.539,-0.91,-29.326,-3.066,2.491,1.389,-23.46,-3.307,3.02,-1.294,17.595,0.0,-23.46
2.54,2.874,1.82,-0.91,-23.46,-2.97,1.916,1.389,-23.46,-3.164,2.445,-1.294,23.46,0.0,-23.46
2.545,2.826,1.198,-0.862,-23.46,-2.922,1.293,1.389,-17.595,-3.02,1.869,-1.294,23.46,0.0,-23.46
2.5500000000000003,2.73,0.623,-0.862,-11.73,-2.826,0.814,1.341,-11.73,-3.02,1.438,-1.15,23.46,0.0,-23.46
2.555,2.587,0.192,-0.814,-5.865,-2.635,0.335,1.341,-5.865,-2.876,0.863,-1.15,17.595,0.0,-11.73
2.56,2.491,-0.24,-0.862,-0.0,-2.587,-0.048,1.389,0.0,-2.732,0.431,-1.15,5.865,0.0,-5.865
2.565,2.395,-0.719,-0.958,5.865,-2.443,-0.431,1.485,11.73,-2.588,0.0,-1.15,5.865,0.0,0.0
2.57,2.251,-1.054,-1.054,17.595,-2.299,-0.766,1.581,17.595,-2.445,-0.288,-1.294,5.865,0.0,5.865
2.575,2.203,-1.15,-1.102,23.46,-2.203,-0.862,1.677,29.326,-2.301,-0.575,-1.438,5.865,0.0,17.595
2.58,2.012,-1.293,-1.245,35.191,-2.012,-1.054,1.772,41.056,-2.301,-0.719,-1.438,5.865,0.0,29.326
2.585,1.772,-1.581,-1.437,46.921,-1.724,-1.437,2.012,46.921,-2.013,-1.007,-1.582,0.0,0.0,35.191
2.59,1.724,-1.916,-1.677,52.786,-1.485,-1.964,2.251,52.786,-1.726,-1.438,-1.869,-5.865,0.0,46.921
2.595,1.629,-2.395,-1.964,64.516,-1.389,-2.539,2.539,64.516,-1.294,-2.157,-2.157,-5.865,0.0,52.786
2.6,1.293,-3.018,-2.299,76.246,-1.15,-3.018,2.826,82.111,-1.15,-2.732,-2.445,-5.865,5.865,64.516
2.605,1.054,-3.593,-2.826,87.977,-0.958,-3.305,3.401,93.842,-1.007,-3.02,-2.732,-5.865,5.865,76.246
2.61,0.862,-4.024,-3.449,99.707,-0.814,-3.401,4.024,105.572,-0.863,-3.164,-3.307,-5.865,11.73,87.977
2.615,0.623,-4.263,-4.119,117.302,-0.527,-3.64,4.694,117.302,-0.719,-3.02,-3.883,-11.73,17.595,99.707
2.62,0.431,-4.598,-4.455,129.032,-0.192,-4.024,5.03,134.897,-0.288,-3.307,-4.602,-17.595,17.595,117.302
2.625,0.192,-4.838,-4.646,140.762,0.096,-4.551,5.269,146.628,0.0,-3.739,-4.889,-23.46,17.595,129.032
2.63,-0.335,-5.173,-4.982,152.493,0.671,-5.03,5.604,158.358,0.431,-4.458,-5.177,-29.326,23.46,140.762
2.6350000000000002,-0.719,-5.461,-5.221,170.088,1.102,-5.365,5.844,175.953,1.15,-5.177,-5.464,-35.191,29.326,152.493
2.64,-0.814,-4.503,-5.269,193.548,1.485,-4.934,5.94,199.413,1.582,-5.608,-5.752,-35.191,35.191,170.088
2.645,-0.958,-1.916,-5.03,211.144,1.82,-2.539,5.652,217.009,2.157,-5.464,-5.752,-35.191,41.056,193.548
2.65,-1.341,1.341,-4.407,228.739,2.06,0.958,4.934,234.604,2.588,-3.164,-5.464,-29.326,46.921,211.144
2.6550000000000002,-2.06,4.694,-3.688,240.469,2.395,4.838,4.167,246.334,2.588,0.575,-4.745,-23.46,58.651,234.604
2.66,-2.587,7.52,-2.778,240.469,2.491,8.43,3.161,252.199,2.588,5.033,-4.026,-17.595,70.381,240.469
2.665,-2.682,9.963,-1.964,240.469,2.299,11.304,2.347,246.334,2.301,9.203,-3.02,-17.595,70.381,246.334
2.67,22.657,23.758,17.771,217.009,-18.729,24.046,-17.1,222.874,1.726,12.367,-2.157,-17.595,70.381,240.469
2.6750000000000003,-18.729,24.094,17.1,17.595,5.652,24.429,-19.687,23.46,-8.772,68.593,17.831,-11.73,70.381,217.009
2.68,-11.304,23.423,15.663,-99.707,-4.311,24.429,-17.34,-99.707,-9.491,74.057,20.42,193.548,123.167,11.73
2.685,15.424,19.783,16.478,-187.683,-10.107,10.778,-16.286,-193.548,-17.687,42.565,19.125,76.246,41.056,-105.572
2.69,17.244,7.472,2.682,-181.818,-14.753,5.413,-2.251,-187.683,-5.752,3.307,16.249,-99.707,-158.358,-193.548
2.695,23.327,1.82,-9.724,-117.302,-20.214,5.652,10.299,-117.302,-12.511,4.458,1.869,-82.111,-175.953,-181.818
2.7,22.8,2.826,-11.113,-35.191,-18.489,4.646,11.688,-35.191,-16.681,9.635,-10.641,-52.786,-152.493,-117.302
2.705,18.681,10.634,-7.52,46.921,-13.46,6.898,8.191,52.786,-14.092,6.615,-11.792,-82.111,-111.437,-23.46
2.71,12.694,21.603,-6.514,105.572,-9.628,15.568,7.041,111.437,-8.484,4.17,-8.34,-117.302,-58.651,52.786
2.715,9.101,24.094,-6.035,134.897,-7.999,22.274,6.371,140.762,-7.334,11.073,-7.046,-105.572,5.865,111.437
2.72,4.503,24.094,-4.407,140.762,-5.03,22.848,4.598,146.628,-7.19,19.413,-6.183,-52.786,46.921,134.897
2.725,2.587,20.214,-2.587,134.897,-3.784,19.064,2.73,134.897,-5.752,21.139,-4.314,-5.865,64.516,140.762
2.73,2.299,14.083,-2.347,105.572,-3.209,14.178,2.587,111.437,-5.033,17.831,-2.445,23.46,58.651,134.897
2.735,2.251,7.712,-4.119,70.381,-3.114,9.963,4.455,76.246,-4.314,14.092,-2.445,46.921,41.056,105.572
2.74,2.347,3.449,-6.227,46.921,-2.922,6.802,6.658,52.786,-3.883,11.648,-4.458,52.786,23.46,70.381
2.745,2.874,4.263,-6.467,35.191,-2.73,6.419,6.898,41.056,-3.307,9.491,-6.615,41.056,11.73,46.921
2.75,3.736,10.059,-4.119,17.595,-3.066,9.532,4.551,23.46,-2.588,8.197,-6.759,5.865,5.865,35.191
2.755,2.682,14.131,-1.677,-11.73,-2.203,12.31,2.108,-5.865,-2.588,9.203,-4.458,-17.595,0.0,23.46
2.7600000000000002,0.623,13.268,-0.383,-29.326,-1.006,12.31,0.719,-23.46,-2.013,10.785,-1.869,-17.595,5.865,-5.865
2.765,1.437,11.688,0.814,-29.326,-1.772,11.065,-0.479,-29.326,-1.582,11.36,-0.431,0.0,5.865,-23.46
2.77,3.593,10.346,1.293,-29.326,-3.353,9.628,-0.862,-23.46,-2.301,10.354,0.719,5.865,0.0,-29.326
2.775,4.79,8.526,1.054,-29.326,-4.263,8.43,-0.575,-23.46,-3.307,8.916,1.007,23.46,-5.865,-23.46
2.7800000000000002,5.125,7.089,1.15,-29.326,-4.551,7.377,-0.719,-29.326,-3.883,8.484,0.719,29.326,-5.865,-23.46
2.785,4.646,6.562,1.677,-35.191,-4.263,7.041,-1.245,-35.191,-4.026,7.765,0.863,35.191,-5.865,-29.326
2.79,3.353,6.754,1.868,-29.326,-3.497,7.185,-1.485,-23.46,-4.026,7.478,1.438,35.191,0.0,-35.191
2.795,3.161,7.377,1.772,-23.46,-3.497,7.856,-1.389,-17.595,-3.739,7.621,1.726,29.326,5.865,-23.46
2.8000000000000003,3.066,8.095,1.245,-11.73,-3.353,8.478,-0.862,-11.73,-3.883,8.34,1.582,23.46,5.865,-17.595
2.805,3.114,8.335,0.575,-11.73,-3.353,8.622,-0.192,-5.865,-3.739,8.772,1.007,17.595,0.0,-11.73
2.81,3.209,8.335,-0.144,-11.73,-3.305,8.526,0.527,-5.865,-3.595,8.916,0.288,5.865,-5.865,-5.865
2.815,3.066,8.239,-0.814,-11.73,-3.066,8.239,1.245,-5.865,-3.451,8.628,-0.431,5.865,-11.73,-5.865
2.82,2.778,8.191,-1.293,-11.73,-2.826,8.095,1.724,-5.865,-3.164,8.197,-1.15,5.865,-11.73,-5.865
2.825,2.874,8.526,-1.581,-5.865,-2.826,8.191,1.964,-5.865,-2.876,8.053,-1.582,5.865,-11.73,-5.865
2.83,3.018,8.814,-1.724,-5.865,-2.97,8.43,2.108,-5.865,-2.876,7.909,-1.869,5.865,-17.595,-5.865
2.835,3.066,8.766,-1.868,-5.865,-2.97,8.478,2.299,0.0,-3.02,8.053,-2.013,5.865,-17.595,-5.865
2.84,3.161,8.526,-1.868,-5.865,-3.018,8.383,2.299,0.0,-2.876,8.197,-2.157,5.865,-17.595,0.0
2.845,3.209,8.335,-1.868,-5.865,-3.114,8.287,2.299,0.0,-3.02,8.197,-2.157,17.595,-17.595,0.0
2.85,3.305,8.287,-1.82,-0.0,-3.066,8.239,2.203,0.0,-3.02,8.34,-2.157,23.46,-23.46,0.0
2.855,3.497,8.335,-1.677,-0.0,-3.161,8.191,2.156,0.0,-2.876,8.197,-2.157,23.46,-23.46,0.0
2.86,3.593,8.287,-1.724,-5.865,-3.209,8.191,2.156,0.0,-2.876,8.053,-2.013,23.46,-17.595,0.0
2.865,3.736,8.335,-1.581,-5.865,-3.401,8.335,2.012,0.0,-3.02,8.053,-2.013,23.46,-17.595,0.0
2.87,3.832,8.478,-1.485,-0.0,-3.497,8.478,1.916,0.0,-3.164,8.34,-1.869,29.326,-17.595,0.0
2.875,3.832,8.622,-1.437,-5.865,-3.497,8.718,1.82,0.0,-3.307,8.484,-1.869,29.326,-11.73,0.0
2.88,3.736,8.814,-1.293,-5.865,-3.545,9.005,1.724,0.0,-3.307,8.772,-1.726,29.326,-11.73,0.0
2.8850000000000002,3.736,8.909,-1.245,-5.865,-3.545,9.149,1.677,0.0,-3.451,9.203,-1.582,23.46,-11.73,0.0
2.89,3.736,9.005,-1.293,-5.865,-3.593,9.245,1.724,0.0,-3.451,9.347,-1.582,23.46,-11.73,-5.865
2.895,3.688,9.053,-1.389,-5.865,-3.545,9.293,1.82,0.0,-3.595,9.491,-1.582,23.46,-5.865,-5.865
2.9,3.784,9.245,-1.533,-5.865,-3.64,9.341,1.964,0.0,-3.595,9.491,-1.726,17.595,-5.865,-5.865
2.9050000000000002,3.688,9.293,-1.772,-5.865,-3.545,9.341,2.156,0.0,-3.595,9.491,-1.869,17.595,-11.73,0.0
2.91,3.688,9.293,-1.916,-5.865,-3.545,9.293,2.347,-5.865,-3.451,9.491,-2.013,5.865,-11.73,0.0
2.915,3.688,9.341,-2.108,-5.865,-3.497,9.197,2.539,-5.865,-3.451,9.347,-2.157,5.865,-5.865,-5.865
2.92,3.64,9.293,-2.251,-5.865,-3.497,9.149,2.635,-5.865,-3.451,9.059,-2.445,5.865,-11.73,-5.865
2.9250000000000003,3.64,9.149,-2.299,-5.865,-3.497,9.101,2.73,-5.865,-3.451,9.059,-2.588,17.595,-11.73,-5.865
2.93,3.64,9.101,-2.251,-5.865,-3.497,9.101,2.682,-5.865,-3.451,9.059,-2.588,17.595,-5.865,-5.865
2.935,3.593,8.957,-2.06,-5.865,-3.449,9.005,2.491,-5.865,-3.451,9.059,-2.588,23.46,-11.73,-5.865
2.94,3.64,8.909,-1.82,-5.865,-3.497,9.005,2.251,-5.865,-3.451,9.059,-2.445,17.595,-5.865,-5.865
2.945,3.688,9.005,-1.677,-5.865,-3.497,9.053,2.108,-5.865,-3.451,9.059,-2.157,23.46,-11.73,-5.865
2.95,3.736,9.005,-1.629,-5.865,-3.593,9.101,2.06,-5.865,-3.451,9.059,-2.013,23.46,-11.73,-5.865
2.955,3.832,9.053,-1.629,-5.865,-3.688,9.197,2.012,-5.865,-3.451,9.203,-1.869,17.595,-5.865,-5.865
2.96,3.928,9.197,-1.629,-5.865,-3.736,9.341,2.012,-5.865,-3.595,9.347,-1.869,17.595,-5.865,-5.865
2.965,3.928,9.341,-1.533,-11.73,-3.784,9.436,1.964,-5.865,-3.739,9.491,-1.869,17.595,-11.73,-5.865
2.97,3.928,9.341,-1.581,-11.73,-3.784,9.484,2.012,-5.865,-3.739,9.491,-1.869,17.595,-11.73,-5.865
2.975,3.88,9.388,-1.629,-5.865,-3.784,9.532,2.012,-5.865,-3.739,9.635,-1.869,5.865,-11.73,-5.865
2.98,3.832,9.484,-1.629,-5.865,-3.736,9.58,2.06,-5.865,-3.739,9.635,-1.869,5.865,-11.73,-5.865
2.985,3.832,9.58,-1.724,-5.865,-3.688,9.58,2.156,0.0,-3.739,9.635,-1.869,5.865,-11.73,-5.865
2.99,3.784,9.532,-1.82,-5.865,-3.64,9.532,2.203,0.0,-3.595,9.635,-2.013,5.865,-11.73,-5.865
2.995,3.784,9.484,-1.868,-5.865,-3.593,9.484,2.251,0.0,-3.595,9.635,-2.157,5.865,-11.73,-5.865
3.0,3.64,9.532,-1.772,-5.865,-3.497,9.532,2.203,0.0,-3.451,9.491,-2.157,5.865,-11.73,0.0
3.005,3.449,9.676,-1.724,-0.0,-3.353,9.628,2.156,0.0,-3.451,9.635,-2.157,5.865,-11.73,0.0
3.0100000000000002,3.305,9.82,-1.724,-5.865,-3.209,9.772,2.108,0.0,-3.307,9.635,-2.013,5.865,-11.73,0.0
3.015,3.257,9.82,-1.724,-0.0,-3.161,9.724,2.108,0.0,-3.164,9.635,-2.013,5.865,-11.73,0.0
3.02,3.257,9.82,-1.724,-0.0,-3.114,9.724,2.156,0.0,-3.164,9.635,-2.013,5.865,-11.73,0.0
3.025,3.257,9.915,-1.677,-0.0,-3.161,9.915,2.06,0.0,-3.164,9.635,-2.013,5.865,-11.73,0.0
3.0300000000000002,3.209,10.011,-1.629,-0.0,-3.161,10.155,2.012,0.0,-3.164,9.922,-1.869,5.865,-17.595,0.0
3.035,3.161,10.059,-1.581,-0.0,-3.114,10.299,1.964,0.0,-3.164,10.21,-1.869,17.595,-17.595,0.0
3.04,3.066,10.059,-1.581,-0.0,-3.066,10.346,1.964,0.0,-3.164,10.497,-1.869,5.865,-17.595,0.0
3.045,3.114,10.155,-1.581,-0.0,-3.018,10.394,2.012,0.0,-3.164,10.497,-1.869,5.865,-17.595,0.0
3.0500000000000003,3.066,10.251,-1.677,-0.0,-2.97,10.538,2.06,0.0,-3.02,10.641,-1.869,5.865,-23.46,0.0
3.055,3.066,10.49,-1.677,-0.0,-2.97,10.778,2.06,0.0,-2.876,10.785,-1.869,5.865,-23.46,0.0
3.06,3.066,10.873,-1.677,-0.0,-2.922,11.161,2.06,0.0,-2.876,11.073,-2.013,5.865,-23.46,0.0
3.065,2.922,11.352,-1.772,-0.0,-2.73,11.544,2.156,5.865,-2.876,11.36,-2.013,0.0,-23.46,0.0
3.0700000000000003,2.73,11.831,-1.82,-0.0,-2.539,11.879,2.203,5.865,-2.732,11.648,-2.013,0.0,-29.326,0.0
3.075,2.539,12.119,-1.772,5.865,-2.299,11.927,2.156,5.865,-2.445,11.935,-2.157,-5.865,-29.326,5.865
3.08,2.395,12.215,-1.916,5.865,-2.156,11.879,2.347,5.865,-2.301,11.648,-2.013,-5.865,-29.326,5.865
3.085,2.203,12.215,-2.012,5.865,-2.012,11.831,2.443,11.73,-2.157,11.504,-2.157,0.0,-29.326,5.865
3.09,2.108,12.358,-2.108,5.865,-1.916,11.975,2.491,11.73,-2.013,11.504,-2.301,0.0,-29.326,5.865
3.095,1.916,12.454,-2.108,5.865,-1.82,12.215,2.491,11.73,-1.869,11.648,-2.445,5.865,-29.326,11.73
3.1,2.156,12.646,-2.203,5.865,-1.868,12.598,2.635,11.73,-1.869,11.935,-2.301,5.865,-35.191,11.73
3.105,1.868,13.22,-2.347,5.865,-1.964,13.316,2.73,5.865,-1.726,12.511,-2.445,17.595,-35.191,5.865
3.11,2.108,13.843,-1.533,-5.865,-2.012,13.747,1.916,0.0,-2.301,13.373,-2.588,23.46,-35.191,5.865
3.115,1.772,14.035,-2.203,-11.73,-2.012,14.657,2.491,-11.73,-2.157,13.517,-1.726,23.46,-41.056,0.0
3.12,2.108,14.705,-1.82,-23.46,-2.203,15.28,2.156,-23.46,-2.445,15.243,-2.301,23.46,-41.056,-11.73
3.125,2.06,14.753,-1.485,-35.191,-2.251,14.993,1.772,-35.191,-2.445,15.674,-2.013,23.46,-46.921,-23.46
3.13,1.964,14.37,-1.437,-46.921,-2.156,14.514,1.772,-46.921,-2.588,15.099,-1.582,17.595,-52.786,-35.191
3.1350000000000002,2.108,13.795,-1.629,-52.786,-2.203,13.987,1.916,-52.786,-2.445,14.524,-1.582,17.595,-58.651,-46.921
3.14,2.539,13.364,-1.724,-52.786,-2.491,13.508,2.012,-52.786,-2.445,14.092,-1.726,17.595,-70.381,-52.786
3.145,2.922,13.077,-1.82,-58.651,-2.73,13.173,2.156,-58.651,-2.588,13.661,-1.869,17.595,-70.381,-58.651
3.15,3.066,12.837,-1.964,-58.651,-2.778,12.933,2.299,-58.651,-2.588,13.23,-2.013,17.595,-76.246,-58.651
3.1550000000000002,3.066,12.598,-2.012,-58.651,-2.778,12.741,2.347,-58.651,-2.588,12.942,-2.157,17.595,-76.246,-58.651
3.16,3.018,12.31,-2.012,-58.651,-2.73,12.502,2.347,-58.651,-2.588,12.798,-2.157,17.595,-76.246,-58.651
3.165,3.018,12.071,-1.916,-64.516,-2.635,12.119,2.251,-58.651,-2.588,12.511,-2.157,17.595,-76.246,-64.516
3.17,3.018,11.783,-1.724,-64.516,-2.587,11.544,2.108,-64.516,-2.445,12.079,-2.157,17.595,-76.246,-64.516
3.1750000000000003,2.826,11.304,-1.581,-64.516,-2.443,10.969,1.964,-64.516,-2.301,11.216,-2.013,17.595,-76.246,-64.516
3.18,2.491,10.586,-1.437,-70.381,-2.251,10.346,1.82,-70.381,-2.301,10.641,-1.726,23.46,-76.246,-70.381
3.185,2.251,10.107,-1.245,-64.516,-2.156,9.82,1.629,-64.516,-2.157,10.066,-1.726,29.326,-70.381,-70.381
3.19,2.156,9.724,-1.006,-64.516,-2.108,9.293,1.389,-64.516,-2.157,9.491,-1.438,29.326,-70.381,-70.381
3.1950000000000003,2.06,9.341,-0.91,-58.651,-2.06,8.862,1.293,-64.516,-2.157,8.916,-1.15,35.191,-70.381,-64.516
3.2,2.108,9.053,-0.958,-58.651,-2.108,8.67,1.341,-58.651,-2.157,8.34,-1.007,41.056,-76.246,-64.516
3.205,2.156,8.814,-1.006,-58.651,-2.203,8.718,1.341,-52.786,-2.157,8.34,-1.15,46.921,-76.246,-58.651
3.21,2.299,8.622,-1.006,-52.786,-2.395,8.718,1.341,-58.651,-2.301,8.628,-1.15,52.786,-76.246,-58.651
3.215,2.395,8.383,-1.15,-52.786,-2.491,8.718,1.485,-52.786,-2.588,8.772,-1.15,52.786,-82.111,-52.786
3.22,2.539,8.191,-1.341,-52.786,-2.635,8.574,1.629,-52.786,-2.732,8.916,-1.294,58.651,-82.111,-58.651
3.225,2.778,8.047,-1.533,-52.786,-2.778,8.383,1.868,-52.786,-2.732,8.916,-1.438,52.786,-87.977,-58.651
3.23,3.066,7.951,-1.677,-52.786,-2.97,8.143,2.06,-52.786,-2.876,8.628,-1.582,52.786,-87.977,-58.651
3.235,3.305,7.904,-1.82,-52.786,-3.114,7.999,2.203,-52.786,-2.876,8.34,-1.869,46.921,-93.842,-52.786
3.24,3.593,7.951,-1.868,-52.786,-3.305,7.951,2.299,-52.786,-3.02,8.053,-2.013,46.921,-93.842,-52.786
3.245,3.832,8.047,-1.916,-52.786,-3.545,7.999,2.299,-52.786,-3.164,8.053,-2.157,46.921,-93.842,-52.786
3.25,4.024,8.143,-1.964,-46.921,-3.688,8.143,2.347,-52.786,-3.307,8.053,-2.157,46.921,-87.977,-52.786
3.255,4.215,8.287,-2.012,-46.921,-3.88,8.287,2.395,-46.921,-3.451,8.197,-2.157,46.921,-87.977,-52.786
3.2600000000000002,4.407,8.43,-2.012,-46.921,-4.072,8.43,2.395,-46.921,-3.595,8.34,-2.157,46.921,-87.977,-46.921
3.265,4.646,8.574,-1.868,-46.921,-4.263,8.574,2.251,-46.921,-3.739,8.484,-2.157,46.921,-82.111,-46.921
3.27,4.742,8.814,-1.677,-46.921,-4.359,8.718,2.06,-46.921,-3.883,8.628,-2.157,46.921,-82.111,-46.921
3.275,4.742,9.053,-1.389,-46.921,-4.359,8.814,1.82,-46.921,-4.026,8.772,-1.869,46.921,-76.246,-46.921
3.2800000000000002,4.79,9.245,-1.293,-46.921,-4.407,8.957,1.677,-46.921,-4.026,8.772,-1.582,52.786,-76.246,-46.921
3.285,4.79,9.341,-1.245,-41.056,-4.503,9.101,1.629,-46.921,-4.17,8.772,-1.438,52.786,-70.381,-46.921
3.29,4.838,9.532,-1.245,-46.921,-4.503,9.293,1.581,-46.921,-4.314,9.059,-1.438,52.786,-70.381,-46.921
3.295,4.934,9.82,-1.15,-41.056,-4.551,9.532,1.533,-46.921,-4.314,9.203,-1.438,58.651,-70.381,-46.921
3.3000000000000003,5.03,10.059,-0.958,-46.921,-4.646,9.772,1.341,-46.921,-4.314,9.491,-1.294,58.651,-64.516,-46.921
3.305,4.934,10.011,-0.814,-46.921,-4.598,9.82,1.198,-46.921,-4.314,9.635,-1.15,64.516,-64.516,-46.921
3.31,4.79,9.772,-0.814,-52.786,-4.551,9.724,1.198,-52.786,-4.458,9.778,-1.007,64.516,-58.651,-52.786
3.315,4.694,9.484,-0.766,-52.786,-4.503,9.532,1.15,-52.786,-4.458,9.778,-1.007,70.381,-58.651,-52.786
3.3200000000000003,4.694,9.293,-0.671,-52.786,-4.455,9.341,1.054,-52.786,-4.314,9.635,-1.007,70.381,-58.651,-52.786
3.325,4.694,9.245,-0.479,-52.786,-4.455,9.293,0.862,-52.786,-4.314,9.491,-0.863,70.381,-52.786,-52.786
3.33,4.646,9.245,-0.287,-52.786,-4.407,9.293,0.671,-52.786,-4.314,9.347,-0.719,70.381,-52.786,-52.786
3.335,4.503,9.341,-0.192,-52.786,-4.359,9.436,0.527,-52.786,-4.314,9.347,-0.575,70.381,-52.786,-52.786
3.34,4.455,9.532,-0.096,-46.921,-4.311,9.628,0.479,-52.786,-4.314,9.635,-0.431,70.381,-52.786,-52.786
3.345,4.503,9.724,-0.048,-46.921,-4.311,9.82,0.431,-46.921,-4.314,9.778,-0.288,64.516,-52.786,-52.786
3.35,4.455,9.82,-0.048,-46.921,-4.263,9.915,0.431,-52.786,-4.314,9.922,-0.288,64.516,-52.786,-52.786
3.355,4.359,9.676,-0.096,-52.786,-4.167,9.867,0.479,-52.786,-4.17,10.066,-0.288,64.516,-52.786,-52.786
3.36,4.263,9.484,-0.192,-52.786,-4.072,9.676,0.527,-52.786,-4.17,10.066,-0.288,64.516,-52.786,-52.786
3.365,4.072,9.341,-0.24,-52.786,-3.928,9.532,0.575,-52.786,-4.026,9.922,-0.431,64.516,-46.921,-52.786
3.37,3.976,9.245,-0.24,-46.921,-3.784,9.436,0.623,-52.786,-3.883,9.778,-0.431,64.516,-52.786,-52.786
3.375,3.832,9.197,-0.287,-52.786,-3.64,9.341,0.671,-46.921,-3.739,9.635,-0.431,58.651,-46.921,-52.786
3.38,3.64,9.053,-0.383,-46.921,-3.449,9.245,0.766,-46.921,-3.595,9.491,-0.575,58.651,-46.921,-46.921
3.3850000000000002,3.305,8.862,-0.527,-46.921,-3.209,9.149,0.91,-46.921,-3.451,9.491,-0.575,52.786,-46.921,-46.921
3.39,3.066,8.766,-0.575,-46.921,-2.97,9.101,0.958,-46.921,-3.164,9.491,-0.719,52.786,-46.921,-46.921
3.395,2.874,8.718,-0.623,-46.921,-2.826,9.005,1.006,-46.921,-3.02,9.347,-0.719,52.786,-46.921,-46.921
3.4,2.587,8.67,-0.623,-41.056,-2.539,8.957,1.006,-41.056,-2.732,9.203,-0.863,46.921,-46.921,-46.921
3.4050000000000002,2.251,8.526,-0.719,-41.056,-2.251,8.814,1.102,-41.056,-2.588,9.203,-0.863,46.921,-52.786,-46.921
3.41,1.964,8.335,-0.814,-41.056,-1.964,8.67,1.198,-41.056,-2.301,9.059,-1.007,41.056,-52.786,-46.921
3.415,1.772,8.095,-0.91,-41.056,-1.772,8.383,1.293,-41.056,-2.013,8.916,-1.007,41.056,-52.786,-46.921
3.42,1.485,7.808,-1.054,-41.056,-1.485,8.143,1.437,-41.056,-1.869,8.628,-1.15,41.056,-52.786,-46.921
3.4250000000000003,1.293,7.664,-1.245,-41.056,-1.293,7.951,1.629,-41.056,-1.582,8.34,-1.294,35.191,-58.651,-46.921
3.43,1.15,7.472,-1.293,-41.056,-1.102,7.712,1.724,-41.056,-1.294,8.197,-1.438,29.326,-58.651,-41.056
3.435,0.958,7.233,-1.341,-41.056,-0.862,7.425,1.724,-41.056,-1.15,7.909,-1.582,29.326,-58.651,-41.056
3.44,0.814,6.946,-1.341,-41.056,-0.719,7.041,1.724,-41.056,-0.863,7.478,-1.582,29.326,-64.516,-41.056
3.4450000000000003,0.623,6.562,-1.293,-35.191,-0.527,6.562,1.724,-35.191,-0.719,7.046,-1.582,29.326,-64.516,-41.056
3.45,0.431,6.131,-1.341,-35.191,-0.335,6.179,1.772,-35.191,-0.575,6.471,-1.582,29.326,-64.516,-35.191
3.455,0.24,5.748,-1.389,-29.326,-0.192,5.844,1.82,-29.326,-0.431,6.04,-1.582,29.326,-64.516,-35.191
3.46,0.096,5.413,-1.437,-29.326,-0.048,5.652,1.868,-23.46,-0.288,5.896,-1.582,29.326,-64.516,-35.191
3.465,-0.048,5.173,-1.485,-23.46,0.048,5.461,1.916,-23.46,-0.144,5.752,-1.582,29.326,-64.516,-23.46
3.47,-0.144,4.886,-1.581,-17.595,0.144,5.269,2.012,-17.595,0.0,5.608,-1.726,29.326,-70.381,-17.595
3.475,-0.287,4.694,-1.629,-11.73,0.24,5.173,2.06,-11.73,0.0,5.464,-1.869,23.46,-70.381,-17.595
3.48,-0.431,4.503,-1.677,-11.73,0.383,5.03,2.108,-11.73,0.144,5.464,-1.869,23.46,-70.381,-11.73
3.485,-0.431,4.359,-1.677,-5.865,0.431,4.79,2.06,-5.865,0.288,5.321,-1.869,17.595,-76.246,-11.73
3.49,-0.623,4.119,-1.724,-0.0,0.623,4.503,2.108,0.0,0.431,5.033,-1.869,5.865,-76.246,-5.865
3.495,-0.766,3.784,-1.82,-0.0,0.766,4.215,2.203,5.865,0.575,4.745,-1.869,5.865,-76.246,0.0
3.5,-0.91,3.449,-1.868,5.865,0.862,3.88,2.299,5.865,0.719,4.458,-2.013,5.865,-82.111,0.0
3.505,-0.958,3.161,-1.916,11.73,0.91,3.64,2.347,11.73,0.863,4.17,-2.157,5.865,-82.111,5.865
3.5100000000000002,-0.91,2.97,-1.964,17.595,0.91,3.545,2.395,17.595,0.863,3.883,-2.157,0.0,-82.111,11.73
3.515,-0.91,2.97,-2.012,23.46,0.91,3.497,2.443,29.326,0.863,3.883,-2.157,-5.865,-87.977,17.595
3.52,-0.958,3.066,-2.012,29.326,1.006,3.64,2.443,29.326,0.863,3.883,-2.157,-11.73,-87.977,23.46
3.525,-1.102,3.305,-1.964,35.191,1.102,3.88,2.395,41.056,1.007,3.883,-2.157,-17.595,-87.977,29.326
3.5300000000000002,-1.245,3.784,-1.964,46.921,1.15,4.407,2.347,46.921,1.007,4.17,-2.157,-23.46,-87.977,41.056
3.535,-1.341,4.598,-1.772,46.921,1.15,5.365,2.156,52.786,1.15,4.745,-2.157,-23.46,-87.977,46.921
3.54,-1.293,5.461,-1.437,52.786,1.006,6.514,1.772,52.786,1.007,5.896,-1.869,-29.326,-93.842,46.921
3.545,-1.198,6.275,-1.006,58.651,0.766,7.472,1.245,58.651,0.719,7.334,-1.438,-41.056,-93.842,52.786
3.5500000000000003,-1.15,7.041,-0.623,52.786,0.623,8.335,0.862,52.786,0.288,8.34,-1.007,-46.921,-99.707,52.786
3.555,-1.198,7.76,-0.287,46.921,0.479,9.005,0.431,52.786,0.0,9.347,-0.575,-58.651,-105.572,52.786
3.56,-1.102,8.574,-0.048,41.056,0.383,9.484,0.192,46.921,-0.288,9.922,-0.144,-70.381,-117.302,46.921
3.565,-0.766,9.245,-0.048,35.191,0.192,9.772,0.192,41.056,-0.431,10.21,0.288,-87.977,-123.167,41.056
3.5700000000000003,-0.383,9.82,-0.431,35.191,-0.096,10.059,0.479,35.191,-0.431,10.066,0.288,-93.842,-134.897,35.191
3.575,0.096,10.394,-0.958,29.326,-0.479,10.299,1.054,29.326,-0.719,10.066,-0.0,-99.707,-146.628,35.191
3.58,0.862,10.921,-1.629,29.326,-0.958,10.538,1.724,29.326,-0.863,10.066,-0.575,-99.707,-158.358,29.326
3.585,1.581,11.352,-2.443,29.326,-1.437,10.921,2.539,29.326,-1.15,10.21,-1.294,-99.707,-164.223,29.326
3.59,2.299,11.783,-3.257,29.326,-2.012,11.257,3.401,29.326,-1.438,10.497,-2.157,-99.707,-170.088,29.326
3.595,3.066,12.406,-4.072,29.326,-2.539,11.592,4.215,29.326,-1.869,10.785,-3.02,-93.842,-170.088,29.326
3.6,3.832,12.885,-4.79,29.326,-3.161,11.879,4.934,29.326,-2.157,10.785,-3.883,-87.977,-170.088,29.326
3.605,4.503,13.22,-5.461,29.326,-3.688,12.215,5.652,29.326,-2.588,11.073,-4.745,-76.246,-170.088,29.326
3.61,5.125,13.46,-6.131,35.191,-4.215,12.454,6.419,35.191,-3.02,11.216,-5.464,-64.516,-170.088,29.326
3.615,5.796,13.652,-6.706,35.191,-4.742,12.741,7.041,35.191,-3.451,11.648,-6.183,-52.786,-164.223,35.191
3.62,6.419,13.747,-7.185,35.191,-5.221,12.933,7.52,35.191,-3.883,11.935,-6.759,-41.056,-152.493,35.191
3.625,6.898,13.604,-7.52,35.191,-5.652,12.933,7.904,41.056,-4.314,12.223,-7.334,-35.191,-146.628,35.191
3.63,7.137,13.22,-7.664,35.191,-5.94,12.741,8.047,41.056,-4.602,12.367,-7.765,-23.46,-134.897,35.191
3.6350000000000002,7.233,12.598,-7.712,35.191,-6.083,12.262,8.095,35.191,-4.889,12.367,-7.909,-17.595,-123.167,35.191
3.64,7.185,11.64,-7.52,35.191,-6.275,11.4,7.904,35.191,-5.177,12.079,-7.909,-11.73,-111.437,35.191
3.645,6.898,10.921,-7.425,35.191,-5.94,10.682,7.856,41.056,-5.321,11.216,-7.909,-5.865,-99.707,35.191
3.65,6.85,10.251,-7.233,41.056,-6.035,10.155,7.664,41.056,-5.177,10.497,-7.765,-5.865,-87.977,35.191
3.6550000000000002,6.802,9.245,-7.041,41.056,-6.131,9.341,7.472,41.056,-5.321,10.066,-7.621,0.0,-82.111,41.056
3.66,6.275,8.335,-6.802,41.056,-5.652,8.526,7.233,46.921,-5.464,9.491,-7.334,0.0,-70.381,35.191
3.665,5.988,7.856,-6.61,46.921,-5.461,7.904,7.041,46.921,-5.033,8.772,-7.19,0.0,-64.516,41.056
3.67,5.556,7.999,-6.275,52.786,-5.077,7.904,6.754,52.786,-4.889,8.053,-6.902,-5.865,-58.651,46.921
3.6750000000000003,4.934,8.957,-5.892,52.786,-4.598,8.526,6.371,58.651,-4.602,7.909,-6.615,-5.865,-52.786,52.786
3.68,4.598,10.059,-5.365,58.651,-4.311,9.484,5.796,58.651,-4.314,8.197,-6.183,-5.865,-46.921,52.786
3.685,4.119,11.113,-4.742,58.651,-4.072,10.49,5.125,58.651,-4.17,9.059,-5.608,0.0,-41.056,58.651
3.69,3.497,11.4,-4.072,46.921,-3.688,11.209,4.359,52.786,-4.17,10.066,-5.033,5.865,-41.056,52.786
3.6950000000000003,3.114,11.017,-3.353,41.056,-3.497,11.209,3.688,41.056,-4.026,11.073,-4.17,5.865,-41.056,46.921
3.7,2.73,10.203,-2.778,29.326,-3.401,10.778,3.114,29.326,-3.883,11.36,-3.451,17.595,-46.921,41.056
3.705,2.443,9.149,-2.347,11.73,-3.305,10.059,2.635,11.73,-4.026,11.216,-2.876,17.595,-52.786,29.326
3.71,2.203,8.143,-1.964,-0.0,-3.114,9.293,2.251,5.865,-4.17,10.785,-2.301,5.865,-58.651,11.73
3.715,2.06,7.233,-1.82,-5.865,-3.066,8.478,2.06,-5.865,-4.026,10.21,-2.013,5.865,-70.381,0.0
3.72,2.012,6.658,-1.868,-17.595,-3.018,7.951,2.108,-11.73,-4.026,9.635,-1.869,-5.865,-82.111,-5.865
3.725,2.06,6.419,-2.06,-17.595,-2.922,7.664,2.299,-17.595,-3.883,9.059,-1.869,-17.595,-99.707,-17.595
3.73,2.203,6.562,-2.347,-23.46,-2.874,7.568,2.587,-23.46,-3.739,8.772,-2.013,-29.326,-111.437,-17.595
3.735,2.635,6.993,-2.73,-23.46,-2.97,7.616,2.97,-23.46,-3.451,8.484,-2.301,-41.056,-123.167,-23.46
3.74,3.066,7.425,-3.018,-23.46,-3.114,7.472,3.257,-23.46,-3.307,8.053,-2.732,-52.786,-134.897,-23.46
3.745,3.161,7.712,-3.305,-29.326,-3.114,7.329,3.545,-23.46,-3.164,7.621,-3.02,-58.651,-140.762,-23.46
3.75,3.305,7.951,-3.593,-29.326,-2.97,7.185,3.832,-29.326,-3.02,7.046,-3.307,-64.516,-146.628,-23.46
3.755,3.401,8.143,-3.784,-29.326,-3.018,6.993,4.072,-23.46,-2.732,6.471,-3.595,-58.651,-146.628,-23.46
3.7600000000000002,3.593,8.335,-3.928,-23.46,-3.018,6.85,4.311,-23.46,-2.732,5.896,-3.883,-52.786,-146.628,-23.46
3.765,3.593,8.862,-4.167,-17.595,-2.826,6.993,4.551,-17.595,-2.588,5.464,-4.026,-41.056,-140.762,-23.46
3.77,3.593,9.676,-4.359,-11.73,-2.73,7.664,4.742,-11.73,-2.301,5.464,-4.314,-23.46,-140.762,-17.595
3.775,3.688,10.059,-4.215,-5.865,-2.826,8.191,4.646,-5.865,-2.157,5.896,-4.458,-5.865,-134.897,-11.73
3.7800000000000002,3.64,10.251,-3.928,-5.865,-2.874,8.574,4.311,0.0,-2.157,6.471,-4.458,17.595,-123.167,-5.865
3.785,3.257,10.203,-3.736,-0.0,-2.587,8.814,4.119,0.0,-2.301,7.19,-4.17,41.056,-117.302,0.0
3.79,3.114,10.011,-3.64,-5.865,-2.539,8.862,3.976,0.0,-2.157,7.621,-3.883,58.651,-111.437,0.0
3.795,2.826,9.628,-3.449,-5.865,-2.443,8.909,3.784,-5.865,-2.157,7.909,-3.739,76.246,-105.572,-5.865
3.8000000000000003,2.635,9.341,-3.161,-5.865,-2.299,8.909,3.449,0.0,-2.157,8.197,-3.595,93.842,-99.707,-5.865
3.805,2.395,9.245,-2.874,-5.865,-2.203,9.053,3.161,0.0,-2.157,8.484,-3.164,105.572,-99.707,0.0
3.81,2.108,9.245,-2.73,-5.865,-2.012,9.341,2.97,0.0,-2.157,8.916,-2.876,111.437,-93.842,0.0
3.815,1.868,9.293,-2.587,-5.865,-1.964,9.724,2.778,-5.865,-2.013,9.347,-2.732,117.302,-93.842,-5.865
3.8200000000000003,1.677,9.484,-2.395,-11.73,-1.868,10.155,2.635,-5.865,-2.157,10.066,-2.588,117.302,-99.707,-5.865
3.825,1.485,9.82,-2.347,-11.73,-1.772,10.634,2.539,-11.73,-2.157,10.641,-2.301,111.437,-99.707,-5.865
3.83,1.341,10.011,-2.251,-17.595,-1.677,10.921,2.443,-17.595,-2.157,11.36,-2.157,111.437,-105.572,-11.73
3.835,1.198,10.155,-2.108,-23.46,-1.581,11.113,2.299,-23.46,-2.013,11.648,-2.157,99.707,-111.437,-17.595
3.84,1.054,10.251,-2.108,-29.326,-1.389,11.113,2.299,-29.326,-2.013,11.792,-2.013,93.842,-117.302,-23.46
3.845,0.958,10.251,-2.203,-41.056,-1.245,11.017,2.395,-41.056,-1.869,11.792,-2.013,87.977,-123.167,-35.191
3.85,0.91,10.155,-2.443,-46.921,-1.102,10.825,2.682,-46.921,-1.726,11.648,-2.157,76.246,-129.032,-41.056
3.855,0.814,9.82,-2.587,-52.786,-1.006,10.49,2.778,-52.786,-1.438,11.36,-2.301,70.381,-134.897,-46.921
3.86,0.814,9.436,-2.587,-58.651,-0.91,10.059,2.826,-58.651,-1.294,10.929,-2.445,64.516,-140.762,-58.651
3.865,0.862,9.005,-2.682,-64.516,-0.814,9.58,2.922,-64.516,-1.15,10.497,-2.445,64.516,-146.628,-58.651
3.87,0.766,8.574,-2.874,-70.381,-0.719,9.101,3.114,-70.381,-1.007,9.922,-2.588,58.651,-152.493,-70.381
3.875,0.91,8.191,-2.97,-76.246,-0.719,8.67,3.209,-76.246,-0.863,9.491,-2.732,52.786,-152.493,-70.381
3.88,0.766,7.856,-3.066,-76.246,-0.575,8.287,3.305,-76.246,-0.575,8.916,-2.876,46.921,-158.358,-76.246
3.8850000000000002,0.719,7.616,-3.114,-76.246,-0.479,7.904,3.353,-82.111,-0.575,8.484,-3.02,46.921,-158.358,-76.246
3.89,0.766,7.472,-3.161,-82.111,-0.479,7.616,3.401,-82.111,-0.431,8.053,-3.02,46.921,-158.358,-82.111
3.895,0.719,7.329,-3.209,-82.111,-0.431,7.377,3.497,-82.111,-0.431,7.621,-3.164,41.056,-158.358,-82.111
3.9,0.575,7.185,-3.257,-82.111,-0.287,7.185,3.545,-82.111,-0.288,7.334,-3.164,46.921,-158.358,-82.111
3.9050000000000002,0.479,7.089,-3.353,-82.111,-0.24,7.041,3.64,-82.111,-0.144,7.046,-3.307,46.921,-158.358,-82.111
3.91,0.479,6.946,-3.497,-82.111,-0.24,6.802,3.784,-82.111,0.0,6.902,-3.307,46.921,-152.493,-82.111
3.915,0.431,6.946,-3.688,-82.111,-0.192,6.658,3.976,-82.111,-0.144,6.615,-3.451,52.786,-152.493,-82.111
3.92,0.479,6.946,-3.976,-82.111,-0.192,6.562,4.263,-82.111,0.0,6.327,-3.739,52.786,-152.493,-82.111
3.9250000000000003,0.766,6.898,-4.263,-76.246,-0.383,6.419,4.551,-76.246,0.0,6.04,-4.026,58.651,-152.493,-82.111
3.93,0.91,6.802,-4.598,-76.246,-0.479,6.467,4.886,-76.246,-0.144,5.896,-4.314,64.516,-152.493,-76.246
3.935,1.006,6.562,-4.982,-70.381,-0.671,6.61,5.269,-70.381,-0.144,6.04,-4.602,76.246,-152.493,-76.246
3.94,1.15,6.371,-5.317,-70.381,-0.862,6.802,5.604,-70.381,-0.431,6.471,-5.033,82.111,-146.628,-70.381
3.9450000000000003,1.341,6.323,-5.509,-64.516,-1.102,6.993,5.796,-70.381,-0.719,7.046,-5.321,82.111,-146.628,-70.381
3.95,1.533,6.275,-5.652,-64.516,-1.293,7.137,5.94,-70.381,-0.863,7.478,-5.608,82.111,-140.762,-70.381
3.955,1.581,6.275,-5.7,-70.381,-1.437,7.185,5.988,-70.381,-1.15,7.765,-5.752,76.246,-140.762,-70.381
3.96,1.581,6.275,-5.652,-70.381,-1.437,7.185,5.94,-76.246,-1.294,7.909,-5.752,70.381,-140.762,-70.381
3.9650000000000003,1.629,6.323,-5.556,-76.246,-1.485,7.089,5.892,-76.246,-1.438,7.909,-5.752,64.516,-134.897,-76.246
3.97,1.629,6.227,-5.509,-76.246,-1.533,6.85,5.796,-76.246,-1.438,7.621,-5.608,58.651,-134.897,-76.246
3.975,1.581,6.035,-5.461,-82.111,-1.533,6.658,5.748,-82.111,-1.438,7.334,-5.608,52.786,-134.897,-82.111
3.98,1.581,5.94,-5.556,-76.246,-1.581,6.467,5.844,-82.111,-1.582,7.046,-5.608,46.921,-140.762,-82.111
3.985,1.724,5.892,-5.652,-76.246,-1.629,6.323,5.94,-82.111,-1.582,6.759,-5.608,41.056,-140.762,-82.111
3.99,1.964,5.796,-5.748,-76.246,-1.82,6.179,6.083,-82.111,-1.582,6.615,-5.752,35.191,-140.762,-82.111
3.995,2.156,5.748,-5.94,-76.246,-1.916,6.083,6.275,-76.246,-1.726,6.327,-5.896,35.191,-140.762,-82.111
4.0,2.395,5.796,-6.131,-76.246,-2.06,6.035,6.514,-76.246,-1.726,6.183,-6.04,29.326,-140.762,-82.111
4.005,2.539,5.892,-6.323,-70.381,-2.156,6.131,6.706,-76.246,-1.726,6.183,-6.327,29.326,-140.762,-76.246
4.01,2.682,5.988,-6.419,-70.381,-2.251,6.179,6.802,-70.381,-1.869,6.183,-6.471,29.326,-134.897,-76.246
4.015,2.73,6.275,-6.419,-70.381,-2.299,6.371,6.802,-70.381,-1.869,6.183,-6.615,29.326,-129.032,-70.381
4.0200000000000005,2.778,6.658,-6.323,-64.516,-2.347,6.658,6.754,-64.516,-2.013,6.471,-6.615,29.326,-129.032,-70.381
4.025,2.73,7.137,-6.275,-58.651,-2.251,6.993,6.658,-64.516,-1.869,6.615,-6.615,29.326,-123.167,-64.516
4.03,2.635,7.616,-6.131,-58.651,-2.251,7.425,6.514,-58.651,-1.869,6.902,-6.471,29.326,-123.167,-64.516
4.035,2.491,8.143,-6.035,-52.786,-2.156,7.904,6.419,-52.786,-1.869,7.19,-6.327,29.326,-117.302,-58.651
4.04,2.347,8.67,-5.94,-52.786,-2.06,8.43,6.323,-52.786,-1.869,7.621,-6.183,35.191,-111.437,-58.651
4.045,2.299,8.718,-5.844,-46.921,-2.06,8.622,6.179,-46.921,-1.869,8.197,-6.04,41.056,-111.437,-52.786
4.05,2.251,8.814,-5.652,-41.056,-2.012,8.862,5.988,-46.921,-1.869,8.484,-6.04,41.056,-111.437,-46.921
4.055,2.06,9.149,-5.556,-41.056,-1.916,9.293,5.94,-41.056,-1.869,8.772,-5.752,46.921,-105.572,-46.921
4.0600000000000005,2.06,9.388,-5.509,-41.056,-1.964,9.772,5.844,-41.056,-1.869,9.347,-5.752,46.921,-105.572,-41.056
4.065,1.964,9.676,-5.509,-41.056,-1.82,10.155,5.796,-41.056,-1.869,9.922,-5.608,46.921,-105.572,-41.056
4.07,1.916,9.915,-5.461,-41.056,-1.772,10.442,5.796,-41.056,-1.726,10.497,-5.608,46.921,-105.572,-46.921
4.075,1.916,10.299,-5.413,-46.921,-1.724,10.825,5.748,-46.921,-1.726,10.785,-5.608,41.056,-111.437,-41.056
4.08,1.868,10.682,-5.461,-46.921,-1.677,11.209,5.748,-46.921,-1.582,11.216,-5.608,41.056,-111.437,-46.921
4.085,1.772,10.969,-5.413,-46.921,-1.629,11.496,5.7,-52.786,-1.582,11.648,-5.608,35.191,-111.437,-46.921
4.09,1.629,11.209,-5.413,-52.786,-1.437,11.592,5.7,-52.786,-1.582,11.792,-5.608,29.326,-111.437,-52.786
4.095,1.581,11.64,-5.317,-52.786,-1.293,11.736,5.604,-52.786,-1.438,11.792,-5.464,29.326,-111.437,-52.786
4.1,1.724,12.167,-5.173,-58.651,-1.245,12.071,5.461,-58.651,-1.15,11.648,-5.464,23.46,-111.437,-52.786
4.105,1.724,12.262,-5.077,-58.651,-1.293,12.071,5.413,-64.516,-1.007,11.792,-5.321,23.46,-111.437,-58.651
4.11,1.389,12.215,-5.077,-64.516,-0.862,11.879,5.413,-64.516,-1.007,11.792,-5.177,29.326,-111.437,-64.516
4.115,1.485,12.023,-4.982,-64.516,-0.958,11.688,5.317,-64.516,-0.575,11.504,-5.321,35.191,-111.437,-64.516
4.12,1.629,11.688,-4.742,-70.381,-1.054,11.352,5.125,-70.381,-0.575,11.216,-5.177,41.056,-105.572,-64.516
4.125,1.437,11.304,-4.694,-70.381,-0.814,10.969,5.03,-70.381,-0.719,10.929,-4.889,46.921,-105.572,-70.381
4.13,1.293,10.825,-4.551,-76.246,-0.766,10.49,4.886,-76.246,-0.431,10.497,-4.889,52.786,-99.707,-70.381
4.135,1.341,10.346,-4.311,-76.246,-0.814,10.059,4.646,-76.246,-0.431,10.066,-4.745,58.651,-99.707,-76.246
4.14,1.15,9.82,-4.072,-76.246,-0.623,9.484,4.455,-76.246,-0.431,9.635,-4.458,64.516,-93.842,-76.246
4.1450000000000005,0.91,9.436,-3.832,-76.246,-0.431,9.101,4.167,-82.111,-0.288,9.059,-4.314,70.381,-93.842,-76.246
4.15,0.766,9.149,-3.593,-76.246,-0.383,8.814,3.976,-82.111,-0.144,8.628,-4.026,76.246,-87.977,-76.246
4.155,0.527,9.005,-3.401,-82.111,-0.24,8.718,3.784,-82.111,-0.144,8.484,-3.739,82.111,-87.977,-82.111
4.16,0.287,8.957,-3.353,-76.246,-0.096,8.718,3.688,-82.111,-0.144,8.34,-3.595,87.977,-82.111,-82.111
4.165,0.048,8.909,-3.305,-76.246,0.048,8.766,3.593,-82.111,0.0,8.34,-3.451,93.842,-82.111,-82.111
4.17,-0.144,8.957,-3.353,-82.111,0.192,8.814,3.64,-82.111,0.0,8.484,-3.307,99.707,-82.111,-82.111
4.175,-0.192,9.053,-3.449,-76.246,0.24,8.862,3.736,-82.111,0.144,8.484,-3.451,105.572,-82.111,-82.111
4.18,-0.24,9.245,-3.64,-82.111,0.383,9.149,3.928,-82.111,0.288,8.484,-3.451,111.437,-82.111,-82.111
4.1850000000000005,-0.479,9.197,-4.024,-76.246,0.527,9.341,4.311,-82.111,0.431,8.772,-3.739,111.437,-87.977,-82.111
4.19,-0.766,9.245,-4.407,-76.246,0.719,9.628,4.694,-76.246,0.575,9.203,-4.026,117.302,-87.977,-82.111
4.195,-0.814,9.532,-4.838,-70.381,0.814,10.107,5.077,-70.381,0.719,9.778,-4.458,117.302,-87.977,-76.246
4.2,-0.814,9.82,-5.03,-64.516,0.671,10.73,5.317,-64.516,0.863,10.354,-4.889,117.302,-93.842,-70.381
4.205,-0.814,10.586,-5.269,-58.651,0.719,11.64,5.556,-64.516,0.575,11.36,-5.033,117.302,-93.842,-64.516
4.21,-0.814,11.017,-5.413,-58.651,0.623,12.358,5.604,-64.516,0.575,12.367,-5.321,111.437,-99.707,-64.516
4.215,-0.958,11.64,-5.604,-58.651,0.671,13.077,5.844,-58.651,0.431,13.23,-5.321,99.707,-99.707,-64.516
4.22,-0.814,12.406,-5.892,-58.651,0.575,13.987,6.131,-58.651,0.431,14.092,-5.608,93.842,-105.572,-64.516
4.225,-0.766,12.789,-6.131,-64.516,0.335,14.562,6.371,-64.516,0.288,15.099,-5.896,76.246,-111.437,-64.516
4.23,-0.719,13.268,-6.371,-64.516,0.431,14.945,6.562,-64.516,-0.144,15.818,-6.04,64.516,-117.302,-64.516
4.235,-0.479,13.652,-6.514,-70.381,0.287,15.184,6.706,-76.246,0.0,16.106,-6.327,52.786,-129.032,-70.381
4.24,-0.144,13.699,-6.754,-82.111,0.192,14.945,6.946,-82.111,0.0,16.249,-6.471,35.191,-134.897,-76.246
4.245,0.0,13.46,-7.089,-87.977,0.287,14.37,7.329,-87.977,0.288,15.674,-6.759,23.46,-140.762,-82.111
4.25,0.431,13.077,-7.185,-93.842,-0.048,13.747,7.425,-99.707,0.431,14.811,-7.046,5.865,-146.628,-87.977
4.255,0.719,12.406,-7.377,-105.572,-0.192,12.837,7.616,-105.572,0.288,14.092,-7.19,5.865,-146.628,-99.707
4.26,0.814,11.496,-7.472,-105.572,-0.192,11.64,7.808,-111.437,0.288,12.942,-7.334,0.0,-146.628,-105.572
4.265,1.198,10.538,-7.377,-105.572,-0.527,10.394,7.712,-105.572,0.288,11.504,-7.478,0.0,-146.628,-105.572
4.2700000000000005,1.533,9.676,-7.185,-105.572,-0.623,9.245,7.568,-105.572,0.144,10.066,-7.478,0.0,-146.628,-111.437
4.275,1.964,9.005,-6.85,-99.707,-1.054,8.287,7.281,-99.707,0.144,8.628,-7.334,5.865,-140.762,-105.572
4.28,2.347,8.526,-6.514,-93.842,-1.341,7.712,6.946,-93.842,-0.288,7.478,-7.046,5.865,-134.897,-99.707
4.285,2.443,7.904,-6.083,-82.111,-1.581,7.233,6.514,-82.111,-0.431,6.902,-6.759,23.46,-123.167,-93.842
4.29,2.395,7.472,-5.509,-70.381,-1.724,6.85,5.94,-70.381,-0.863,6.471,-6.327,35.191,-117.302,-82.111
4.295,2.635,7.568,-4.838,-58.651,-1.916,6.85,5.221,-58.651,-1.15,6.183,-5.752,41.056,-105.572,-70.381
4.3,2.778,7.808,-4.215,-52.786,-2.108,7.089,4.598,-52.786,-1.294,6.183,-5.033,52.786,-99.707,-58.651
4.305,2.682,7.856,-3.64,-41.056,-2.203,7.377,4.024,-41.056,-1.582,6.471,-4.458,58.651,-93.842,-52.786
4.3100000000000005,2.635,7.999,-3.114,-29.326,-2.299,7.712,3.497,-35.191,-1.869,6.902,-3.883,70.381,-87.977,-46.921
4.315,2.73,8.335,-2.539,-23.46,-2.443,8.191,2.922,-23.46,-2.013,7.478,-3.307,76.246,-82.111,-35.191
4.32,2.73,8.526,-1.964,-17.595,-2.587,8.622,2.299,-17.595,-2.301,8.053,-2.732,76.246,-76.246,-23.46
4.325,2.635,8.622,-1.437,-17.595,-2.587,8.862,1.772,-11.73,-2.588,8.628,-2.157,82.111,-76.246,-17.595
4.33,2.587,8.862,-0.91,-11.73,-2.635,9.245,1.245,-11.73,-2.588,9.059,-1.582,82.111,-76.246,-17.595
4.335,2.587,9.053,-0.383,-11.73,-2.682,9.532,0.671,-11.73,-2.732,9.491,-1.007,82.111,-76.246,-11.73
4.34,2.491,9.101,0.144,-11.73,-2.682,9.724,0.192,-11.73,-2.876,9.922,-0.431,76.246,-76.246,-11.73
4.345,2.347,9.101,0.527,-17.595,-2.682,9.82,-0.24,-11.73,-2.876,10.21,0.144,70.381,-82.111,-11.73
4.3500000000000005,2.299,9.101,0.91,-17.595,-2.682,9.82,-0.671,-17.595,-3.02,10.354,0.575,70.381,-87.977,-17.595
4.355,2.347,8.957,1.245,-23.46,-2.73,9.724,-1.006,-17.595,-3.02,10.497,1.007,64.516,-93.842,-17.595
4.36,2.347,8.718,1.533,-23.46,-2.778,9.484,-1.293,-23.46,-3.164,10.354,1.294,52.786,-99.707,-23.46
4.365,2.347,8.383,1.724,-29.326,-2.778,9.149,-1.485,-29.326,-3.164,10.21,1.582,46.921,-105.572,-23.46
4.37,2.395,7.951,1.82,-35.191,-2.826,8.718,-1.581,-35.191,-3.164,9.922,1.869,41.056,-111.437,-35.191
4.375,2.443,7.425,1.868,-41.056,-2.826,8.239,-1.629,-41.056,-3.307,9.347,1.869,29.326,-117.302,-41.056
4.38,2.491,6.802,1.724,-46.921,-2.874,7.616,-1.485,-46.921,-3.307,8.916,2.013,23.46,-123.167,-46.921
4.385,2.682,6.227,1.533,-52.786,-3.018,6.993,-1.293,-52.786,-3.307,8.34,1.869,5.865,-129.032,-46.921
4.39,2.97,5.844,1.293,-58.651,-3.161,6.514,-1.054,-58.651,-3.307,7.765,1.582,5.865,-140.762,-52.786
4.3950000000000005,3.257,5.413,1.054,-58.651,-3.353,5.94,-0.814,-64.516,-3.451,7.046,1.438,-5.865,-140.762,-58.651
4.4,3.449,4.982,0.766,-64.516,-3.449,5.461,-0.479,-64.516,-3.451,6.471,1.15,-11.73,-146.628,-64.516
4.405,3.736,4.551,0.479,-70.381,-3.64,4.838,-0.24,-70.381,-3.595,5.896,0.863,-17.595,-152.493,-64.516
4.41,3.928,4.119,0.144,-70.381,-3.736,4.311,0.192,-70.381,-3.595,5.177,0.575,-17.595,-152.493,-70.381
4.415,4.263,3.736,-0.24,-76.246,-3.928,3.784,0.575,-76.246,-3.595,4.458,0.144,-23.46,-152.493,-70.381
4.42,4.551,3.305,-0.575,-76.246,-4.167,3.305,0.91,-76.246,-3.595,3.883,-0.288,-23.46,-152.493,-76.246
4.425,4.79,3.018,-1.006,-76.246,-4.311,2.874,1.389,-76.246,-3.883,3.451,-0.719,-23.46,-146.628,-76.246
4.43,5.03,2.73,-1.389,-76.246,-4.407,2.491,1.772,-76.246,-3.883,2.732,-1.15,-23.46,-146.628,-76.246
4.4350000000000005,5.269,2.539,-1.677,-76.246,-4.598,2.299,2.108,-76.246,-3.883,2.445,-1.582,-23.46,-140.762,-76.246
4.44,5.509,2.491,-2.06,-76.246,-4.79,2.299,2.491,-76.246,-4.026,2.157,-1.869,-17.595,-134.897,-76.246
4.445,5.604,2.395,-2.395,-76.246,-4.886,2.251,2.826,-76.246,-4.17,2.157,-2.301,-17.595,-129.032,-76.246
4.45,5.652,2.251,-2.635,-76.246,-4.886,2.203,3.114,-76.246,-4.17,2.301,-2.732,-17.595,-117.302,-76.246
4.455,5.796,2.251,-2.874,-76.246,-5.03,2.203,3.353,-70.381,-4.17,2.301,-3.02,-11.73,-111.437,-76.246
4.46,5.892,2.347,-3.114,-70.381,-5.077,2.203,3.593,-70.381,-4.314,2.301,-3.307,-11.73,-99.707,-70.381
4.465,5.988,2.443,-3.257,-70.381,-5.173,2.203,3.736,-70.381,-4.314,2.157,-3.451,-11.73,-93.842,-70.381
4.47,6.083,2.491,-3.401,-70.381,-5.221,2.251,3.928,-70.381,-4.458,2.157,-3.739,-11.73,-82.111,-70.381
4.4750000000000005,6.131,2.491,-3.545,-70.381,-5.317,2.251,4.072,-64.516,-4.458,2.157,-3.883,-11.73,-70.381,-70.381
4.48,6.179,2.635,-3.784,-64.516,-5.317,2.395,4.311,-64.516,-4.602,2.157,-4.026,-5.865,-58.651,-70.381
4.485,6.275,2.826,-3.976,-64.516,-5.461,2.587,4.503,-64.516,-4.602,2.301,-4.314,-5.865,-52.786,-70.381
4.49,6.419,3.161,-4.119,-64.516,-5.604,2.874,4.646,-58.651,-4.745,2.445,-4.458,-5.865,-41.056,-64.516
4.495,6.467,3.497,-4.359,-58.651,-5.652,3.257,4.886,-58.651,-4.745,2.732,-4.602,0.0,-29.326,-64.516
4.5,6.562,3.928,-4.551,-58.651,-5.796,3.736,5.077,-58.651,-4.889,3.164,-4.889,0.0,-23.46,-58.651
4.505,6.61,4.311,-4.694,-58.651,-5.844,4.215,5.221,-58.651,-5.033,3.739,-5.033,5.865,-11.73,-58.651
4.51,6.467,4.646,-4.694,-52.786,-5.892,4.694,5.221,-52.786,-5.177,4.314,-5.177,5.865,0.0,-58.651
4.515,6.562,5.317,-4.742,-58.651,-5.94,5.221,5.221,-52.786,-5.321,4.889,-5.177,5.865,5.865,-58.651
4.5200000000000005,6.706,6.083,-4.838,-52.786,-6.083,5.748,5.317,-52.786,-5.321,5.321,-5.177,5.865,17.595,-58.651
4.525,6.754,6.467,-4.838,-52.786,-6.275,5.892,5.317,-52.786,-5.464,5.608,-5.321,5.865,23.46,-58.651
4.53,6.61,6.706,-4.742,-52.786,-6.179,6.083,5.221,-52.786,-5.752,5.608,-5.321,5.865,29.326,-58.651
4.535,6.706,7.041,-4.838,-52.786,-6.275,6.275,5.317,-52.786,-5.752,5.608,-5.177,5.865,41.056,-52.786
4.54,6.802,7.185,-5.173,-52.786,-6.371,6.467,5.604,-46.921,-5.896,5.752,-5.177,17.595,46.921,-52.786
4.545,6.898,7.329,-5.461,-46.921,-6.562,6.802,5.892,-46.921,-6.04,6.04,-5.464,23.46,46.921,-52.786
4.55,7.137,7.616,-5.7,-41.056,-6.946,7.281,6.179,-41.056,-6.327,6.471,-5.752,29.326,52.786,-46.921
4.555,7.329,8.047,-6.083,-29.326,-7.089,7.951,6.514,-29.326,-6.759,7.046,-6.04,35.191,58.651,-41.056
4.5600000000000005,7.425,8.622,-6.514,-23.46,-7.233,8.718,6.898,-23.46,-6.902,7.909,-6.471,41.056,58.651,-35.191
4.565,7.52,9.245,-6.898,-17.595,-7.425,9.532,7.281,-17.595,-7.046,8.916,-6.759,41.056,64.516,-23.46
4.57,7.616,9.963,-7.185,-11.73,-7.472,10.394,7.568,-11.73,-7.334,9.922,-7.19,41.056,64.516,-17.595
4.575,7.712,10.73,-7.425,-5.865,-7.52,11.161,7.808,-5.865,-7.334,10.929,-7.478,35.191,64.516,-11.73
4.58,7.664,11.544,-7.616,-5.865,-7.425,11.879,7.999,0.0,-7.334,11.648,-7.765,29.326,64.516,-5.865
4.585,7.472,12.167,-7.712,-5.865,-7.281,12.358,8.095,0.0,-7.19,12.223,-7.909,23.46,70.381,-5.865
4.59,7.041,12.646,-7.76,-5.865,-6.946,12.741,8.143,0.0,-7.046,12.654,-7.909,23.46,70.381,-5.865
4.595,6.85,13.173,-7.712,-5.865,-6.706,13.077,8.095,0.0,-6.902,12.798,-8.053,17.595,70.381,0.0
4.6000000000000005,6.658,13.508,-7.76,-0.0,-6.562,13.316,8.143,5.865,-6.615,13.086,-7.909,17.595,70.381,0.0
4.605,6.323,13.652,-7.616,-0.0,-6.323,13.604,7.999,5.865,-6.471,13.23,-7.909,17.595,70.381,0.0
4.61,5.892,13.987,-7.712,5.865,-5.988,14.035,8.047,11.73,-6.327,13.661,-7.909,17.595,70.381,5.865
4.615,5.892,14.657,-7.808,11.73,-5.892,14.753,8.143,17.595,-6.04,14.092,-7.909,23.46,64.516,5.865
4.62,6.131,15.568,-7.951,11.73,-5.988,15.711,8.287,17.595,-5.896,14.811,-8.053,23.46,64.516,11.73
4.625,6.179,16.382,-8.143,17.595,-6.035,16.813,8.478,23.46,-5.896,15.962,-8.197,17.595,58.651,17.595
4.63,5.94,16.861,-8.335,17.595,-5.892,17.579,8.67,23.46,-5.896,17.256,-8.34,17.595,58.651,17.595
4.635,5.7,17.34,-8.335,17.595,-5.652,18.058,8.622,17.595,-5.896,18.119,-8.484,5.865,58.651,17.595
4.64,5.7,17.627,-7.951,11.73,-5.652,18.346,8.239,11.73,-5.608,18.694,-8.484,5.865,52.786,17.595
4.6450000000000005,5.461,17.579,-7.52,5.865,-5.413,18.154,7.808,11.73,-5.608,18.982,-8.053,0.0,52.786,11.73
4.65,5.173,17.292,-7.089,-0.0,-5.077,17.627,7.425,5.865,-5.321,18.55,-7.765,-5.865,52.786,5.865
4.655,5.077,16.621,-6.658,-5.865,-4.934,16.861,6.993,0.0,-5.033,17.831,-7.334,-11.73,46.921,0.0
4.66,4.79,16.142,-6.514,-5.865,-4.646,16.19,6.898,-5.865,-4.745,16.968,-6.902,-17.595,46.921,-5.865
4.665,4.742,15.232,-6.083,-11.73,-4.455,15.424,6.467,-11.73,-4.602,16.249,-6.759,-17.595,41.056,-5.865
4.67,4.598,14.562,-5.796,-17.595,-4.215,14.61,6.179,-11.73,-4.17,15.53,-6.327,-17.595,41.056,-11.73
4.675,4.311,13.699,-5.461,-11.73,-3.928,13.652,5.796,-11.73,-3.883,14.524,-6.04,-17.595,41.056,-11.73
4.68,4.072,12.885,-4.982,-11.73,-3.545,12.741,5.365,-5.865,-3.595,13.517,-5.752,-17.595,41.056,-11.73
4.6850000000000005,3.88,12.502,-4.551,-11.73,-3.305,12.119,4.934,-5.865,-3.164,12.511,-5.321,-17.595,41.056,-11.73
4.69,3.64,11.736,-3.832,-5.865,-3.114,11.496,4.263,-5.865,-2.876,11.792,-4.889,-11.73,46.921,-5.865
4.695,3.161,11.161,-3.305,-5.865,-2.587,10.873,3.736,0.0,-2.732,11.216,-4.17,-11.73,46.921,-5.865
4.7,2.73,10.682,-2.778,-0.0,-2.203,10.251,3.161,0.0,-2.157,10.497,-3.595,-5.865,52.786,0.0
4.705,2.443,10.059,-2.012,-0.0,-1.916,9.676,2.443,0.0,-1.869,9.778,-3.02,0.0,58.651,0.0
4.71,1.916,9.436,-1.341,-0.0,-1.485,9.101,1.772,5.865,-1.582,9.347,-2.301,5.865,58.651,0.0
4.715,1.389,8.957,-0.719,5.865,-1.006,8.478,1.15,11.73,-1.294,8.628,-1.582,5.865,64.516,0.0
4.72,1.054,8.574,-0.096,11.73,-0.671,8.047,0.479,11.73,-0.719,7.909,-1.007,5.865,64.516,5.865
4.7250000000000005,0.719,8.191,0.623,11.73,-0.431,7.664,-0.192,17.595,-0.431,7.478,-0.288,23.46,70.381,11.73
4.73,0.335,7.856,1.245,11.73,-0.096,7.329,-0.862,17.595,-0.288,7.046,0.431,29.326,70.381,11.73
4.735,-0.096,7.568,1.772,17.595,0.24,7.089,-1.389,17.595,0.0,6.759,1.15,35.191,70.381,17.595
4.74,-0.335,7.377,2.203,17.595,0.479,6.946,-1.82,23.46,0.288,6.615,1.582,41.056,70.381,17.595
4.745,-0.527,7.185,2.635,17.595,0.623,6.85,-2.299,23.46,0.431,6.471,2.157,52.786,70.381,17.595
4.75,-0.623,7.089,3.018,17.595,0.719,6.802,-2.682,23.46,0.575,6.471,2.588,52.786,70.381,23.46
4.755,-0.766,6.946,3.401,17.595,0.814,6.754,-3.018,23.46,0.719,6.471,3.02,58.651,64.516,23.46
4.76,-0.91,6.802,3.593,11.73,0.91,6.706,-3.257,17.595,0.719,6.615,3.307,64.516,64.516,17.595
4.765,-1.102,6.562,3.832,5.865,1.006,6.61,-3.497,11.73,0.863,6.615,3.595,70.381,64.516,11.73
4.7700000000000005,-1.245,6.227,4.072,-0.0,1.102,6.371,-3.736,5.865,0.719,6.615,3.739,70.381,58.651,11.73
4.775,-1.341,5.94,4.359,-0.0,1.15,6.131,-3.976,0.0,0.863,6.471,4.026,76.246,58.651,5.865
4.78,-1.389,5.7,4.551,-5.865,1.245,5.796,-4.215,0.0,0.863,6.183,4.314,76.246,52.786,0.0
4.785,-1.533,5.509,4.694,-11.73,1.389,5.461,-4.359,-5.865,1.007,5.752,4.458,70.381,46.921,-5.865
4.79,-1.581,5.317,4.886,-17.595,1.533,5.077,-4.551,-11.73,1.15,5.321,4.745,76.246,46.921,-11.73
4.795,-1.772,5.03,5.03,-17.595,1.629,4.694,-4.646,-17.595,1.294,4.745,4.745,76.246,41.056,-17.595
4.8,-1.964,4.598,5.125,-23.46,1.772,4.311,-4.79,-23.46,1.294,4.458,5.033,76.246,35.191,-23.46
4.805,-2.156,4.359,5.077,-29.326,1.868,3.976,-4.742,-23.46,1.438,4.026,5.033,82.111,29.326,-23.46
4.8100000000000005,-2.299,4.167,5.03,-29.326,1.916,3.784,-4.694,-29.326,1.438,3.595,5.033,87.977,23.46,-23.46
4.815,-2.347,4.119,5.077,-29.326,1.916,3.784,-4.742,-29.326,1.438,3.451,5.033,93.842,23.46,-23.46
4.82,-2.347,4.455,4.934,-29.326,1.868,3.976,-4.598,-23.46,1.438,3.307,5.033,99.707,11.73,-23.46
4.825,-2.299,5.173,4.646,-23.46,1.82,4.598,-4.359,-23.46,1.438,3.451,4.889,99.707,5.865,-23.46
4.83,-2.06,5.844,4.359,-23.46,1.677,5.317,-4.072,-23.46,1.294,4.026,4.745,105.572,0.0,-23.46
4.835,-1.82,6.323,4.072,-23.46,1.485,5.892,-3.784,-23.46,1.15,4.889,4.458,117.302,-5.865,-23.46
4.84,-1.677,6.802,3.64,-23.46,1.293,6.419,-3.449,-23.46,1.007,5.464,4.17,123.167,-17.595,-23.46
4.845,-1.533,7.185,3.353,-23.46,1.054,6.946,-3.114,-23.46,0.719,6.04,3.739,129.032,-23.46,-23.46
4.8500000000000005,-1.485,7.664,3.161,-23.46,0.91,7.664,-2.922,-23.46,0.575,6.615,3.451,134.897,-29.326,-23.46
4.855,-1.198,8.718,2.826,-29.326,0.623,8.718,-2.635,-23.46,0.288,7.621,3.307,140.762,-35.191,-23.46
4.86,-1.15,10.107,2.299,-29.326,0.383,10.251,-2.156,-29.326,-0.144,8.628,3.02,140.762,-46.921,-23.46
4.865,-0.862,11.736,1.533,-29.326,0.048,11.927,-1.389,-29.326,-0.431,10.354,2.588,140.762,-58.651,-23.46
4.87,-0.24,13.604,0.527,-23.46,-0.575,13.939,-0.431,-29.326,-0.863,12.079,1.869,140.762,-70.381,-29.326
4.875,0.671,15.711,-0.671,-29.326,-1.341,16.19,0.719,-23.46,-1.438,14.236,0.863,140.762,-82.111,-23.46
4.88,1.724,17.915,-1.964,-29.326,-2.203,18.489,2.012,-35.191,-2.157,16.537,-0.431,140.762,-93.842,-23.46
4.885,2.874,19.974,-3.497,-35.191,-3.114,20.645,3.545,-35.191,-2.876,18.982,-1.726,134.897,-105.572,-35.191
4.89,3.784,21.651,-5.077,-41.056,-3.832,22.513,5.125,-46.921,-3.451,21.282,-3.307,134.897,-117.302,-41.056
4.8950000000000005,4.694,23.04,-6.658,-52.786,-4.455,24.094,6.706,-58.651,-4.026,23.439,-4.889,129.032,-129.032,-46.921
4.9,5.509,24.046,-8.047,-64.516,-5.03,24.381,8.143,-70.381,-4.458,25.021,-6.471,123.167,-134.897,-58.651
4.905,6.131,24.094,-9.245,-76.246,-5.317,24.429,9.293,-76.246,-4.745,26.172,-7.909,117.302,-134.897,-70.381
4.91,6.706,24.094,-10.011,-87.977,-5.604,24.429,10.155,-87.977,-4.745,26.747,-9.059,105.572,-134.897,-82.111
4.915,7.137,24.094,-10.394,-93.842,-5.7,24.381,10.586,-99.707,-4.745,26.315,-10.066,99.707,-134.897,-87.977
4.92,7.185,24.094,-10.394,-105.572,-5.652,24.333,10.586,-105.572,-4.602,25.165,-10.497,99.707,-129.032,-99.707
4.925,7.137,24.094,-10.059,-105.572,-5.556,22.992,10.299,-111.437,-4.458,23.439,-10.497,105.572,-117.302,-105.572
4.93,6.85,23.184,-9.58,-105.572,-5.461,21.459,9.724,-111.437,-4.314,21.426,-10.066,123.167,-105.572,-111.437
4.9350000000000005,6.658,21.651,-8.909,-105.572,-5.413,20.022,9.053,-105.572,-4.314,19.844,-9.491,140.762,-93.842,-105.572
4.94,6.227,19.447,-7.951,-93.842,-5.365,18.681,8.047,-99.707,-4.458,18.55,-8.772,158.358,-82.111,-105.572
4.945,6.658,19.16,-7.52,-87.977,-5.556,18.298,7.664,-87.977,-4.602,17.831,-7.765,181.818,-70.381,-99.707
4.95,7.089,18.873,-7.137,-87.977,-6.323,18.585,7.185,-87.977,-4.745,17.544,-7.334,193.548,-58.651,-87.977
4.955,6.514,17.531,-6.658,-99.707,-6.227,18.442,6.658,-99.707,-5.752,18.55,-6.902,205.279,-52.786,-93.842
4.96,5.7,15.759,-5.94,-105.572,-5.844,17.292,5.988,-111.437,-6.04,19.269,-6.327,211.144,-46.921,-105.572
4.965,5.652,14.37,-5.077,-105.572,-5.892,15.951,5.125,-111.437,-6.04,18.55,-5.608,205.279,-41.056,-111.437
4.97,5.748,13.22,-4.263,-105.572,-5.844,14.514,4.359,-111.437,-6.183,17.256,-4.889,193.548,-41.056,-111.437
4.9750000000000005,5.652,12.071,-3.64,-105.572,-5.652,12.933,3.784,-105.572,-5.896,15.674,-4.17,175.953,-46.921,-111.437
4.98,5.796,11.161,-2.97,-105.572,-5.604,11.4,3.161,-105.572,-5.752,13.661,-3.595,164.223,-46.921,-105.572
4.985,5.892,10.299,-2.395,-105.572,-5.556,10.059,2.635,-105.572,-5.464,11.648,-3.02,152.493,-52.786,-105.572
4.99,5.748,9.628,-2.156,-105.572,-5.413,9.101,2.443,-105.572,-5.321,9.922,-2.445,146.628,-52.786,-105.572
4.995,5.892,8.957,-1.916,-99.707,-5.509,8.478,2.203,-99.707,-5.177,8.772,-2.157,146.628,-46.921,-105.572
5.0,5.892,8.239,-1.677,-93.842,-5.556,7.999,1.916,-93.842,-5.177,8.053,-1.869,152.493,-46.921,-99.707
5.005,5.844,7.664,-1.341,-82.111,-5.509,7.568,1.629,-87.977,-5.177,7.909,-1.726,158.358,-41.056,-93.842
5.01,5.748,7.137,-0.91,-82.111,-5.461,7.137,1.198,-82.111,-5.321,7.621,-1.294,158.358,-35.191,-87.977
5.015,5.748,6.658,-0.383,-76.246,-5.461,6.658,0.671,-82.111,-5.177,7.334,-1.007,164.223,-29.326,-82.111
5.0200000000000005,5.509,6.131,0.048,-76.246,-5.317,6.083,0.24,-76.246,-5.321,6.759,-0.431,164.223,-29.326,-82.111
5.025,5.125,5.413,0.431,-76.246,-5.03,5.365,-0.144,-76.246,-5.177,6.183,0.144,158.358,-23.46,-76.246
5.03,4.886,4.838,0.814,-76.246,-4.886,4.79,-0.527,-76.246,-5.033,5.464,0.431,158.358,-23.46,-76.246
5.035,4.646,4.359,1.198,-70.381,-4.694,4.311,-0.91,-70.381,-4.889,4.889,0.863,158.358,-17.595,-76.246
5.04,4.407,3.88,1.581,-64.516,-4.551,3.832,-1.293,-70.381,-4.745,4.314,1.294,158.358,-17.595,-70.381
5.045,4.215,3.353,1.868,-64.516,-4.359,3.353,-1.581,-64.516,-4.602,3.883,1.582,158.358,-17.595,-70.381
5.05,4.072,2.778,2.06,-64.516,-4.263,3.018,-1.772,-64.516,-4.602,3.595,2.013,158.358,-17.595,-70.381
5.055,3.88,2.299,2.156,-64.516,-4.119,2.635,-1.868,-64.516,-4.458,3.307,2.157,158.358,-17.595,-64.516
5.0600000000000005,3.688,1.724,2.251,-64.516,-4.024,2.395,-1.964,-64.516,-4.458,3.164,2.157,152.493,-17.595,-64.516
5.065,3.545,1.245,2.251,-64.516,-3.976,2.108,-1.964,-64.516,-4.314,3.164,2.301,146.628,-23.46,-64.516
5.07,3.497,0.91,2.299,-64.516,-3.928,2.012,-1.964,-64.516,-4.314,3.02,2.301,140.762,-23.46,-64.516
5.075,3.305,0.623,2.203,-64.516,-3.832,1.916,-1.868,-70.381,-4.314,3.02,2.301,134.897,-29.326,-64.516
5.08,3.066,0.335,2.012,-70.381,-3.593,1.772,-1.629,-70.381,-4.17,3.164,2.157,123.167,-29.326,-70.381
5.085,2.874,0.144,1.772,-70.381,-3.449,1.629,-1.389,-70.381,-4.026,3.164,2.013,111.437,-35.191,-70.381
5.09,2.97,0.144,1.581,-76.246,-3.401,1.485,-1.15,-76.246,-3.883,3.02,1.582,93.842,-41.056,-76.246
5.095,2.97,0.144,1.293,-82.111,-3.257,1.389,-0.814,-82.111,-3.739,2.732,1.438,76.246,-46.921,-82.111
5.1000000000000005,2.778,0.192,0.91,-82.111,-3.066,1.293,-0.479,-87.977,-3.595,2.588,1.007,58.651,-52.786,-82.111
5.105,2.347,0.479,0.671,-87.977,-2.73,1.293,-0.24,-87.977,-3.307,2.301,0.719,46.921,-52.786,-82.111
5.11,3.018,1.198,0.431,-93.842,-2.778,1.054,0.048,-93.842,-3.02,2.013,0.431,35.191,-58.651,-93.842
5.115,3.209,1.006,-0.096,-93.842,-2.826,0.479,0.623,-99.707,-2.588,1.007,0.144,23.46,-58.651,-93.842
5.12,2.682,0.335,-0.719,-99.707,-2.395,-0.096,1.293,-99.707,-2.588,0.0,-0.431,23.46,-58.651,-99.707
5.125,2.826,0.192,-1.198,-99.707,-2.299,-0.623,1.772,-99.707,-2.157,-0.575,-1.15,29.326,-52.786,-99.707
5.13,3.353,0.192,-1.581,-93.842,-2.539,-1.054,2.156,-99.707,-1.869,-1.438,-1.582,29.326,-52.786,-99.707
5.135,3.688,-0.144,-1.964,-93.842,-2.826,-1.437,2.539,-93.842,-1.869,-2.157,-2.013,41.056,-46.921,-99.707
5.14,3.593,-0.719,-2.395,-87.977,-2.778,-1.629,2.97,-87.977,-2.013,-2.445,-2.445,52.786,-35.191,-93.842
5.1450000000000005,3.401,-1.341,-2.635,-87.977,-2.826,-1.82,3.161,-87.977,-2.157,-2.445,-2.876,64.516,-23.46,-93.842
5.15,3.593,-2.012,-2.299,-82.111,-2.97,-2.251,2.874,-82.111,-2.301,-2.301,-3.02,76.246,-17.595,-87.977
5.155,3.64,-1.916,-2.251,-82.111,-3.114,-2.156,2.826,-82.111,-2.445,-2.588,-2.732,82.111,-5.865,-82.111
5.16,3.449,-2.73,-2.156,-82.111,-3.257,-2.443,2.682,-82.111,-2.732,-2.301,-2.732,87.977,5.865,-82.111
5.165,3.161,-3.257,-1.916,-82.111,-3.161,-2.778,2.443,-82.111,-3.02,-2.157,-2.588,87.977,11.73,-87.977
5.17,3.257,-3.688,-1.341,-82.111,-3.353,-3.305,1.868,-82.111,-3.02,-2.445,-2.301,87.977,17.595,-82.111
5.175,3.401,-3.88,-0.766,-76.246,-3.545,-3.832,1.293,-76.246,-3.451,-3.02,-1.582,82.111,23.46,-82.111
5.18,3.497,-4.263,-0.335,-76.246,-3.688,-4.359,0.862,-76.246,-3.595,-3.739,-1.007,76.246,23.46,-76.246
5.1850000000000005,3.736,-4.886,0.0,-76.246,-3.976,-5.03,0.527,-70.381,-3.883,-4.458,-0.719,76.246,23.46,-76.246
5.19,4.024,-5.652,0.24,-70.381,-4.263,-5.796,0.287,-70.381,-4.17,-5.177,-0.288,76.246,23.46,-70.381
5.195,4.167,-6.61,0.479,-64.516,-4.455,-6.706,0.048,-64.516,-4.458,-5.896,-0.0,76.246,23.46,-70.381
5.2,4.311,-7.616,0.719,-58.651,-4.598,-7.664,-0.144,-58.651,-4.602,-6.759,0.144,76.246,23.46,-64.516
5.205,4.359,-8.574,1.006,-46.921,-4.694,-8.574,-0.431,-46.921,-4.745,-7.621,0.431,76.246,23.46,-58.651
5.21,4.407,-9.293,1.245,-35.191,-4.742,-9.293,-0.671,-35.191,-4.889,-8.484,0.719,70.381,23.46,-52.786
5.215,4.311,-9.532,1.341,-17.595,-4.646,-9.532,-0.766,-17.595,-5.033,-9.203,0.863,70.381,23.46,-35.191
5.22,4.167,-9.772,1.581,-5.865,-4.694,-9.341,-1.054,0.0,-4.889,-9.347,1.007,64.516,23.46,-17.595
5.2250000000000005,3.928,-9.58,1.677,11.73,-4.551,-8.814,-1.102,17.595,-5.033,-8.772,1.294,64.516,23.46,0.0
5.23,3.784,-9.915,1.533,29.326,-4.551,-8.526,-1.006,35.191,-4.889,-7.909,1.294,52.786,23.46,17.595
5.235,3.353,-10.825,1.198,46.921,-4.407,-9.053,-0.671,46.921,-5.033,-7.334,1.294,46.921,23.46,29.326
5.24,3.353,-10.825,0.91,64.516,-4.359,-9.101,-0.383,64.516,-5.177,-7.478,0.863,29.326,17.595,46.921
5.245,3.018,-11.113,0.383,76.246,-4.167,-9.149,0.144,82.111,-5.033,-7.621,0.575,5.865,11.73,64.516
5.25,2.395,-10.921,-0.527,93.842,-3.449,-9.005,1.006,99.707,-5.033,-7.334,0.144,-17.595,0.0,76.246
5.255,2.347,-10.346,-1.245,111.437,-3.209,-8.909,1.772,111.437,-4.17,-7.334,-0.863,-41.056,-5.865,93.842
5.26,1.916,-9.963,-2.203,123.167,-2.587,-9.101,2.73,129.032,-3.739,-7.765,-1.582,-64.516,-11.73,111.437
5.265,1.198,-9.532,-3.305,140.762,-1.629,-9.245,3.832,146.628,-3.02,-8.34,-2.588,-87.977,-17.595,123.167
5.2700000000000005,0.91,-9.053,-4.024,164.223,-1.006,-9.676,4.598,170.088,-1.869,-9.203,-3.595,-99.707,-23.46,140.762
5.275,0.335,-8.862,-4.838,187.683,-0.048,-10.49,5.461,193.548,-0.863,-10.354,-4.314,-105.572,-23.46,164.223
5.28,-0.24,-9.053,-5.796,217.009,0.958,-11.257,6.562,222.874,0.288,-12.079,-5.321,-105.572,-23.46,187.683
5.285,-0.048,-7.808,-6.658,252.199,1.437,-10.107,7.472,258.064,1.726,-13.373,-6.327,-93.842,-11.73,217.009
5.29,-0.048,-6.61,-6.898,287.39,1.533,-7.712,7.664,299.12,2.876,-12.223,-7.334,-76.246,0.0,258.064
5.295,-0.719,-5.221,-7.041,322.581,2.06,-4.598,7.76,328.446,3.02,-8.772,-7.621,-52.786,17.595,293.255
5.3,-1.341,-3.688,-6.658,340.176,2.251,-1.485,7.281,346.041,3.307,-4.17,-7.621,-41.056,35.191,322.581
5.305,-2.443,-0.814,-6.323,340.176,2.778,2.491,6.802,357.771,3.164,0.288,-7.19,-41.056,52.786,340.176
5.3100000000000005,-4.024,2.826,-5.269,340.176,3.497,7.377,5.556,351.906,3.164,5.177,-6.615,-52.786,70.381,351.906
5.315,-5.125,7.233,-4.694,328.446,3.976,11.879,4.838,340.176,3.164,11.216,-5.177,-82.111,76.246,346.041
5.32,3.209,23.854,4.886,205.279,-12.55,24.333,-10.873,211.144,3.02,15.818,-4.602,-117.302,76.246,334.311
5.325,-1.245,24.094,24.142,-457.478,-8.814,24.429,-24.333,-621.701,0.0,73.482,17.4,-369.501,0.0,164.223
5.33,-8.287,24.094,24.477,-586.51,-12.789,11.496,-24.525,-926.686,-18.119,53.206,28.472,-592.375,-134.897,-727.272
5.335,-4.79,1.772,8.478,-592.375,5.844,0.144,-9.772,-686.217,-18.406,-3.595,42.996,-563.05,-222.874,-938.416
5.34,13.077,2.682,-23.758,-486.803,-12.789,-1.054,23.806,-510.264,7.046,-2.013,9.922,-369.501,-316.715,-674.487
5.345,23.95,8.047,-24.525,-351.906,-24.237,1.485,24.477,-363.636,-11.792,-4.17,-26.028,-275.66,-346.041,-504.399
5.3500000000000005,23.998,18.25,-21.747,-187.683,-24.525,8.239,21.842,-199.413,-32.211,-1.438,-28.329,-228.739,-346.041,-351.906
5.355,23.998,18.825,-17.627,11.73,-24.525,12.262,18.154,0.0,-34.224,2.445,-22.577,-199.413,-240.469,-193.548
5.36,20.837,23.758,-10.394,158.358,-19.208,18.777,10.778,152.493,-21.139,8.772,-18.263,-152.493,-87.977,5.865
5.365,22.321,24.094,-6.275,199.413,-21.603,24.285,6.658,199.413,-16.681,15.53,-10.641,-105.572,17.595,152.493
5.37,18.585,24.094,-6.419,217.009,-18.25,24.429,6.706,222.874,-19.269,22.289,-6.759,-64.516,70.381,193.548
5.375,13.077,24.094,-6.131,228.739,-13.508,23.327,6.323,234.604,-16.968,26.459,-6.759,-17.595,105.572,217.009
5.38,10.921,16.861,-5.461,228.739,-10.969,15.807,5.7,234.604,-13.086,22.433,-6.183,23.46,129.032,228.739
5.385,7.856,10.634,-5.269,211.144,-7.808,11.017,5.509,217.009,-10.497,15.387,-5.608,46.921,134.897,228.739
5.39,4.215,7.568,-2.682,187.683,-5.173,9.388,2.826,193.548,-7.478,11.792,-5.321,52.786,140.762,211.144
5.3950000000000005,2.73,9.388,1.245,170.088,-3.497,10.538,-1.006,175.953,-5.896,11.216,-2.445,52.786,146.628,187.683
5.4,-0.431,10.969,5.03,140.762,-1.437,12.262,-4.886,146.628,-4.17,11.792,1.438,41.056,140.762,170.088
5.405,-2.491,11.783,7.616,117.302,0.048,13.412,-7.568,123.167,-3.02,13.373,5.321,23.46,129.032,140.762
5.41,-0.24,12.55,9.532,87.977,-1.198,12.837,-9.341,93.842,-2.157,14.668,8.053,5.865,117.302,117.302
5.415,2.108,11.975,8.766,64.516,-2.922,10.778,-8.478,64.516,-2.301,13.086,9.635,0.0,93.842,87.977
5.42,1.437,8.478,7.76,35.191,-2.395,8.191,-7.425,35.191,-3.595,10.066,8.772,-5.865,70.381,64.516
5.425,1.581,6.514,7.329,5.865,-1.677,6.083,-6.946,5.865,-3.164,8.053,7.765,0.0,64.516,29.326
5.43,2.635,5.7,7.808,-5.865,-2.635,4.694,-7.425,0.0,-1.726,5.752,7.19,5.865,52.786,5.865
5.4350000000000005,2.06,4.503,8.335,-5.865,-2.443,4.215,-7.999,0.0,-2.588,4.026,7.621,5.865,52.786,0.0
5.44,2.347,4.359,8.67,-5.865,-2.778,4.263,-8.335,-5.865,-2.876,4.17,8.34,17.595,52.786,0.0
5.445,1.485,4.407,8.287,-11.73,-2.443,4.598,-7.999,-11.73,-3.164,4.458,8.484,23.46,52.786,-11.73
5.45,1.006,4.742,7.712,-17.595,-2.299,5.269,-7.425,-11.73,-3.307,5.033,8.197,23.46,46.921,-11.73
5.455,0.335,5.077,7.041,-11.73,-1.581,5.269,-6.706,-11.73,-3.451,5.752,7.621,17.595,41.056,-17.595
5.46,0.287,5.077,5.988,-11.73,-1.293,4.742,-5.604,-11.73,-2.588,5.464,6.902,5.865,29.326,-11.73
5.465,0.814,4.982,4.79,-17.595,-1.485,4.407,-4.359,-17.595,-2.157,4.458,5.896,5.865,11.73,-11.73
5.47,0.814,4.982,3.305,-17.595,-1.341,4.167,-2.826,-17.595,-2.013,3.883,4.602,5.865,0.0,-17.595
5.4750000000000005,0.814,5.125,2.251,-17.595,-1.198,4.072,-1.724,-17.595,-1.726,3.451,3.02,5.865,-5.865,-17.595
5.48,0.91,5.317,2.203,-23.46,-1.916,3.976,-1.724,-17.595,-1.582,3.164,2.013,23.46,-11.73,-17.595
5.485,0.527,5.173,1.677,-23.46,-0.527,4.359,-1.198,-23.46,-2.732,2.876,2.013,35.191,-17.595,-23.46
5.49,0.671,4.311,0.862,-23.46,-0.814,3.593,-0.383,-17.595,-0.431,3.595,1.438,46.921,-23.46,-23.46
5.495,1.629,3.928,0.671,-17.595,-1.485,3.066,-0.192,-17.595,-0.863,3.02,0.575,58.651,-23.46,-23.46
5.5,1.581,3.832,0.479,-17.595,-1.293,2.922,0.048,-17.595,-1.294,2.445,0.431,70.381,-23.46,-17.595
5.505,1.437,3.88,0.623,-17.595,-1.293,3.018,-0.144,-17.595,-1.007,2.157,0.144,76.246,-23.46,-17.595
5.51,1.677,4.215,1.006,-17.595,-1.629,3.497,-0.575,-11.73,-1.15,2.301,0.431,87.977,-17.595,-17.595
5.515,1.82,4.503,1.389,-17.595,-1.964,3.976,-0.958,-11.73,-1.582,3.02,0.863,93.842,-11.73,-17.595
5.5200000000000005,1.629,4.551,1.533,-11.73,-2.012,4.263,-1.15,-11.73,-2.013,3.595,1.294,99.707,-11.73,-17.595
5.525,1.772,4.742,1.772,-11.73,-2.347,4.598,-1.437,-11.73,-2.301,4.026,1.438,111.437,-11.73,-11.73
5.53,1.677,4.982,1.868,-11.73,-2.395,5.03,-1.533,-11.73,-2.732,4.602,1.726,111.437,-11.73,-11.73
5.535,1.724,5.317,1.868,-11.73,-2.539,5.509,-1.581,-11.73,-3.02,5.177,1.869,111.437,-17.595,-11.73
5.54,1.916,5.892,1.772,-11.73,-2.922,6.227,-1.437,-11.73,-3.164,5.752,1.869,111.437,-23.46,-11.73
5.545,2.203,6.754,1.533,-11.73,-3.305,7.281,-1.245,-11.73,-3.739,6.615,1.726,105.572,-29.326,-11.73
5.55,2.587,7.808,1.245,-11.73,-3.784,8.335,-0.958,-11.73,-4.17,7.909,1.582,105.572,-35.191,-11.73
5.555,2.922,8.957,0.958,-11.73,-4.072,9.436,-0.671,-11.73,-4.602,8.916,1.294,99.707,-46.921,-11.73
5.5600000000000005,3.305,10.155,0.671,-5.865,-4.359,10.442,-0.431,-5.865,-4.889,10.066,1.007,87.977,-58.651,-11.73
5.565,3.784,11.4,0.383,-5.865,-4.694,11.448,-0.144,-5.865,-5.033,10.785,0.719,82.111,-64.516,-5.865
5.57,4.263,12.646,0.144,-5.865,-5.03,12.454,0.144,-5.865,-5.177,11.792,0.431,76.246,-76.246,-5.865
5.575,4.646,13.508,-0.096,-5.865,-5.221,13.029,0.383,-5.865,-5.321,12.511,0.144,70.381,-82.111,-5.865
5.58,4.838,14.083,-0.287,-0.0,-5.413,13.604,0.575,0.0,-5.464,12.942,-0.144,70.381,-87.977,-5.865
5.585,4.838,14.418,-0.383,-5.865,-5.365,13.987,0.623,-5.865,-5.464,13.517,-0.431,70.381,-87.977,0.0
5.59,4.694,14.562,-0.24,-5.865,-5.317,14.035,0.479,-5.865,-5.464,13.805,-0.431,70.381,-87.977,-5.865
5.595,4.503,14.466,0.048,-5.865,-5.221,13.987,0.192,0.0,-5.464,13.805,-0.288,76.246,-87.977,-5.865
5.6000000000000005,4.167,14.131,0.287,-5.865,-4.934,13.795,0.0,-5.865,-5.464,13.805,0.144,76.246,-93.842,-5.865
5.605,3.928,13.652,0.479,-5.865,-4.742,13.46,-0.24,-5.865,-5.177,13.661,0.288,76.246,-93.842,-5.865
5.61,3.832,13.029,0.766,-5.865,-4.742,13.077,-0.575,-5.865,-5.177,13.517,0.575,82.111,-93.842,-5.865
5.615,3.593,12.31,0.862,-5.865,-4.742,12.646,-0.671,0.0,-5.321,13.23,0.863,82.111,-99.707,-5.865
5.62,3.593,11.688,0.814,-5.865,-4.934,12.406,-0.671,0.0,-5.464,13.086,1.007,76.246,-105.572,-5.865
5.625,3.545,11.4,0.766,-5.865,-4.982,12.454,-0.623,-5.865,-5.752,13.23,1.007,76.246,-111.437,-5.865
5.63,3.593,11.257,0.766,-5.865,-5.125,12.454,-0.671,-5.865,-6.04,13.517,1.007,64.516,-123.167,-5.865
5.635,4.024,11.496,0.862,-5.865,-5.365,12.502,-0.766,0.0,-6.183,13.661,1.007,52.786,-134.897,-5.865
5.64,4.79,11.736,0.91,-5.865,-5.748,12.167,-0.766,-5.865,-6.327,13.517,1.15,35.191,-146.628,-5.865
5.6450000000000005,4.982,11.927,0.383,-11.73,-5.796,11.879,-0.24,-5.865,-6.327,12.798,1.15,23.46,-158.358,-5.865
5.65,5.317,12.071,-0.144,-5.865,-6.035,11.879,0.24,-5.865,-6.183,12.079,0.575,5.865,-164.223,-5.865
5.655,5.7,12.598,-0.623,-5.865,-6.419,12.215,0.766,-5.865,-6.327,11.935,0.144,5.865,-170.088,-11.73
5.66,6.227,13.412,-1.102,-5.865,-6.706,12.837,1.293,-5.865,-6.615,12.223,-0.431,5.865,-175.953,-5.865
5.665,6.754,14.131,-1.533,-5.865,-7.041,13.316,1.677,0.0,-6.759,12.654,-1.007,5.865,-175.953,-5.865
5.67,7.185,14.466,-1.677,-5.865,-7.329,13.46,1.868,-5.865,-6.902,12.942,-1.438,5.865,-175.953,-5.865
5.675,7.329,14.37,-1.677,-11.73,-7.425,13.316,1.868,-5.865,-7.046,13.086,-1.582,5.865,-175.953,-5.865
5.68,7.52,14.083,-1.581,-11.73,-7.52,12.885,1.772,-11.73,-7.19,12.798,-1.582,5.865,-170.088,-11.73
5.6850000000000005,7.568,13.412,-1.198,-17.595,-7.52,12.119,1.437,-17.595,-7.19,12.223,-1.582,23.46,-170.088,-11.73
5.69,7.568,12.694,-0.719,-23.46,-7.377,11.161,1.006,-23.46,-7.19,11.504,-1.15,29.326,-164.223,-17.595
5.695,7.472,11.783,-0.048,-23.46,-7.281,10.011,0.335,-23.46,-6.902,10.354,-0.719,41.056,-158.358,-23.46
5.7,7.185,10.586,0.671,-29.326,-7.041,8.766,-0.335,-23.46,-6.759,8.916,-0.144,46.921,-152.493,-23.46
5.705,6.467,9.197,1.533,-29.326,-6.85,7.472,-1.198,-29.326,-6.615,7.621,0.719,64.516,-140.762,-23.46
5.71,6.083,7.904,1.724,-23.46,-6.035,6.467,-1.437,-23.46,-6.902,6.471,1.438,76.246,-134.897,-23.46
5.715,5.461,6.371,1.82,-23.46,-5.844,5.317,-1.581,-23.46,-5.752,5.608,1.869,87.977,-129.032,-23.46
5.72,5.269,4.551,1.82,-17.595,-5.796,4.167,-1.581,-17.595,-6.04,4.745,1.869,99.707,-129.032,-23.46
5.7250000000000005,5.03,2.97,1.724,-11.73,-5.461,3.209,-1.485,-11.73,-6.183,4.026,2.013,111.437,-129.032,-17.595
5.73,4.934,1.485,1.677,-5.865,-5.461,2.06,-1.485,-5.865,-5.752,3.739,1.869,111.437,-129.032,-11.73
5.735,5.03,0.287,1.868,-0.0,-5.509,0.91,-1.629,0.0,-5.896,2.732,1.869,105.572,-129.032,-5.865
5.74,4.79,-0.719,2.108,11.73,-5.365,-0.192,-1.868,11.73,-5.752,1.726,2.013,99.707,-134.897,0.0
5.745,4.742,-1.102,2.203,23.46,-4.934,-0.862,-1.916,23.46,-5.752,0.431,2.157,87.977,-140.762,11.73
5.75,4.742,-1.293,2.203,23.46,-4.838,-1.293,-1.868,23.46,-5.177,-0.431,2.301,76.246,-140.762,23.46
5.755,4.646,-1.533,1.964,17.595,-4.742,-1.198,-1.629,17.595,-5.033,-1.007,2.157,70.381,-146.628,23.46
5.76,4.359,-1.82,1.629,11.73,-4.694,-1.15,-1.341,17.595,-4.889,-0.719,2.013,64.516,-146.628,17.595
5.765,3.88,-1.964,1.15,23.46,-4.311,-1.245,-0.91,23.46,-5.033,-0.431,1.726,52.786,-146.628,11.73
5.7700000000000005,3.593,-1.868,0.766,29.326,-3.928,-1.245,-0.479,29.326,-4.745,-0.575,1.294,46.921,-146.628,23.46
5.775,3.784,-1.293,0.431,35.191,-3.88,-1.102,-0.144,35.191,-4.17,-0.575,0.863,29.326,-152.493,29.326
5.78,3.976,-1.15,0.24,29.326,-3.88,-1.293,0.096,35.191,-4.026,-0.863,0.431,23.46,-158.358,29.326
5.785,3.832,-1.054,-0.192,29.326,-3.305,-1.772,0.575,29.326,-3.739,-1.294,0.144,5.865,-158.358,29.326
5.79,3.688,-1.389,-0.719,23.46,-2.922,-2.539,1.15,23.46,-2.876,-2.157,-0.288,5.865,-158.358,29.326
5.795,3.88,-1.916,-1.293,5.865,-3.161,-3.114,1.772,11.73,-2.445,-3.307,-0.863,5.865,-152.493,23.46
5.8,4.215,-2.443,-1.82,-0.0,-3.449,-3.593,2.299,5.865,-2.588,-4.026,-1.582,23.46,-146.628,11.73
5.805,4.359,-2.635,-2.587,5.865,-3.545,-3.832,3.114,5.865,-2.732,-4.314,-2.157,29.326,-140.762,0.0
5.8100000000000005,4.503,-2.73,-3.257,17.595,-3.593,-3.784,3.736,23.46,-2.876,-4.745,-2.876,41.056,-129.032,5.865
5.815,3.784,-2.73,-4.072,35.191,-3.209,-3.497,4.503,35.191,-2.876,-4.458,-3.451,46.921,-117.302,17.595
5.82,5.03,-2.108,-4.407,41.056,-3.928,-2.635,4.838,41.056,-3.307,-3.595,-4.026,58.651,-111.437,35.191
5.825,5.509,-2.156,-4.598,41.056,-4.359,-2.156,5.125,41.056,-3.02,-2.876,-4.745,64.516,-99.707,35.191
5.83,6.083,-1.437,-5.03,41.056,-4.79,-1.341,5.556,41.056,-3.451,-1.869,-5.033,64.516,-87.977,41.056
5.835,6.706,-0.814,-5.7,35.191,-5.509,-0.527,6.227,35.191,-3.739,-0.863,-5.464,64.516,-76.246,41.056
5.84,6.85,-0.527,-6.371,23.46,-6.083,0.335,6.898,23.46,-4.458,0.0,-6.183,58.651,-64.516,35.191
5.845,6.754,-0.048,-6.993,23.46,-6.131,1.006,7.425,23.46,-5.321,1.438,-6.759,52.786,-46.921,23.46
5.8500000000000005,6.754,0.766,-7.329,23.46,-6.179,1.437,7.856,29.326,-5.608,2.301,-7.334,41.056,-35.191,17.595
5.855,6.61,1.293,-7.281,29.326,-6.179,1.485,7.76,35.191,-5.464,2.445,-7.765,23.46,-29.326,23.46
5.86,6.179,1.964,-7.041,35.191,-5.796,1.677,7.568,35.191,-5.608,2.013,-7.765,5.865,-17.595,29.326
5.865,5.7,2.826,-6.706,35.191,-5.317,1.964,7.281,35.191,-5.321,1.726,-7.478,0.0,-11.73,35.191
5.87,5.892,4.072,-6.706,35.191,-5.03,2.443,7.329,35.191,-4.889,1.582,-7.19,-5.865,0.0,29.326
5.875,6.371,4.79,-7.089,35.191,-5.413,2.874,7.712,41.056,-4.17,1.294,-7.334,0.0,5.865,35.191
5.88,6.419,5.269,-7.52,46.921,-5.652,3.688,8.095,46.921,-4.314,1.582,-7.621,5.865,17.595,35.191
5.885,6.227,5.94,-8.047,58.651,-5.892,4.982,8.526,58.651,-4.745,2.732,-8.053,29.326,29.326,46.921
5.89,6.371,6.946,-8.574,70.381,-6.275,6.658,9.053,70.381,-5.321,4.602,-8.484,41.056,41.056,58.651
5.8950000000000005,6.514,8.383,-8.957,76.246,-6.658,8.43,9.388,82.111,-5.896,6.759,-8.916,46.921,52.786,70.381
