time_aligned_sec,L_Acc_X_aligned,L_Acc_Y_aligned,L_Acc_Z_aligned,L_Gyro_Z_aligned,R_Acc_X_aligned,R_Acc_Y_aligned,R_Acc_Z_aligned,R_Gyro_Z_aligned,T_Acc_X_aligned,T_Acc_Y_aligned,T_Acc_Z_aligned,T_Gyro_X_aligned,T_Gyro_Y_aligned,T_Gyro_Z_aligned
0.0,4.79,5.7,-6.419,-0.0,-4.646,5.988,6.946,-5.865,4.745,5.608,6.615,-5.865,35.191,5.865
0.005,4.886,5.796,-6.419,-0.0,-4.598,5.94,6.85,-5.865,4.889,5.752,6.615,-5.865,35.191,5.865
0.01,4.886,5.796,-6.419,-5.865,-4.598,5.892,6.802,-5.865,5.033,5.752,6.615,-5.865,35.191,5.865
0.015,4.838,5.844,-6.323,-5.865,-4.646,5.892,6.754,-5.865,4.889,5.752,6.615,-5.865,35.191,5.865
0.02,4.886,5.844,-6.275,-5.865,-4.598,5.892,6.706,-5.865,4.889,5.896,6.615,-5.865,35.191,5.865
0.025,4.838,5.796,-6.227,-5.865,-4.646,6.035,6.706,-5.865,5.033,5.896,6.471,-5.865,35.191,5.865
0.03,4.838,5.796,-6.179,-5.865,-4.79,6.179,6.706,-5.865,4.889,5.752,6.471,-5.865,35.191,5.865
0.035,5.03,5.988,-6.227,-5.865,-4.646,5.94,6.61,-5.865,5.033,5.896,6.471,-11.73,35.191,5.865
0.04,4.982,6.035,-6.227,-11.73,-4.646,5.844,6.514,-5.865,5.177,6.04,6.471,-11.73,35.191,11.73
0.045,4.79,5.844,-6.035,-11.73,-4.742,5.988,6.467,-5.865,4.889,5.896,6.327,-11.73,35.191,11.73
0.05,4.934,5.892,-5.94,-5.865,-4.694,6.035,6.467,-11.73,4.889,5.896,6.327,-11.73,29.326,11.73
0.055,5.03,5.988,-5.94,-11.73,-4.694,5.988,6.514,-11.73,5.033,6.04,6.183,-11.73,29.326,11.73
0.06,4.886,5.988,-5.988,-11.73,-4.646,5.988,6.371,-11.73,5.033,6.04,6.183,-11.73,29.326,11.73
0.065,4.886,5.988,-5.94,-11.73,-4.694,5.988,6.323,-11.73,4.889,6.04,6.183,-17.595,29.326,11.73
0.07,4.934,6.035,-5.844,-11.73,-4.694,6.131,6.227,-11.73,5.033,6.04,6.183,-17.595,29.326,11.73
0.075,4.934,6.035,-5.796,-11.73,-4.742,6.227,6.227,-11.73,5.033,6.04,6.04,-17.595,29.326,11.73
0.08,4.982,6.131,-5.7,-11.73,-4.79,6.323,6.179,-11.73,5.033,6.183,6.04,-17.595,29.326,11.73
0.085,5.03,6.227,-5.7,-11.73,-4.742,6.371,6.131,-17.595,5.033,6.183,6.04,-17.595,29.326,11.73
0.09,4.982,6.227,-5.652,-11.73,-4.742,6.371,5.988,-17.595,5.033,6.183,5.896,-23.46,29.326,11.73
0.095,4.934,6.179,-5.604,-17.595,-4.79,6.467,5.892,-17.595,4.889,6.04,5.896,-23.46,29.326,17.595
0.1,4.934,6.227,-5.509,-17.595,-4.79,6.562,5.844,-17.595,4.889,6.04,5.752,-23.46,29.326,17.595
0.105,4.982,6.323,-5.413,-17.595,-4.838,6.658,5.844,-17.595,4.889,6.183,5.752,-23.46,29.326,17.595
0.11,5.03,6.419,-5.365,-17.595,-4.838,6.658,5.748,-23.46,5.033,6.327,5.608,-23.46,23.46,17.595
0.115,5.03,6.514,-5.317,-17.595,-4.886,6.61,5.652,-23.46,5.033,6.327,5.608,-23.46,23.46,23.46
0.12,4.982,6.467,-5.221,-23.46,-4.886,6.514,5.556,-23.46,4.889,6.327,5.608,-17.595,23.46,23.46
0.125,4.982,6.467,-5.173,-23.46,-4.838,6.467,5.556,-29.326,4.889,6.327,5.464,-17.595,23.46,23.46
0.13,4.982,6.323,-5.077,-29.326,-4.886,6.371,5.556,-29.326,4.889,6.327,5.321,-17.595,17.595,29.326
0.135,4.934,6.275,-5.077,-29.326,-4.838,6.227,5.509,-35.191,4.889,6.183,5.321,-17.595,17.595,29.326
0.14,4.886,6.131,-5.077,-29.326,-4.838,6.083,5.556,-35.191,4.745,6.183,5.321,-17.595,17.595,29.326
0.145,4.886,6.035,-5.03,-29.326,-4.838,5.94,5.509,-35.191,4.745,6.04,5.321,-17.595,11.73,35.191
0.15,4.886,5.94,-5.03,-35.191,-4.838,5.988,5.652,-35.191,4.745,5.896,5.321,-17.595,5.865,35.191
0.155,4.934,5.94,-5.077,-35.191,-4.886,5.988,5.748,-35.191,4.889,5.896,5.321,-17.595,5.865,35.191
0.16,4.982,5.892,-5.173,-35.191,-4.886,5.844,5.892,-41.056,4.889,5.896,5.321,-17.595,0.0,35.191
0.165,4.934,5.796,-5.317,-35.191,-4.886,5.748,5.988,-41.056,4.889,5.752,5.464,-17.595,0.0,35.191
0.17,4.982,5.652,-5.461,-35.191,-4.886,5.556,6.083,-41.056,4.889,5.608,5.608,-17.595,0.0,41.056
0.17500000000000002,5.03,5.509,-5.461,-41.056,-4.886,5.413,6.323,-41.056,5.033,5.464,5.752,-17.595,0.0,41.056
0.18,4.934,5.317,-5.652,-41.056,-4.886,5.173,6.562,-46.921,4.889,5.321,5.752,-17.595,-5.865,41.056
0.185,4.982,5.077,-5.892,-41.056,-4.742,4.79,6.802,-46.921,4.889,5.033,6.04,-17.595,-5.865,41.056
0.19,4.838,4.694,-6.083,-41.056,-4.79,4.503,7.089,-46.921,4.889,4.745,6.327,-17.595,-5.865,46.921
0.195,4.742,4.311,-6.371,-41.056,-4.646,4.263,7.425,-41.056,4.745,4.314,6.471,-17.595,-11.73,46.921
0.2,4.742,3.976,-6.658,-41.056,-4.694,3.976,7.904,-46.921,4.745,3.739,6.759,-11.73,-11.73,46.921
0.20500000000000002,4.742,3.64,-7.041,-41.056,-4.646,3.497,8.287,-41.056,4.745,3.307,7.046,-5.865,-17.595,41.056
0.21,4.742,3.209,-7.472,-41.056,-4.598,2.97,8.622,-41.056,4.745,3.02,7.621,-5.865,-17.595,46.921
0.215,4.694,2.73,-7.856,-41.056,-4.551,2.395,8.862,-41.056,4.745,2.445,8.053,0.0,-17.595,46.921
0.22,4.694,2.251,-8.143,-41.056,-4.407,1.677,9.245,-41.056,4.889,2.013,8.34,5.865,-17.595,46.921
0.225,4.694,1.82,-8.43,-41.056,-4.311,1.15,9.676,-41.056,4.889,1.726,8.628,5.865,-17.595,41.056
0.23,4.598,1.341,-8.814,-41.056,-4.263,0.623,10.107,-35.191,4.889,1.438,8.916,17.595,-17.595,41.056
0.23500000000000001,4.598,0.958,-9.197,-35.191,-4.167,0.192,10.442,-23.46,4.889,1.007,9.347,17.595,-17.595,41.056
0.24,4.551,0.575,-9.58,-29.326,-4.119,-0.144,10.682,-17.595,5.033,0.719,9.778,23.46,-11.73,35.191
0.245,4.598,0.24,-9.867,-23.46,-4.119,-0.192,10.873,-11.73,5.033,0.431,10.066,17.595,-5.865,29.326
0.25,4.646,0.048,-10.107,-17.595,-4.119,-0.192,11.065,0.0,5.321,0.144,10.354,17.595,0.0,23.46
0.255,4.742,-0.048,-10.299,-5.865,-4.072,-0.096,11.017,5.865,5.464,0.0,10.497,5.865,5.865,11.73
0.26,4.646,-0.144,-10.442,-0.0,-4.072,0.0,10.873,11.73,5.464,-0.144,10.641,5.865,11.73,5.865
0.265,4.598,-0.144,-10.394,5.865,-4.072,0.144,10.586,23.46,5.321,-0.288,10.785,5.865,23.46,0.0
0.27,4.551,-0.048,-10.155,11.73,-4.072,0.527,10.299,29.326,5.177,-0.288,10.641,5.865,29.326,-11.73
0.275,4.503,0.192,-9.915,23.46,-4.072,1.054,9.963,35.191,5.177,-0.144,10.354,5.865,41.056,-17.595
0.28,4.503,0.623,-9.628,35.191,-4.119,1.581,9.628,41.056,5.033,0.288,10.066,5.865,46.921,-23.46
0.28500000000000003,4.455,1.102,-9.293,35.191,-4.167,2.108,9.293,46.921,5.033,0.719,9.778,5.865,52.786,-35.191
0.29,4.455,1.581,-9.005,46.921,-4.215,2.73,8.814,52.786,4.889,1.15,9.491,0.0,58.651,-41.056
0.295,4.503,2.156,-8.574,46.921,-4.359,3.305,8.383,52.786,4.889,1.726,9.203,5.865,64.516,-46.921
0.3,4.646,2.682,-8.143,52.786,-4.359,3.88,7.904,52.786,4.889,2.301,8.772,5.865,64.516,-46.921
0.305,4.646,3.209,-7.76,52.786,-4.407,4.359,7.281,58.651,5.033,2.876,8.34,5.865,70.381,-52.786
0.31,4.694,3.784,-7.233,52.786,-4.455,4.646,6.61,58.651,4.889,3.307,7.765,5.865,76.246,-52.786
0.315,4.742,4.215,-6.61,52.786,-4.455,4.982,6.035,58.651,4.889,3.883,7.334,5.865,76.246,-52.786
0.32,4.694,4.646,-5.988,58.651,-4.503,5.461,5.413,58.651,4.889,4.314,6.615,5.865,76.246,-52.786
0.325,4.646,5.125,-5.365,58.651,-4.598,6.035,4.742,58.651,4.745,4.889,6.04,5.865,82.111,-52.786
0.33,4.694,5.7,-4.79,52.786,-4.694,6.706,4.215,58.651,4.602,5.464,5.321,5.865,82.111,-52.786
0.335,4.838,6.419,-4.167,58.651,-4.742,7.425,3.64,58.651,4.745,6.183,4.745,5.865,82.111,-58.651
0.34,4.934,7.233,-3.64,58.651,-4.886,8.143,3.114,58.651,4.889,7.046,4.17,0.0,76.246,-58.651
0.34500000000000003,4.982,7.951,-3.066,58.651,-5.03,8.766,2.587,52.786,4.889,7.909,3.595,-5.865,76.246,-58.651
0.35000000000000003,5.077,8.67,-2.539,52.786,-5.173,9.436,2.06,52.786,4.889,8.628,3.02,-5.865,76.246,-52.786
0.355,5.221,9.197,-1.964,52.786,-5.317,10.155,1.581,46.921,4.889,9.203,2.445,-11.73,76.246,-52.786
0.36,5.317,9.772,-1.533,46.921,-5.461,10.586,1.102,41.056,5.033,9.778,2.013,-17.595,70.381,-52.786
0.365,5.365,10.299,-1.054,46.921,-5.509,10.969,0.671,35.191,5.033,10.21,1.438,-23.46,70.381,-46.921
0.37,5.461,10.634,-0.575,41.056,-5.652,11.257,0.287,29.326,5.033,10.497,1.007,-23.46,64.516,-41.056
0.375,5.461,10.825,-0.192,35.191,-5.796,11.544,0.096,23.46,4.889,10.785,0.575,-29.326,52.786,-35.191
0.38,5.556,11.017,0.192,29.326,-5.892,11.736,0.0,11.73,4.889,10.785,0.144,-29.326,46.921,-23.46
0.385,5.7,11.209,0.335,17.595,-5.892,11.64,-0.048,0.0,5.033,10.929,-0.144,-29.326,41.056,-17.595
0.39,5.556,11.161,0.383,5.865,-5.94,11.592,-0.048,-5.865,5.033,10.929,-0.288,-23.46,29.326,-11.73
0.395,5.604,11.017,0.431,-0.0,-5.844,11.4,0.096,-11.73,4.745,10.641,-0.288,-23.46,17.595,0.0
0.4,5.652,10.873,0.383,-5.865,-5.7,10.873,0.335,-23.46,4.889,10.497,-0.288,-17.595,5.865,5.865
0.405,5.509,10.538,0.24,-17.595,-5.652,10.346,0.719,-35.191,4.889,10.21,-0.144,-11.73,-5.865,11.73
0.41000000000000003,5.461,10.107,-0.048,-23.46,-5.604,9.915,1.198,-41.056,4.745,9.922,-0.0,-5.865,-17.595,23.46
0.41500000000000004,5.413,9.676,-0.479,-35.191,-5.509,9.293,1.772,-46.921,4.889,9.491,0.431,0.0,-23.46,29.326
0.42,5.413,9.101,-0.958,-41.056,-5.365,8.287,2.443,-58.651,4.889,8.916,0.863,5.865,-35.191,35.191
0.425,5.317,8.43,-1.581,-46.921,-5.125,7.089,3.257,-64.516,4.889,8.34,1.438,5.865,-41.056,46.921
0.43,5.173,7.568,-2.203,-52.786,-4.934,6.035,4.167,-64.516,4.745,7.765,2.157,17.595,-52.786,52.786
0.435,5.03,6.562,-3.066,-58.651,-5.03,4.934,5.173,-64.516,4.889,7.046,2.876,23.46,-58.651,58.651
0.44,5.125,5.652,-3.928,-64.516,-4.79,3.784,6.275,-64.516,4.745,6.183,4.026,23.46,-64.516,64.516
0.445,5.03,4.551,-5.03,-64.516,-4.598,2.778,7.329,-58.651,5.033,5.033,4.602,23.46,-70.381,64.516
0.45,4.982,3.593,-6.083,-58.651,-4.838,1.677,8.335,-52.786,5.033,4.17,5.752,23.46,-70.381,64.516
0.455,5.03,2.539,-7.089,-58.651,-4.646,0.814,9.293,-46.921,5.321,3.164,6.902,23.46,-76.246,58.651
0.46,5.317,1.629,-8.047,-52.786,-4.646,0.144,10.299,-41.056,5.608,2.157,7.765,17.595,-70.381,58.651
0.465,5.269,0.766,-9.005,-46.921,-4.79,-0.527,11.161,-35.191,5.896,1.294,8.772,17.595,-64.516,46.921
0.47000000000000003,5.365,0.096,-9.915,-41.056,-4.646,-0.958,11.879,-23.46,6.04,0.575,9.778,5.865,-58.651,46.921
0.47500000000000003,5.413,-0.431,-10.73,-35.191,-4.742,-1.293,12.358,-11.73,6.183,-0.144,10.641,5.865,-52.786,35.191
0.48,5.413,-0.862,-11.4,-17.595,-4.838,-1.341,12.598,0.0,6.327,-0.575,11.36,5.865,-41.056,29.326
0.485,5.556,-1.198,-11.783,-11.73,-4.886,-1.245,12.741,5.865,6.471,-1.007,11.935,5.865,-29.326,17.595
0.49,5.652,-1.341,-12.023,-0.0,-4.838,-1.006,12.741,17.595,6.615,-1.294,12.223,0.0,-17.595,5.865
0.495,5.509,-1.341,-12.119,11.73,-4.982,-0.575,12.454,23.46,6.615,-1.438,12.511,0.0,-5.865,0.0
0.5,5.461,-1.102,-12.023,17.595,-4.982,-0.144,12.119,29.326,6.327,-1.438,12.511,-5.865,5.865,-11.73
0.505,5.509,-0.671,-11.783,23.46,-4.886,0.144,11.736,35.191,6.327,-1.15,12.223,0.0,17.595,-17.595
0.51,5.365,-0.335,-11.448,35.191,-4.886,0.479,11.257,46.921,6.183,-0.719,11.935,-5.865,23.46,-23.46
0.515,5.269,-0.048,-11.065,41.056,-4.934,1.006,10.825,52.786,5.896,-0.575,11.648,0.0,35.191,-35.191
0.52,5.317,0.335,-10.538,46.921,-4.838,1.772,10.442,58.651,5.752,-0.144,11.216,0.0,41.056,-41.056
0.525,5.269,0.91,-10.155,52.786,-4.934,2.587,9.867,58.651,5.896,0.288,10.641,0.0,46.921,-46.921
0.53,5.269,1.629,-9.772,58.651,-4.934,3.401,9.149,64.516,5.752,1.007,10.354,5.865,52.786,-52.786
0.535,5.365,2.395,-9.149,58.651,-4.886,4.215,8.239,70.381,5.752,1.582,9.778,5.865,58.651,-58.651
0.54,5.413,3.353,-8.383,64.516,-4.934,4.886,7.137,70.381,5.896,2.588,9.203,5.865,64.516,-64.516
0.545,5.413,4.311,-7.425,64.516,-4.982,5.461,6.035,70.381,5.896,3.739,8.34,5.865,70.381,-64.516
0.55,5.413,5.173,-6.323,70.381,-4.982,6.275,4.982,70.381,5.752,4.745,7.19,5.865,70.381,-64.516
0.555,5.413,6.083,-5.269,64.516,-5.03,7.185,3.976,64.516,5.752,5.896,6.04,5.865,76.246,-64.516
0.56,5.317,7.041,-4.263,64.516,-5.173,8.143,3.018,70.381,5.464,6.902,5.033,5.865,82.111,-64.516
0.5650000000000001,5.269,7.999,-3.305,64.516,-5.365,9.149,2.012,64.516,5.321,8.053,4.026,0.0,82.111,-64.516
0.5700000000000001,5.413,8.957,-2.299,64.516,-5.461,10.107,1.15,58.651,5.177,9.059,3.02,-5.865,82.111,-64.516
0.5750000000000001,5.556,9.82,-1.389,64.516,-5.652,11.161,0.431,58.651,5.321,9.922,2.013,-17.595,82.111,-64.516
0.58,5.652,10.682,-0.575,58.651,-5.892,11.975,-0.144,46.921,5.321,10.641,1.15,-23.46,76.246,-58.651
0.585,5.748,11.352,0.096,52.786,-6.035,12.646,-0.671,41.056,5.321,11.216,0.431,-29.326,70.381,-58.651
0.59,5.796,11.879,0.671,46.921,-6.179,13.029,-1.102,35.191,5.177,11.648,-0.288,-35.191,64.516,-46.921
0.595,5.892,12.262,1.198,41.056,-6.275,13.077,-1.437,23.46,5.177,11.792,-0.863,-35.191,58.651,-41.056
0.6,5.94,12.502,1.533,29.326,-6.227,13.125,-1.485,11.73,5.177,12.079,-1.294,-35.191,46.921,-35.191
0.605,5.844,12.502,1.82,23.46,-6.323,13.125,-1.389,0.0,5.033,12.223,-1.582,-29.326,35.191,-23.46
0.61,5.988,12.598,1.82,11.73,-6.179,12.981,-1.245,-5.865,5.177,12.223,-1.726,-23.46,23.46,-11.73
0.615,5.94,12.55,1.724,-0.0,-6.083,12.55,-0.91,-17.595,5.177,12.223,-1.726,-17.595,11.73,-5.865
0.62,5.796,12.215,1.485,-11.73,-6.035,11.736,-0.527,-23.46,4.889,11.935,-1.582,-17.595,-5.865,5.865
0.625,5.748,11.736,1.102,-17.595,-5.892,11.113,0.096,-35.191,4.889,11.648,-1.15,-11.73,-17.595,17.595
0.63,5.748,11.065,0.766,-29.326,-5.7,10.155,0.91,-46.921,4.889,11.073,-0.863,-5.865,-29.326,23.46
0.635,5.556,10.394,0.096,-35.191,-5.413,8.957,1.916,-52.786,5.033,10.497,-0.288,0.0,-41.056,35.191
0.64,5.365,9.436,-0.766,-46.921,-5.173,7.664,3.114,-58.651,4.745,9.635,0.575,5.865,-52.786,41.056
0.645,5.269,8.383,-1.82,-52.786,-5.125,6.658,4.934,-58.651,4.745,8.772,1.438,5.865,-58.651,46.921
0.65,5.269,7.329,-3.114,-58.651,-4.934,5.413,5.844,-64.516,5.033,7.909,2.588,5.865,-70.381,58.651
0.655,5.269,6.083,-4.263,-58.651,-4.646,4.072,7.233,-58.651,4.745,6.902,4.889,5.865,-76.246,58.651
0.66,5.317,4.838,-5.844,-58.651,-4.551,3.018,8.239,-52.786,5.608,5.608,5.177,5.865,-76.246,58.651
0.665,5.077,3.832,-6.898,-52.786,-4.646,2.108,9.388,-52.786,5.321,4.314,7.046,5.865,-76.246,58.651
0.67,5.509,2.826,-7.951,-52.786,-4.503,1.724,10.394,-46.921,6.04,3.595,7.765,5.865,-76.246,52.786
0.675,5.461,2.203,-9.101,-46.921,-4.742,1.293,11.065,-41.056,6.183,2.732,8.916,5.865,-70.381,52.786
0.68,5.509,1.82,-9.963,-41.056,-4.742,0.958,11.448,-35.191,6.327,2.157,9.922,0.0,-64.516,46.921
0.685,5.7,1.389,-10.586,-35.191,-4.886,0.719,11.688,-29.326,6.615,1.869,10.641,0.0,-52.786,41.056
0.6900000000000001,5.652,1.054,-10.921,-29.326,-4.982,0.575,11.736,-23.46,6.615,1.438,11.073,-5.865,-41.056,35.191
0.6950000000000001,5.652,0.766,-11.113,-23.46,-5.03,0.431,11.64,-11.73,6.615,1.15,11.36,-11.73,-29.326,29.326
0.7000000000000001,5.556,0.431,-11.113,-17.595,-5.077,0.431,11.448,-5.865,6.327,0.575,11.504,-17.595,-17.595,23.46
0.705,5.461,0.192,-10.969,-11.73,-5.125,0.719,11.352,0.0,6.183,0.144,11.36,-17.595,-5.865,17.595
0.71,5.413,0.192,-10.825,-5.865,-5.173,1.006,11.161,5.865,6.04,-0.144,11.216,-17.595,0.0,5.865
0.715,5.461,0.383,-10.73,-0.0,-5.173,1.293,10.873,11.73,6.04,0.0,11.073,-17.595,5.865,5.865
0.72,5.461,0.671,-10.49,5.865,-5.173,1.533,10.49,17.595,6.04,0.144,10.929,-11.73,11.73,0.0
0.725,5.461,0.91,-10.203,11.73,-5.125,1.82,10.107,23.46,5.896,0.431,10.641,-11.73,17.595,-11.73
0.73,5.461,1.198,-9.82,17.595,-5.077,2.108,9.724,23.46,5.896,0.719,10.354,-5.865,23.46,-11.73
0.735,5.461,1.533,-9.436,23.46,-5.03,2.443,9.245,29.326,5.896,1.007,9.922,-5.865,29.326,-17.595
0.74,5.413,1.964,-9.053,29.326,-5.03,2.922,8.718,35.191,5.896,1.438,9.491,0.0,35.191,-23.46
0.745,5.413,2.443,-8.574,35.191,-5.03,3.593,8.047,35.191,5.896,2.013,9.203,0.0,41.056,-23.46
0.75,5.461,3.066,-7.999,35.191,-5.077,4.215,7.329,41.056,5.896,2.588,8.628,5.865,41.056,-35.191
0.755,5.461,3.832,-7.281,35.191,-5.173,4.79,6.514,41.056,5.896,3.451,8.053,5.865,46.921,-35.191
0.76,5.509,4.503,-6.562,41.056,-5.03,5.269,5.7,46.921,5.896,4.17,7.19,0.0,52.786,-35.191
0.765,5.461,5.125,-5.796,41.056,-5.173,6.035,4.982,46.921,5.896,5.033,6.471,0.0,52.786,-41.056
0.77,5.413,5.7,-5.03,41.056,-5.317,6.802,4.263,46.921,5.608,5.608,5.752,0.0,58.651,-41.056
0.775,5.509,6.467,-4.263,46.921,-5.365,7.568,3.545,46.921,5.608,6.327,4.889,-5.865,58.651,-41.056
0.78,5.461,7.089,-3.64,46.921,-5.556,8.335,2.922,46.921,5.464,6.902,4.17,-11.73,64.516,-41.056
0.785,5.509,7.808,-2.922,46.921,-5.604,8.957,2.347,46.921,5.321,7.478,3.451,-11.73,58.651,-46.921
0.79,5.604,8.478,-2.299,46.921,-5.748,9.532,1.916,41.056,5.321,8.197,2.876,-17.595,58.651,-41.056
0.795,5.652,9.005,-1.82,41.056,-5.892,10.011,1.581,29.326,5.321,8.772,2.301,-17.595,52.786,-41.056
0.8,5.748,9.388,-1.389,35.191,-5.94,10.442,1.485,23.46,5.321,9.203,1.726,-17.595,46.921,-41.056
0.805,5.844,9.772,-1.15,29.326,-5.988,10.586,1.341,17.595,5.321,9.347,1.438,-17.595,46.921,-35.191
0.81,5.892,10.059,-1.054,23.46,-5.988,10.538,1.245,11.73,5.464,9.778,1.294,-17.595,35.191,-23.46
0.8150000000000001,5.844,10.155,-0.91,11.73,-6.035,10.49,1.293,0.0,5.321,9.922,1.15,-17.595,29.326,-17.595
0.8200000000000001,5.988,10.155,-0.862,5.865,-6.035,10.346,1.437,-5.865,5.321,9.922,1.007,-11.73,23.46,-11.73
0.8250000000000001,5.988,10.155,-0.958,-0.0,-5.94,10.011,1.629,-11.73,5.608,10.066,1.15,-11.73,11.73,0.0
0.8300000000000001,5.94,9.963,-1.102,-5.865,-5.892,9.484,1.82,-11.73,5.464,9.922,1.15,-5.865,5.865,5.865
0.835,5.892,9.628,-1.245,-11.73,-5.748,9.053,2.108,-17.595,5.464,9.635,1.294,-5.865,0.0,11.73
0.84,5.892,9.293,-1.437,-17.595,-5.748,8.718,2.491,-23.46,5.464,9.347,1.582,0.0,-11.73,11.73
0.845,5.94,9.101,-1.772,-17.595,-5.652,8.239,2.97,-29.326,5.608,9.347,1.726,0.0,-17.595,17.595
0.85,5.94,8.909,-2.156,-23.46,-5.604,7.712,3.449,-29.326,5.752,9.347,2.157,0.0,-23.46,23.46
0.855,5.844,8.43,-2.635,-29.326,-5.604,7.185,3.976,-35.191,5.752,9.059,2.588,-5.865,-23.46,29.326
0.86,5.892,7.904,-3.114,-29.326,-5.604,6.993,4.838,-35.191,5.752,8.628,3.02,-11.73,-29.326,29.326
0.865,5.988,7.425,-3.688,-29.326,-5.556,6.706,5.269,-35.191,6.04,8.053,3.595,-17.595,-29.326,29.326
0.87,5.892,7.041,-4.934,-29.326,-5.844,6.227,5.94,-29.326,6.183,7.478,4.314,-23.46,-29.326,35.191
0.875,6.131,6.562,-5.03,-29.326,-5.509,5.988,6.275,-29.326,6.327,7.046,4.889,-29.326,-29.326,35.191
0.88,6.083,6.227,-5.556,-29.326,-5.748,5.844,6.61,-29.326,6.183,6.327,5.608,-29.326,-29.326,35.191
0.885,6.179,6.035,-5.844,-29.326,-5.652,5.796,7.041,-29.326,6.471,6.183,5.896,-29.326,-29.326,29.326
0.89,6.179,5.796,-6.227,-29.326,-5.94,5.796,7.233,-29.326,6.471,5.896,6.327,-35.191,-29.326,29.326
0.895,6.227,5.7,-6.61,-29.326,-5.94,5.652,7.425,-29.326,6.471,5.752,6.759,-35.191,-23.46,29.326
0.9,6.371,5.509,-6.802,-29.326,-5.892,5.461,7.616,-29.326,6.615,5.464,7.046,-35.191,-23.46,29.326
0.905,6.275,5.269,-6.946,-29.326,-6.035,5.365,7.664,-29.326,6.471,5.177,7.19,-35.191,-17.595,29.326
0.91,6.275,5.03,-7.137,-29.326,-5.988,5.221,7.712,-29.326,6.471,4.889,7.334,-35.191,-17.595,29.326
0.915,6.371,4.838,-7.137,-29.326,-5.94,4.982,7.76,-29.326,6.471,4.602,7.478,-29.326,-11.73,29.326
0.92,6.275,4.694,-7.185,-29.326,-5.892,4.742,7.76,-29.326,6.615,4.458,7.478,-29.326,-11.73,29.326
0.925,6.227,4.551,-7.281,-29.326,-5.892,4.551,7.712,-29.326,6.471,4.314,7.478,-23.46,-11.73,29.326
0.93,6.323,4.455,-7.185,-23.46,-5.844,4.455,7.664,-23.46,6.471,4.314,7.478,-23.46,-11.73,29.326
0.935,6.323,4.407,-7.137,-23.46,-5.844,4.407,7.616,-23.46,6.615,4.314,7.478,-17.595,-5.865,23.46
0.9400000000000001,6.227,4.359,-7.137,-23.46,-5.844,4.503,7.52,-23.46,6.615,4.314,7.478,-17.595,-5.865,29.326
0.9450000000000001,6.227,4.407,-7.089,-23.46,-5.844,4.455,7.377,-17.595,6.471,4.458,7.334,-17.595,0.0,23.46
0.9500000000000001,6.227,4.455,-6.946,-23.46,-5.796,4.503,7.281,-17.595,6.471,4.458,7.334,-17.595,0.0,23.46
0.9550000000000001,6.227,4.455,-6.802,-17.595,-5.844,4.598,7.089,-17.595,6.615,4.458,7.19,-17.595,5.865,23.46
0.96,6.275,4.503,-6.658,-17.595,-5.796,4.646,6.85,-11.73,6.615,4.602,7.046,-17.595,5.865,23.46
0.965,6.227,4.598,-6.467,-17.595,-5.892,4.694,6.61,-11.73,6.615,4.602,6.902,-23.46,11.73,17.595
0.97,6.179,4.694,-6.275,-11.73,-5.94,4.934,6.419,-11.73,6.471,4.745,6.615,-23.46,17.595,17.595
0.975,6.275,4.934,-5.988,-11.73,-5.892,5.03,6.323,-11.73,6.471,4.889,6.471,-23.46,17.595,17.595
0.98,6.323,5.077,-5.844,-11.73,-5.94,5.125,6.131,-11.73,6.615,5.177,6.183,-23.46,17.595,11.73
0.985,6.227,5.173,-5.748,-11.73,-5.94,5.269,5.988,-5.865,6.615,5.321,6.04,-29.326,23.46,11.73
0.99,6.227,5.173,-5.556,-5.865,-6.083,5.652,5.988,-5.865,6.327,5.321,5.896,-29.326,23.46,11.73
0.995,6.419,5.317,-5.509,-5.865,-6.083,5.844,5.892,-5.865,6.615,5.321,5.752,-35.191,23.46,11.73
1.0,6.371,5.509,-5.509,-5.865,-6.131,6.083,5.796,-5.865,6.759,5.464,5.752,-35.191,29.326,5.865
1.0050000000000001,6.371,5.604,-5.413,-5.865,-6.179,6.275,5.604,-5.865,6.471,5.321,5.752,-35.191,29.326,5.865
1.01,6.514,5.748,-5.269,-5.865,-6.131,6.275,5.413,-5.865,6.615,5.464,5.608,-35.191,29.326,5.865
1.0150000000000001,6.467,5.94,-5.077,-5.865,-6.083,6.275,5.125,-5.865,6.615,5.608,5.464,-29.326,29.326,5.865
1.02,6.371,5.988,-4.886,-5.865,-6.035,6.179,4.934,-5.865,6.471,5.752,5.177,-29.326,29.326,11.73
1.025,6.371,5.988,-4.598,-5.865,-5.988,6.179,4.79,-11.73,6.615,5.896,4.889,-29.326,35.191,11.73
1.03,6.275,6.035,-4.407,-11.73,-5.988,6.227,4.646,-11.73,6.471,5.896,4.745,-23.46,35.191,11.73
1.035,6.131,6.035,-4.311,-11.73,-6.035,6.227,4.551,-11.73,6.183,5.896,4.602,-23.46,29.326,11.73
1.04,6.131,6.083,-4.167,-11.73,-5.988,6.227,4.503,-11.73,6.183,5.896,4.458,-23.46,29.326,11.73
1.045,6.179,6.131,-4.072,-11.73,-5.892,6.227,4.503,-11.73,6.183,6.04,4.314,-23.46,29.326,11.73
1.05,6.131,6.131,-4.024,-11.73,-5.892,6.179,4.503,-11.73,6.183,6.183,4.314,-23.46,29.326,11.73
1.055,6.035,6.131,-4.024,-11.73,-5.892,6.227,4.551,-11.73,6.04,6.183,4.314,-23.46,29.326,11.73
1.06,6.083,6.131,-4.024,-11.73,-5.892,6.179,4.598,-11.73,6.04,6.183,4.17,-23.46,29.326,17.595
1.065,6.083,6.083,-4.072,-11.73,-5.892,6.179,4.598,-11.73,6.183,6.04,4.314,-23.46,23.46,17.595
1.07,6.083,6.083,-4.119,-11.73,-5.94,6.179,4.551,-17.595,6.04,6.04,4.314,-23.46,23.46,17.595
1.075,6.131,6.083,-4.119,-11.73,-5.892,6.179,4.646,-17.595,6.183,6.04,4.314,-23.46,23.46,17.595
1.08,6.227,6.035,-4.072,-17.595,-5.844,6.131,4.646,-17.595,6.327,6.04,4.314,-23.46,23.46,17.595
1.085,6.131,6.035,-4.119,-17.595,-5.796,6.035,4.646,-17.595,6.327,6.04,4.314,-23.46,23.46,17.595
1.09,6.035,5.988,-4.167,-17.595,-5.94,6.083,4.646,-17.595,6.183,6.04,4.314,-23.46,23.46,17.595
1.095,6.083,5.94,-4.167,-17.595,-5.988,6.131,4.694,-17.595,6.04,5.896,4.314,-23.46,23.46,23.46
1.1,6.179,5.892,-4.167,-17.595,-5.844,6.083,4.886,-17.595,6.183,5.896,4.458,-23.46,17.595,17.595
1.105,6.131,5.844,-4.263,-17.595,-5.94,6.035,4.838,-17.595,6.183,5.752,4.458,-23.46,17.595,23.46
1.11,6.083,5.844,-4.407,-17.595,-5.988,6.131,4.79,-17.595,6.183,5.752,4.602,-23.46,17.595,23.46
1.115,6.131,5.748,-4.359,-17.595,-6.035,5.988,4.742,-17.595,6.04,5.608,4.602,-23.46,17.595,23.46
1.12,6.227,5.844,-4.311,-17.595,-5.796,5.892,4.694,-17.595,6.327,5.608,4.602,-17.595,17.595,23.46
1.125,6.131,5.7,-4.263,-17.595,-5.892,5.652,4.598,-17.595,6.183,5.608,4.602,-17.595,17.595,23.46
1.1300000000000001,5.988,5.604,-4.215,-17.595,-5.844,5.7,4.503,-17.595,6.183,5.464,4.458,-17.595,17.595,23.46
1.135,6.083,5.509,-4.072,-17.595,-5.94,5.748,4.407,-17.595,6.04,5.321,4.314,-17.595,17.595,23.46
1.1400000000000001,6.083,5.556,-3.976,-23.46,-5.988,5.892,4.359,-17.595,6.183,5.464,4.314,-11.73,17.595,23.46
1.145,6.083,5.7,-3.928,-17.595,-5.94,5.892,4.503,-23.46,6.04,5.608,4.17,-11.73,11.73,23.46
1.1500000000000001,6.131,5.844,-3.928,-17.595,-5.94,5.748,4.551,-23.46,6.183,5.752,4.17,-11.73,11.73,23.46
1.155,6.083,5.748,-3.976,-17.595,-5.988,5.604,4.551,-23.46,6.183,5.752,4.17,-11.73,11.73,23.46
1.16,6.179,5.652,-4.072,-23.46,-6.035,5.652,4.694,-17.595,6.183,5.752,4.314,-11.73,11.73,23.46
1.165,6.179,5.509,-4.167,-17.595,-5.94,5.509,4.742,-23.46,6.183,5.608,4.314,-17.595,5.865,23.46
1.17,6.227,5.365,-4.215,-23.46,-6.035,5.509,4.79,-17.595,6.327,5.464,4.458,-17.595,5.865,23.46
1.175,6.227,5.317,-4.263,-17.595,-6.131,5.652,4.838,-17.595,6.327,5.177,4.458,-17.595,5.865,23.46
1.18,6.371,5.413,-4.311,-17.595,-6.083,5.509,4.838,-17.595,6.471,5.321,4.602,-11.73,5.865,23.46
1.185,6.371,5.461,-4.359,-17.595,-6.083,5.365,4.838,-17.595,6.615,5.321,4.602,-11.73,5.865,23.46
1.19,6.323,5.317,-4.359,-17.595,-6.035,5.173,4.742,-17.595,6.327,5.321,4.602,-11.73,5.865,23.46
1.195,6.275,5.221,-4.311,-17.595,-5.94,5.173,4.79,-17.595,6.471,5.177,4.602,-11.73,5.865,23.46
1.2,6.323,5.173,-4.215,-17.595,-5.988,5.173,4.742,-17.595,6.471,5.177,4.458,-11.73,5.865,23.46
1.205,6.227,5.173,-4.263,-17.595,-6.083,5.317,4.79,-11.73,6.471,5.321,4.458,-11.73,11.73,17.595
1.21,6.275,5.173,-4.263,-17.595,-6.083,5.365,4.838,-11.73,6.327,5.321,4.458,-11.73,11.73,17.595
1.215,6.275,5.221,-4.311,-11.73,-6.035,5.317,4.79,-11.73,6.471,5.177,4.602,-11.73,11.73,17.595
1.22,6.227,5.125,-4.311,-11.73,-6.035,5.125,4.742,-11.73,6.327,5.033,4.602,-11.73,11.73,17.595
1.225,6.227,5.03,-4.311,-11.73,-6.035,5.077,4.694,-11.73,6.327,4.889,4.602,-11.73,11.73,17.595
1.23,6.275,4.886,-4.215,-11.73,-6.035,5.03,4.694,-11.73,6.327,4.889,4.602,-11.73,11.73,11.73
1.235,6.227,4.79,-4.167,-11.73,-6.035,4.886,4.646,-11.73,6.471,4.745,4.458,-11.73,11.73,11.73
1.24,6.179,4.694,-4.215,-11.73,-5.892,4.742,4.646,-11.73,6.327,4.602,4.458,-11.73,11.73,11.73
1.245,6.131,4.551,-4.167,-11.73,-5.892,4.598,4.551,-11.73,6.183,4.314,4.458,-5.865,11.73,11.73
1.25,6.035,4.551,-4.119,-11.73,-5.844,4.551,4.503,-5.865,6.183,4.314,4.314,-5.865,11.73,11.73
1.2550000000000001,6.035,4.551,-4.024,-11.73,-5.844,4.598,4.503,-5.865,6.183,4.458,4.314,-5.865,11.73,11.73
1.26,6.035,4.551,-3.976,-5.865,-5.796,4.598,4.503,-5.865,6.04,4.602,4.17,-5.865,11.73,11.73
1.2650000000000001,6.035,4.551,-4.024,-5.865,-5.844,4.551,4.551,-5.865,6.183,4.602,4.17,-5.865,11.73,5.865
1.27,6.035,4.455,-4.024,-5.865,-5.892,4.551,4.551,0.0,6.183,4.458,4.314,-5.865,11.73,5.865
1.2750000000000001,6.083,4.359,-4.072,-5.865,-5.844,4.455,4.503,0.0,6.183,4.314,4.314,-5.865,11.73,5.865
1.28,6.083,4.311,-4.024,-5.865,-5.844,4.407,4.455,0.0,6.183,4.17,4.314,-5.865,11.73,5.865
1.285,6.083,4.311,-3.976,-0.0,-5.796,4.215,4.407,0.0,6.183,4.17,4.17,-5.865,11.73,0.0
1.29,6.035,4.215,-3.928,-0.0,-5.796,4.072,4.407,0.0,6.183,4.17,4.17,-5.865,11.73,0.0
1.295,5.988,4.072,-3.928,-0.0,-5.796,3.976,4.455,5.865,6.04,4.026,4.17,0.0,11.73,0.0
1.3,5.94,3.976,-3.928,-0.0,-5.796,3.928,4.503,5.865,6.04,4.026,4.17,0.0,11.73,0.0
1.305,5.94,3.88,-3.976,5.865,-5.748,3.832,4.551,11.73,6.04,3.883,4.17,-5.865,17.595,0.0
1.31,5.94,3.784,-4.024,5.865,-5.748,3.784,4.598,11.73,6.04,3.739,4.17,0.0,17.595,-5.865
1.315,5.892,3.64,-4.072,11.73,-5.748,3.64,4.551,17.595,6.04,3.595,4.314,-5.865,17.595,-5.865
1.32,5.844,3.545,-4.072,11.73,-5.748,3.64,4.694,17.595,5.896,3.451,4.314,0.0,17.595,-11.73
1.325,5.844,3.353,-4.072,17.595,-5.7,3.64,4.742,23.46,5.896,3.164,4.314,0.0,17.595,-11.73
1.33,5.892,3.305,-4.167,23.46,-5.652,3.736,4.886,29.326,6.04,3.164,4.314,0.0,11.73,-17.595
1.335,5.844,3.353,-4.311,23.46,-5.7,3.64,4.886,29.326,5.896,3.02,4.458,0.0,11.73,-17.595
1.34,5.796,3.401,-4.407,29.326,-5.556,3.449,4.79,35.191,5.896,3.02,4.602,5.865,11.73,-23.46
1.345,5.796,3.305,-4.311,35.191,-5.317,3.449,4.838,41.056,5.896,3.164,4.602,5.865,17.595,-23.46
1.35,5.748,3.257,-4.215,35.191,-5.509,3.449,4.886,41.056,5.896,3.164,4.458,5.865,17.595,-35.191
1.355,5.604,3.449,-4.359,41.056,-5.365,3.497,5.077,46.921,5.896,3.307,4.458,5.865,17.595,-35.191
1.36,5.652,3.353,-4.407,41.056,-5.365,3.305,4.982,52.786,5.752,3.451,4.602,5.865,17.595,-41.056
1.365,5.556,3.401,-4.598,46.921,-5.173,3.257,4.982,52.786,5.752,3.451,4.745,5.865,17.595,-41.056
1.37,5.509,3.114,-4.359,52.786,-5.173,3.257,5.077,52.786,5.752,3.164,4.745,5.865,17.595,-46.921
1.375,5.461,3.161,-4.455,52.786,-5.173,3.161,4.982,58.651,5.896,3.164,4.602,5.865,17.595,-52.786
1.3800000000000001,5.365,3.161,-4.551,52.786,-5.03,3.209,4.934,64.516,5.608,3.02,4.745,5.865,23.46,-52.786
1.385,5.269,3.114,-4.407,58.651,-5.077,3.209,4.742,70.381,5.464,3.164,4.745,5.865,23.46,-58.651
1.3900000000000001,5.221,3.209,-4.359,64.516,-4.886,2.922,4.598,70.381,5.464,3.164,4.602,5.865,23.46,-58.651
1.395,5.173,3.114,-4.215,70.381,-4.598,2.539,4.407,76.246,5.464,3.164,4.602,5.865,23.46,-64.516
1.4000000000000001,4.886,2.826,-4.024,70.381,-4.598,2.395,4.215,87.977,5.033,2.876,4.314,5.865,29.326,-70.381
1.405,4.694,2.587,-3.832,76.246,-4.407,2.395,4.024,93.842,4.745,2.588,4.026,5.865,29.326,-70.381
1.41,4.646,2.539,-3.64,82.111,-4.359,2.539,4.024,99.707,4.745,2.588,3.883,5.865,29.326,-82.111
1.415,4.551,2.635,-3.449,93.842,-4.263,2.97,4.167,105.572,4.745,2.732,3.739,5.865,29.326,-87.977
1.42,4.503,2.73,-3.497,99.707,-4.119,3.353,4.215,117.302,4.745,2.732,3.739,0.0,29.326,-93.842
1.425,4.551,3.018,-3.688,105.572,-4.263,4.503,4.359,123.167,4.745,2.732,3.883,0.0,29.326,-105.572
1.43,4.455,3.593,-3.736,117.302,-4.311,6.083,4.215,123.167,4.602,3.164,3.883,0.0,35.191,-111.437
1.435,4.742,4.934,-3.88,123.167,-4.551,7.329,3.976,123.167,4.889,4.17,4.026,0.0,35.191,-117.302
1.44,4.79,6.275,-3.64,123.167,-4.934,7.904,3.64,123.167,4.889,5.464,4.026,0.0,35.191,-123.167
1.445,4.934,7.233,-3.497,123.167,-4.79,9.82,3.88,117.302,4.889,6.615,3.883,-5.865,41.056,-123.167
1.45,4.79,7.951,-3.114,117.302,-4.551,18.01,0.24,111.437,4.889,7.19,3.595,0.0,41.056,-117.302
1.455,5.94,13.316,-3.401,117.302,-7.185,24.19,-4.024,93.842,5.033,10.066,3.595,0.0,41.056,-117.302
1.46,8.766,24.142,1.82,105.572,-7.281,24.429,-3.353,93.842,10.497,31.492,1.438,-5.865,35.191,-111.437
1.465,5.652,24.142,3.832,93.842,-9.005,24.429,-2.539,70.381,6.471,27.178,-3.451,-52.786,52.786,-93.842
1.47,4.646,23.279,2.778,87.977,-9.915,19.447,-1.198,23.46,-0.288,18.694,-3.307,-99.707,58.651,-87.977
1.475,8.862,21.747,2.299,58.651,-7.52,11.209,1.293,-29.326,3.595,18.838,-2.301,-70.381,17.595,-76.246
1.48,10.251,15.136,0.862,5.865,-6.514,7.52,3.736,-52.786,9.203,16.681,-1.582,-5.865,-23.46,-35.191
1.485,8.67,9.58,-1.533,-35.191,-6.275,5.317,5.509,-52.786,10.497,12.223,0.431,35.191,-52.786,17.595
1.49,7.472,6.131,-3.832,-52.786,-6.514,5.125,6.179,-29.326,8.916,7.334,3.02,46.921,-52.786,52.786
1.495,7.472,5.125,-5.269,-46.921,-6.467,6.323,6.035,0.0,8.053,4.889,5.033,52.786,-46.921,52.786
1.5,8.047,6.179,-5.556,-17.595,-6.61,7.616,6.371,11.73,8.916,5.896,5.896,58.651,-35.191,35.191
1.5050000000000001,8.191,7.712,-5.509,-0.0,-5.365,7.904,6.275,17.595,9.635,7.765,5.896,52.786,-23.46,11.73
1.51,7.712,9.005,-5.892,11.73,-5.892,7.856,5.652,23.46,9.347,9.347,6.04,46.921,-5.865,-5.865
1.5150000000000001,6.419,9.197,-5.556,17.595,-5.7,7.76,5.221,29.326,7.765,10.354,6.04,35.191,5.865,-11.73
1.52,6.227,8.766,-5.03,23.46,-5.748,7.616,5.317,23.46,6.471,10.066,5.608,17.595,23.46,-17.595
1.5250000000000001,6.083,8.478,-4.694,23.46,-5.604,7.137,5.221,17.595,6.183,9.491,5.033,5.865,23.46,-23.46
1.53,5.796,7.904,-4.79,23.46,-5.652,6.754,5.269,17.595,5.896,8.772,5.033,-5.865,29.326,-23.46
1.5350000000000001,5.748,7.137,-4.742,17.595,-5.652,6.658,5.365,11.73,5.608,7.909,5.033,-17.595,23.46,-17.595
1.54,5.892,6.514,-4.742,11.73,-5.796,6.898,5.221,11.73,5.896,6.902,5.033,-23.46,23.46,-11.73
1.545,5.892,6.179,-4.934,11.73,-5.556,7.089,4.79,5.865,5.896,6.04,5.177,-29.326,23.46,-11.73
1.55,5.892,6.275,-4.694,5.865,-5.509,6.946,3.88,5.865,5.896,5.608,5.177,-29.326,23.46,-5.865
1.555,5.748,6.467,-4.072,5.865,-5.365,7.137,3.209,11.73,5.608,5.752,4.745,-23.46,17.595,-5.865
1.56,5.604,6.706,-3.209,5.865,-5.365,7.616,2.874,11.73,5.608,6.327,3.883,-17.595,17.595,-5.865
1.565,5.461,7.041,-2.635,5.865,-5.413,8.143,2.778,5.865,5.321,6.615,3.02,-11.73,17.595,-5.865
1.57,5.461,7.425,-2.395,11.73,-5.509,8.478,2.922,5.865,5.177,7.046,2.732,-11.73,17.595,-5.865
1.575,5.652,7.808,-2.347,5.865,-5.556,8.43,3.066,5.865,5.321,7.334,2.588,-5.865,11.73,-5.865
1.58,5.748,7.951,-2.539,5.865,-5.509,8.143,3.114,0.0,5.608,7.621,2.588,-5.865,5.865,-5.865
1.585,5.892,7.856,-2.635,-0.0,-5.461,7.712,3.209,-5.865,5.752,7.478,2.732,0.0,5.865,0.0
1.59,5.892,7.568,-2.635,-0.0,-5.461,7.377,3.305,-5.865,5.896,7.334,2.876,0.0,0.0,0.0
1.595,5.796,7.329,-2.778,-5.865,-5.509,7.041,3.353,-5.865,5.896,7.19,2.876,5.865,0.0,5.865
1.6,5.796,7.089,-2.826,-5.865,-5.604,6.898,3.449,-5.865,5.752,7.046,3.02,5.865,0.0,11.73
1.605,5.892,7.041,-2.922,-11.73,-5.604,6.85,3.688,-11.73,5.896,7.046,3.02,5.865,0.0,11.73
1.61,5.94,7.041,-3.018,-11.73,-5.652,6.85,3.832,-11.73,6.04,7.19,3.164,5.865,0.0,11.73
1.615,5.988,7.041,-3.209,-11.73,-5.652,6.706,3.928,-11.73,6.183,7.19,3.307,5.865,0.0,11.73
1.62,6.035,6.993,-3.401,-11.73,-5.652,6.61,4.024,-11.73,6.183,7.19,3.451,5.865,0.0,11.73
1.625,6.035,6.85,-3.497,-11.73,-5.748,6.658,3.976,-5.865,6.183,7.19,3.595,5.865,0.0,11.73
1.6300000000000001,6.035,6.802,-3.545,-11.73,-5.796,6.802,3.928,-5.865,6.183,7.046,3.739,5.865,0.0,11.73
1.635,6.179,6.754,-3.497,-5.865,-5.748,6.993,3.784,0.0,6.327,6.902,3.739,0.0,0.0,11.73
1.6400000000000001,6.131,6.802,-3.401,-5.865,-5.748,7.185,3.593,0.0,6.327,6.902,3.595,-5.865,0.0,5.865
1.645,6.083,6.993,-3.257,-5.865,-5.748,7.281,3.497,0.0,6.183,6.902,3.595,-5.865,0.0,5.865
1.6500000000000001,6.035,7.089,-3.114,-0.0,-5.748,7.377,3.497,0.0,6.04,7.046,3.451,-5.865,0.0,5.865
1.655,6.083,7.185,-3.018,-0.0,-5.7,7.281,3.497,0.0,6.183,7.046,3.307,-5.865,0.0,0.0
1.6600000000000001,6.035,7.137,-3.018,-0.0,-5.7,7.233,3.593,0.0,6.183,7.046,3.307,-5.865,0.0,0.0
1.665,5.988,7.089,-3.066,-0.0,-5.652,7.185,3.545,0.0,6.04,6.902,3.307,-5.865,0.0,0.0
1.67,5.988,7.041,-3.114,-0.0,-5.604,7.089,3.593,0.0,6.04,6.902,3.307,-5.865,0.0,0.0
1.675,5.94,6.993,-3.114,-0.0,-5.556,7.041,3.688,0.0,6.04,6.902,3.307,-5.865,0.0,0.0
1.68,5.892,6.946,-3.161,-0.0,-5.556,6.993,3.736,0.0,6.04,6.902,3.307,0.0,0.0,0.0
1.685,5.844,6.946,-3.209,-0.0,-5.509,6.993,3.784,0.0,5.896,6.902,3.451,0.0,0.0,0.0
1.69,5.844,6.898,-3.257,-0.0,-5.509,7.041,3.88,0.0,5.896,6.902,3.451,0.0,0.0,0.0
1.695,5.796,6.898,-3.353,-0.0,-5.556,7.089,3.928,0.0,5.896,6.902,3.451,0.0,0.0,0.0
1.7,5.844,6.946,-3.401,-0.0,-5.604,7.233,3.928,0.0,5.896,6.902,3.595,0.0,0.0,0.0
1.705,5.844,6.993,-3.449,-0.0,-5.509,7.233,3.976,0.0,5.896,6.902,3.595,0.0,-5.865,0.0
1.71,5.892,7.089,-3.497,-0.0,-5.556,7.185,4.024,0.0,5.896,6.902,3.739,0.0,-5.865,0.0
1.715,5.796,7.041,-3.497,-0.0,-5.604,7.233,4.072,-5.865,5.896,6.902,3.739,0.0,-5.865,0.0
1.72,5.892,7.041,-3.545,-0.0,-5.556,7.281,4.072,-5.865,5.896,7.046,3.739,0.0,-5.865,5.865
1.725,5.94,7.089,-3.593,-5.865,-5.604,7.329,4.119,0.0,6.04,7.046,3.739,0.0,-5.865,5.865
1.73,5.892,7.089,-3.64,-5.865,-5.604,7.329,4.119,-5.865,6.04,6.902,3.739,0.0,-5.865,5.865
1.735,5.988,7.089,-3.64,-5.865,-5.652,7.377,4.119,-5.865,6.04,6.902,3.883,0.0,-5.865,5.865
1.74,6.035,7.137,-3.688,-5.865,-5.652,7.472,4.119,-5.865,6.04,7.046,3.883,0.0,-5.865,5.865
1.745,6.035,7.185,-3.688,-5.865,-5.652,7.52,4.024,-5.865,6.183,7.046,3.883,0.0,-5.865,5.865
1.75,6.035,7.281,-3.64,-5.865,-5.604,7.568,3.976,-5.865,6.183,7.046,3.883,5.865,-5.865,5.865
1.7550000000000001,6.035,7.377,-3.545,-5.865,-5.7,7.616,3.976,-5.865,6.183,7.19,3.883,5.865,-5.865,5.865
1.76,6.083,7.52,-3.497,-5.865,-5.7,7.664,3.88,-5.865,6.183,7.478,3.739,5.865,-5.865,5.865
1.7650000000000001,6.131,7.664,-3.449,-5.865,-5.604,7.568,3.784,-5.865,6.327,7.621,3.739,5.865,-5.865,5.865
1.77,6.179,7.712,-3.353,-5.865,-5.604,7.472,3.736,-5.865,6.327,7.765,3.595,5.865,0.0,5.865
1.7750000000000001,6.131,7.712,-3.257,-5.865,-5.604,7.568,3.736,-5.865,6.327,7.909,3.595,5.865,0.0,5.865
1.78,6.035,7.664,-3.257,-5.865,-5.604,7.616,3.688,-5.865,6.327,7.909,3.451,0.0,0.0,5.865
1.7850000000000001,6.035,7.664,-3.257,-5.865,-5.7,7.808,3.688,0.0,6.183,7.765,3.451,0.0,0.0,5.865
1.79,6.083,7.76,-3.209,-5.865,-5.7,7.999,3.64,0.0,6.183,7.765,3.451,-5.865,0.0,5.865
1.795,6.131,7.904,-3.209,-5.865,-5.748,8.047,3.545,-5.865,6.183,7.909,3.451,-5.865,0.0,5.865
1.8,6.131,7.999,-3.114,-5.865,-5.796,8.143,3.545,-5.865,6.183,8.053,3.451,-5.865,0.0,5.865
1.805,6.179,7.951,-3.066,-5.865,-5.844,8.239,3.545,-5.865,6.327,8.053,3.307,-11.73,5.865,5.865
1.81,6.131,7.999,-3.066,-5.865,-5.844,8.287,3.545,-5.865,6.183,7.909,3.307,-11.73,5.865,5.865
1.815,6.179,7.999,-3.114,-5.865,-5.844,8.287,3.497,-11.73,6.183,7.909,3.307,-11.73,0.0,11.73
1.82,6.227,8.047,-3.018,-11.73,-5.844,8.287,3.497,-11.73,6.183,7.909,3.307,-11.73,0.0,11.73
1.825,6.227,8.095,-3.018,-11.73,-5.844,8.287,3.545,-11.73,6.327,8.053,3.307,-11.73,0.0,11.73
1.83,6.179,8.095,-3.066,-11.73,-5.796,8.047,3.449,-17.595,6.183,8.053,3.307,-5.865,0.0,11.73
1.835,6.179,8.047,-3.066,-11.73,-5.748,7.904,3.401,-17.595,6.183,8.053,3.307,-5.865,0.0,17.595
1.84,6.179,7.951,-2.97,-17.595,-5.748,7.904,3.401,-17.595,6.183,8.053,3.164,-5.865,0.0,17.595
1.845,6.131,7.904,-2.922,-17.595,-5.796,7.856,3.401,-17.595,6.183,8.053,3.164,-5.865,0.0,17.595
1.85,6.131,7.856,-2.922,-17.595,-5.796,7.856,3.449,-17.595,6.183,7.909,3.164,-5.865,0.0,17.595
1.855,6.131,7.808,-2.922,-17.595,-5.796,7.856,3.497,-17.595,6.183,7.909,3.164,-5.865,0.0,17.595
1.86,6.179,7.76,-2.97,-17.595,-5.748,7.904,3.497,-17.595,6.183,7.765,3.164,-11.73,-5.865,17.595
1.865,6.131,7.808,-3.018,-17.595,-5.796,7.904,3.449,-17.595,6.183,7.765,3.164,-11.73,-5.865,17.595
1.87,6.179,7.856,-3.018,-17.595,-5.796,7.808,3.497,-17.595,6.183,7.909,3.164,-11.73,-5.865,17.595
1.875,6.227,7.856,-3.018,-17.595,-5.748,7.808,3.593,-17.595,6.327,7.909,3.164,-11.73,-5.865,17.595
1.8800000000000001,6.179,7.856,-3.066,-17.595,-5.796,7.712,3.593,-17.595,6.327,8.053,3.307,-11.73,-5.865,17.595
1.885,6.083,7.808,-3.114,-17.595,-5.796,7.664,3.593,-17.595,6.183,8.053,3.307,-17.595,-5.865,23.46
1.8900000000000001,6.131,7.76,-3.114,-17.595,-5.844,7.664,3.64,-17.595,6.183,7.909,3.307,-17.595,-5.865,23.46
1.895,6.179,7.664,-3.161,-17.595,-5.844,7.664,3.784,-17.595,6.183,7.765,3.307,-17.595,-5.865,23.46
1.9000000000000001,6.179,7.568,-3.209,-17.595,-5.844,7.568,3.832,-17.595,6.327,7.621,3.307,-17.595,-5.865,23.46
1.905,6.131,7.425,-3.353,-17.595,-5.892,7.472,3.88,-17.595,6.183,7.478,3.451,-23.46,-5.865,23.46
1.9100000000000001,6.179,7.329,-3.401,-17.595,-5.892,7.568,3.928,-23.46,6.183,7.19,3.595,-23.46,-5.865,23.46
1.915,6.275,7.281,-3.401,-17.595,-5.94,7.616,3.976,-23.46,6.327,7.19,3.595,-23.46,-5.865,23.46
1.92,6.227,7.329,-3.497,-23.46,-5.94,7.568,4.072,-23.46,6.327,7.19,3.595,-17.595,-5.865,23.46
1.925,6.275,7.329,-3.545,-23.46,-5.94,7.425,4.119,-23.46,6.327,7.19,3.739,-17.595,-5.865,23.46
1.93,6.275,7.281,-3.593,-23.46,-5.94,7.233,4.119,-29.326,6.327,7.19,3.739,-17.595,-5.865,23.46
1.935,6.275,7.185,-3.64,-23.46,-5.892,7.089,4.167,-29.326,6.327,7.046,3.883,-17.595,-5.865,23.46
1.94,6.323,7.089,-3.64,-23.46,-5.844,7.041,4.167,-29.326,6.471,7.046,3.883,-17.595,-5.865,29.326
1.945,6.275,6.993,-3.688,-23.46,-5.94,6.946,4.167,-29.326,6.471,7.046,3.883,-11.73,-5.865,29.326
1.95,6.275,6.946,-3.688,-23.46,-5.892,6.946,4.263,-29.326,6.327,7.046,3.883,-11.73,-5.865,29.326
1.955,6.275,6.946,-3.736,-23.46,-5.94,6.898,4.311,-29.326,6.471,7.046,3.883,-17.595,-5.865,29.326
1.96,6.275,6.898,-3.784,-29.326,-5.94,6.898,4.311,-29.326,6.471,7.046,4.026,-17.595,-5.865,29.326
1.965,6.371,6.85,-3.832,-29.326,-5.94,6.85,4.311,-29.326,6.471,6.902,4.026,-17.595,-5.865,29.326
1.97,6.323,6.802,-3.832,-29.326,-5.94,6.802,4.215,-29.326,6.471,6.759,4.026,-17.595,-5.865,29.326
1.975,6.371,6.706,-3.784,-29.326,-5.988,6.658,4.215,-29.326,6.471,6.759,4.026,-17.595,-5.865,29.326
1.98,6.275,6.658,-3.736,-29.326,-5.94,6.562,4.167,-29.326,6.471,6.615,4.026,-17.595,-5.865,29.326
1.985,6.275,6.562,-3.736,-29.326,-5.892,6.658,4.072,-29.326,6.471,6.471,3.883,-17.595,0.0,29.326
1.99,6.275,6.419,-3.688,-23.46,-5.94,6.562,4.024,-29.326,6.327,6.471,3.883,-17.595,0.0,29.326
1.995,6.275,6.467,-3.593,-29.326,-5.844,6.562,3.976,-29.326,6.327,6.327,3.883,-17.595,0.0,29.326
2.0,6.227,6.419,-3.545,-29.326,-5.94,6.658,3.928,-29.326,6.471,6.327,3.739,-17.595,0.0,29.326
2.005,6.179,6.371,-3.449,-23.46,-5.988,6.706,3.88,-29.326,6.327,6.327,3.739,-17.595,0.0,29.326
2.0100000000000002,6.227,6.467,-3.449,-29.326,-5.94,6.658,3.88,-29.326,6.327,6.327,3.739,-17.595,0.0,29.326
2.015,6.179,6.419,-3.449,-29.326,-5.94,6.562,3.928,-29.326,6.183,6.327,3.595,-17.595,0.0,29.326
2.02,6.179,6.323,-3.449,-29.326,-5.94,6.419,3.928,-29.326,6.183,6.183,3.595,-17.595,0.0,29.326
2.025,6.179,6.227,-3.401,-29.326,-5.94,6.323,3.928,-29.326,6.183,6.04,3.595,-11.73,0.0,29.326
2.0300000000000002,6.179,6.131,-3.401,-29.326,-5.94,6.131,3.832,-29.326,6.183,6.04,3.595,-11.73,-5.865,29.326
2.035,6.131,6.035,-3.449,-29.326,-5.94,6.083,3.88,-29.326,6.183,5.896,3.595,-11.73,-5.865,29.326
2.04,6.131,5.988,-3.401,-29.326,-5.94,5.892,3.88,-29.326,6.04,5.752,3.595,-5.865,-5.865,29.326
2.045,6.179,5.988,-3.401,-29.326,-5.892,5.94,3.928,-29.326,6.183,5.896,3.595,-5.865,-5.865,29.326
2.05,6.179,5.94,-3.401,-29.326,-5.844,6.083,4.024,-29.326,6.183,6.04,3.595,-5.865,-5.865,29.326
2.055,6.131,5.94,-3.401,-29.326,-5.892,6.035,4.072,-29.326,6.327,6.04,3.739,-5.865,-5.865,29.326
2.06,6.131,5.892,-3.497,-29.326,-6.083,5.94,4.167,-29.326,6.327,5.896,3.739,-5.865,-5.865,29.326
2.065,6.227,5.892,-3.64,-29.326,-6.035,5.94,4.263,-29.326,6.327,5.752,3.739,-5.865,-5.865,29.326
2.07,6.323,5.7,-3.736,-29.326,-5.94,5.892,4.263,-29.326,6.327,5.752,3.883,-5.865,-5.865,29.326
2.075,6.275,5.652,-3.736,-29.326,-5.988,5.892,4.167,-29.326,6.327,5.608,4.026,-5.865,-5.865,29.326
2.08,6.275,5.7,-3.736,-23.46,-5.988,5.844,4.119,-29.326,6.471,5.464,4.026,-5.865,-5.865,29.326
2.085,6.323,5.748,-3.64,-29.326,-5.988,5.652,4.024,-29.326,6.471,5.608,3.883,-5.865,-5.865,29.326
2.09,6.227,5.748,-3.593,-29.326,-5.94,5.604,3.976,-23.46,6.471,5.752,3.883,0.0,-5.865,29.326
2.095,6.227,5.7,-3.449,-29.326,-5.988,5.461,3.976,-29.326,6.327,5.752,3.739,-5.865,-5.865,29.326
2.1,6.275,5.652,-3.497,-29.326,-5.988,5.365,4.072,-23.46,6.471,5.752,3.739,-5.865,-5.865,29.326
2.105,6.227,5.461,-3.497,-29.326,-5.94,5.269,4.119,-23.46,6.327,5.608,3.739,-5.865,-5.865,29.326
2.11,6.227,5.269,-3.593,-23.46,-5.94,5.317,4.119,-23.46,6.327,5.464,3.739,-5.865,-5.865,29.326
2.115,6.227,5.221,-3.593,-23.46,-6.035,5.365,4.167,-23.46,6.471,5.321,3.883,-5.865,0.0,23.46
2.12,6.227,5.221,-3.64,-23.46,-6.035,5.365,4.119,-23.46,6.471,5.321,3.883,-5.865,0.0,23.46
2.125,6.275,5.221,-3.688,-23.46,-6.035,5.461,4.119,-23.46,6.327,5.177,3.883,-11.73,0.0,23.46
2.13,6.275,5.173,-3.64,-17.595,-6.083,5.221,4.119,-23.46,6.327,5.033,3.883,-11.73,0.0,23.46
2.1350000000000002,6.179,5.125,-3.64,-23.46,-6.035,5.03,4.024,-17.595,6.327,5.033,3.883,-11.73,0.0,23.46
2.14,6.179,4.934,-3.593,-17.595,-5.94,4.982,4.024,-17.595,6.183,4.889,3.883,-5.865,0.0,23.46
2.145,6.179,4.79,-3.497,-17.595,-5.94,4.838,3.976,-17.595,6.183,4.602,3.739,-5.865,0.0,23.46
2.15,6.083,4.742,-3.545,-17.595,-5.892,4.646,3.928,-17.595,6.183,4.602,3.739,-5.865,0.0,23.46
2.1550000000000002,6.035,4.646,-3.449,-23.46,-5.796,4.551,3.88,-17.595,6.04,4.602,3.739,-5.865,0.0,23.46
2.16,6.035,4.598,-3.401,-17.595,-5.748,4.503,3.928,-17.595,6.183,4.602,3.595,0.0,0.0,23.46
2.165,5.94,4.503,-3.401,-17.595,-5.748,4.359,3.976,-11.73,6.04,4.602,3.595,0.0,-5.865,17.595
2.17,5.892,4.359,-3.449,-17.595,-5.7,4.311,4.024,-11.73,6.04,4.458,3.595,0.0,-5.865,17.595
2.1750000000000003,5.892,4.263,-3.497,-11.73,-5.652,4.263,4.119,-11.73,5.896,4.314,3.739,0.0,-5.865,17.595
2.18,5.94,4.215,-3.545,-11.73,-5.652,4.263,4.167,-11.73,6.04,4.17,3.739,0.0,-5.865,11.73
2.185,5.892,4.119,-3.64,-11.73,-5.7,4.215,4.167,-5.865,6.04,4.17,3.883,0.0,0.0,11.73
2.19,5.892,4.024,-3.64,-11.73,-5.652,4.119,4.167,-5.865,6.04,4.026,3.883,0.0,0.0,11.73
2.195,5.892,3.976,-3.64,-5.865,-5.652,4.024,4.167,0.0,6.04,3.739,3.883,0.0,0.0,11.73
2.2,5.892,3.88,-3.64,-5.865,-5.7,3.976,4.119,0.0,6.04,3.739,3.883,0.0,0.0,5.865
2.205,5.844,3.784,-3.64,-0.0,-5.652,3.928,4.167,0.0,6.04,3.595,3.883,0.0,0.0,5.865
2.21,5.844,3.784,-3.593,-0.0,-5.7,3.88,4.215,5.865,6.04,3.595,3.883,5.865,0.0,5.865
2.215,5.796,3.688,-3.64,5.865,-5.7,3.784,4.311,5.865,5.896,3.595,3.883,5.865,0.0,0.0
2.22,5.796,3.593,-3.736,5.865,-5.748,3.545,4.455,11.73,5.896,3.451,3.883,5.865,0.0,0.0
2.225,5.796,3.401,-3.88,11.73,-5.652,3.353,4.742,17.595,5.896,3.307,4.026,5.865,0.0,-5.865
2.23,5.796,3.066,-4.024,11.73,-5.7,3.066,4.982,17.595,5.896,2.876,4.17,5.865,0.0,-11.73
2.235,5.796,2.73,-4.311,17.595,-5.509,2.682,5.221,23.46,5.896,2.445,4.314,5.865,0.0,-11.73
2.24,5.796,2.299,-4.551,23.46,-5.317,2.06,5.317,29.326,5.896,2.013,4.745,17.595,0.0,-17.595
2.245,5.652,1.868,-4.742,23.46,-5.03,1.341,5.413,35.191,5.896,1.582,4.889,23.46,5.865,-17.595
2.25,5.509,1.389,-4.79,29.326,-4.79,0.814,5.413,41.056,5.896,1.15,5.033,29.326,5.865,-23.46
2.255,5.173,1.006,-4.838,35.191,-4.407,0.719,5.413,52.786,5.752,0.863,5.033,41.056,5.865,-35.191
2.2600000000000002,4.982,0.814,-4.838,46.921,-4.167,1.198,5.269,64.516,5.464,0.719,5.033,41.056,11.73,-41.056
2.265,4.79,1.198,-4.79,52.786,-4.167,1.581,5.269,70.381,5.321,1.15,5.033,41.056,17.595,-46.921
2.27,4.694,1.724,-4.646,64.516,-4.072,1.964,5.221,76.246,5.177,1.869,5.033,41.056,17.595,-58.651
2.275,4.598,2.203,-4.694,70.381,-4.072,2.251,5.125,87.977,5.177,2.157,4.889,35.191,23.46,-64.516
2.2800000000000002,4.551,2.347,-4.646,82.111,-4.024,2.587,5.077,93.842,5.177,2.588,4.889,29.326,29.326,-76.246
2.285,4.455,2.443,-4.598,87.977,-4.024,2.97,4.934,99.707,4.889,2.588,4.889,23.46,35.191,-82.111
2.29,4.359,2.587,-4.503,93.842,-4.167,3.64,4.598,105.572,4.745,2.588,4.889,17.595,41.056,-87.977
2.295,4.167,2.97,-4.311,99.707,-4.167,3.832,4.263,105.572,4.602,2.588,4.745,17.595,46.921,-93.842
2.3000000000000003,4.263,3.449,-4.024,99.707,-4.072,4.119,4.024,111.437,4.314,2.876,4.458,17.595,46.921,-99.707
2.305,4.167,3.688,-3.688,105.572,-4.167,4.886,3.88,117.302,4.17,3.307,4.17,17.595,52.786,-105.572
2.31,4.167,4.119,-3.449,111.437,-4.311,6.083,3.784,117.302,4.17,3.739,3.739,23.46,46.921,-105.572
2.315,4.215,5.077,-3.353,117.302,-4.551,7.377,3.832,123.167,4.17,4.458,3.595,23.46,46.921,-111.437
2.32,4.359,6.083,-3.305,117.302,-4.886,8.909,4.072,123.167,4.026,5.321,3.595,23.46,46.921,-117.302
2.325,4.646,7.137,-3.449,123.167,-7.664,23.423,-1.198,117.302,4.314,6.183,3.595,23.46,46.921,-117.302
2.33,4.79,11.688,-3.353,117.302,-5.556,24.429,-7.76,87.977,4.458,7.19,3.739,29.326,41.056,-117.302
2.335,10.155,24.142,3.257,111.437,-17.675,24.429,-10.778,76.246,9.491,24.877,1.15,29.326,29.326,-117.302
2.34,5.844,24.237,7.856,76.246,-5.796,14.226,-8.095,23.46,5.896,49.611,-6.327,17.595,29.326,-93.842
2.345,8.862,24.237,10.011,70.381,-6.083,3.209,-3.688,-87.977,-3.164,37.676,-9.203,29.326,17.595,-70.381
2.35,7.52,11.927,7.425,-5.865,-6.514,0.431,2.874,-117.302,7.046,20.132,-8.628,99.707,-64.516,-46.921
2.355,8.718,4.646,2.443,-99.707,-6.275,1.054,7.329,-76.246,10.354,10.497,-5.321,123.167,-129.032,64.516
2.36,8.478,1.916,-3.784,-111.437,-6.562,3.497,8.526,-11.73,10.641,4.458,1.007,99.707,-123.167,117.302
2.365,8.335,2.587,-7.281,-58.651,-7.377,6.227,8.335,23.46,10.354,2.445,6.327,76.246,-99.707,87.977
2.37,10.107,5.509,-7.808,-0.0,-6.802,8.957,7.999,35.191,11.648,4.458,8.197,64.516,-76.246,29.326
2.375,10.49,9.053,-7.568,29.326,-6.323,9.724,7.233,35.191,13.517,8.772,8.053,52.786,-46.921,-17.595
2.38,9.245,11.209,-7.233,35.191,-5.077,8.766,5.988,35.191,12.654,12.223,7.765,29.326,-11.73,-35.191
2.3850000000000002,7.616,11.113,-6.467,35.191,-5.509,7.377,4.742,35.191,10.066,13.086,7.19,5.865,23.46,-35.191
2.39,5.652,9.724,-5.125,35.191,-5.365,6.754,4.024,35.191,7.19,11.935,6.183,-11.73,46.921,-35.191
2.395,5.317,8.143,-4.024,35.191,-5.509,6.514,4.119,35.191,5.033,10.066,4.745,-35.191,58.651,-35.191
2.4,5.077,6.993,-3.545,35.191,-5.796,6.61,4.455,29.326,4.745,8.197,3.883,-46.921,58.651,-35.191
2.4050000000000002,5.125,6.035,-3.784,35.191,-6.083,6.754,4.838,23.46,4.602,6.615,3.883,-58.651,52.786,-35.191
2.41,5.317,5.221,-4.215,29.326,-6.035,6.85,5.317,17.595,4.602,4.889,4.17,-64.516,41.056,-29.326
2.415,5.652,4.694,-4.694,23.46,-6.131,6.514,5.269,5.865,5.033,3.451,4.602,-58.651,35.191,-23.46
2.42,5.748,4.455,-4.934,11.73,-5.796,6.131,5.125,0.0,5.033,2.588,5.177,-46.921,23.46,-17.595
2.4250000000000003,5.94,4.503,-4.838,5.865,-5.556,5.556,4.503,0.0,5.608,2.876,5.177,-23.46,17.595,-5.865
2.43,5.604,4.694,-4.503,-0.0,-5.077,5.892,3.784,0.0,5.464,3.164,5.033,-5.865,5.865,0.0
2.435,5.461,5.269,-3.784,-0.0,-5.173,6.946,3.353,0.0,5.321,4.17,4.458,17.595,0.0,5.865
2.44,5.317,6.323,-3.161,-0.0,-5.173,8.095,2.97,0.0,5.321,5.752,3.739,29.326,0.0,5.865
2.445,5.413,7.616,-2.73,-0.0,-5.221,8.814,2.682,0.0,5.321,7.19,3.164,29.326,-5.865,0.0
2.45,5.509,8.574,-2.443,-0.0,-5.365,8.862,2.443,0.0,5.464,8.34,2.876,29.326,-5.865,0.0
2.455,5.652,8.957,-2.108,-0.0,-5.413,8.478,2.395,-5.865,5.608,8.916,2.445,23.46,-5.865,0.0
2.46,5.748,8.814,-1.916,-0.0,-5.413,7.904,2.539,-5.865,5.752,9.059,2.157,23.46,-5.865,0.0
2.465,5.796,8.383,-1.916,-5.865,-5.509,7.472,3.018,-5.865,5.752,8.772,2.157,17.595,-5.865,5.865
2.47,5.94,7.808,-2.203,-5.865,-5.604,7.233,3.593,-11.73,6.04,8.197,2.157,5.865,-11.73,5.865
2.475,6.083,7.425,-2.682,-5.865,-5.796,7.041,3.88,-5.865,6.183,7.765,2.588,5.865,-11.73,5.865
2.48,6.227,7.137,-3.209,-11.73,-5.892,6.898,3.976,-5.865,6.471,7.334,3.164,5.865,-5.865,11.73
2.485,6.371,6.993,-3.401,-11.73,-5.988,6.946,4.072,-5.865,6.615,7.046,3.595,5.865,-5.865,11.73
2.49,6.467,6.993,-3.497,-5.865,-6.035,6.993,4.119,-5.865,6.759,7.046,3.739,5.865,-5.865,11.73
2.495,6.467,7.041,-3.593,-5.865,-6.035,6.993,4.119,-5.865,6.759,7.19,3.739,5.865,0.0,5.865
2.5,6.419,7.041,-3.64,-5.865,-6.083,7.041,4.072,-5.865,6.615,7.19,3.883,5.865,0.0,5.865
2.505,6.419,7.041,-3.64,-5.865,-6.035,7.089,4.072,0.0,6.615,7.19,3.883,0.0,0.0,5.865
2.5100000000000002,6.371,7.041,-3.593,-0.0,-5.94,7.089,4.024,0.0,6.471,7.046,3.883,0.0,5.865,5.865
2.515,6.227,6.993,-3.593,-0.0,-5.94,7.089,3.976,0.0,6.327,7.046,3.739,0.0,5.865,5.865
2.52,6.179,6.946,-3.545,-0.0,-5.844,6.993,3.88,0.0,6.327,6.902,3.739,0.0,0.0,0.0
2.525,6.179,6.85,-3.497,-0.0,-5.7,6.946,3.784,0.0,6.183,6.759,3.739,0.0,0.0,0.0
2.5300000000000002,6.083,6.802,-3.401,-0.0,-5.652,6.946,3.736,0.0,6.183,6.759,3.595,0.0,0.0,0.0
2.535,6.035,6.802,-3.305,-0.0,-5.556,6.993,3.688,5.865,6.183,6.759,3.595,0.0,0.0,0.0
2.54,5.94,6.802,-3.257,5.865,-5.509,7.041,3.593,5.865,6.04,6.759,3.451,0.0,0.0,0.0
2.545,5.892,6.85,-3.161,5.865,-5.509,7.137,3.593,5.865,6.04,6.759,3.451,0.0,0.0,0.0
2.5500000000000003,5.844,6.898,-3.114,5.865,-5.461,7.233,3.64,5.865,6.04,6.759,3.307,0.0,0.0,0.0
2.555,5.844,6.993,-3.114,5.865,-5.461,7.233,3.688,5.865,5.896,6.902,3.307,0.0,0.0,0.0
2.56,5.844,7.089,-3.161,5.865,-5.413,7.281,3.736,0.0,5.896,6.902,3.307,0.0,0.0,0.0
2.565,5.748,7.137,-3.209,5.865,-5.509,7.281,3.928,0.0,5.896,7.046,3.451,5.865,0.0,0.0
2.57,5.796,7.185,-3.305,-0.0,-5.604,7.377,4.072,0.0,5.752,7.046,3.451,5.865,0.0,0.0
2.575,5.844,7.185,-3.497,-0.0,-5.556,7.329,4.215,0.0,5.896,7.19,3.595,5.865,0.0,5.865
2.58,5.892,7.185,-3.64,-0.0,-5.556,7.233,4.263,0.0,5.896,7.19,3.883,5.865,0.0,5.865
2.585,5.892,7.137,-3.736,-0.0,-5.652,7.137,4.359,0.0,5.896,7.046,3.883,5.865,0.0,5.865
2.59,5.94,7.089,-3.784,-5.865,-5.556,7.089,4.359,-5.865,6.04,7.046,4.026,5.865,0.0,0.0
2.595,5.988,7.041,-3.88,-5.865,-5.652,7.137,4.359,-5.865,6.04,7.046,4.026,5.865,0.0,5.865
2.6,5.94,6.993,-3.928,-0.0,-5.652,7.137,4.263,-5.865,6.04,7.046,4.17,5.865,0.0,5.865
2.605,5.988,7.041,-3.88,-5.865,-5.652,7.137,4.263,-5.865,6.04,7.046,4.17,5.865,0.0,5.865
2.61,6.035,7.041,-3.784,-5.865,-5.652,7.137,4.215,0.0,6.183,7.046,4.026,5.865,0.0,5.865
2.615,6.035,7.041,-3.736,-0.0,-5.652,7.185,4.167,0.0,6.183,7.046,4.026,0.0,0.0,5.865
2.62,6.035,7.041,-3.736,-5.865,-5.652,7.233,4.119,0.0,6.183,7.046,4.026,5.865,0.0,5.865
2.625,6.035,7.089,-3.688,-5.865,-5.652,7.281,4.119,0.0,6.183,7.046,3.883,0.0,0.0,5.865
2.63,6.083,7.137,-3.64,-0.0,-5.652,7.281,4.119,0.0,6.183,7.19,3.883,0.0,0.0,5.865
2.6350000000000002,6.083,7.185,-3.64,-0.0,-5.652,7.329,4.072,0.0,6.183,7.19,3.883,0.0,0.0,5.865
2.64,6.083,7.185,-3.593,-0.0,-5.604,7.329,4.024,0.0,6.183,7.19,3.883,0.0,0.0,5.865
2.645,6.083,7.185,-3.545,-0.0,-5.604,7.329,3.976,0.0,6.183,7.19,3.883,0.0,0.0,5.865
2.65,6.035,7.185,-3.545,-0.0,-5.604,7.281,3.928,0.0,6.183,7.19,3.739,0.0,0.0,0.0
2.6550000000000002,6.035,7.185,-3.497,-0.0,-5.652,7.329,3.928,0.0,6.183,7.19,3.739,0.0,5.865,0.0
2.66,6.035,7.185,-3.449,-0.0,-5.652,7.329,3.88,0.0,6.183,7.19,3.739,0.0,5.865,5.865
2.665,6.035,7.233,-3.449,-0.0,-5.7,7.377,3.928,0.0,6.183,7.19,3.595,0.0,5.865,0.0
2.67,6.035,7.281,-3.449,-0.0,-5.7,7.377,3.976,0.0,6.183,7.19,3.595,0.0,5.865,0.0
2.6750000000000003,6.035,7.281,-3.449,-0.0,-5.796,7.425,3.976,0.0,6.183,7.19,3.739,0.0,5.865,5.865
2.68,6.035,7.281,-3.497,-0.0,-5.7,7.472,3.976,0.0,6.183,7.19,3.739,0.0,5.865,5.865
2.685,6.131,7.281,-3.497,-0.0,-5.748,7.425,4.024,0.0,6.183,7.19,3.739,0.0,5.865,5.865
2.69,6.035,7.281,-3.497,-0.0,-5.748,7.472,4.024,0.0,6.183,7.19,3.739,0.0,5.865,0.0
2.695,6.035,7.233,-3.545,-5.865,-5.796,7.52,3.976,-5.865,6.04,7.19,3.739,0.0,0.0,5.865
2.7,6.035,7.233,-3.545,-5.865,-5.796,7.568,3.928,-5.865,6.04,7.19,3.739,0.0,0.0,5.865
2.705,6.083,7.329,-3.497,-0.0,-5.748,7.52,3.928,-5.865,6.04,7.19,3.739,0.0,0.0,5.865
2.71,6.083,7.377,-3.449,-5.865,-5.748,7.52,3.88,-5.865,6.183,7.19,3.739,0.0,0.0,5.865
2.715,6.083,7.425,-3.449,-5.865,-5.748,7.52,3.928,-5.865,6.183,7.334,3.739,5.865,0.0,5.865
2.72,6.083,7.425,-3.401,-5.865,-5.748,7.52,3.928,-5.865,6.183,7.334,3.595,5.865,0.0,5.865
2.725,6.083,7.425,-3.449,-5.865,-5.796,7.52,3.928,-11.73,6.183,7.334,3.595,5.865,0.0,5.865
2.73,6.083,7.425,-3.449,-11.73,-5.796,7.568,3.88,-11.73,6.183,7.334,3.595,5.865,0.0,5.865
2.735,6.179,7.472,-3.449,-11.73,-5.796,7.616,3.928,-5.865,6.183,7.478,3.595,5.865,0.0,11.73
2.74,6.179,7.472,-3.449,-11.73,-5.796,7.664,3.928,-11.73,6.327,7.478,3.595,5.865,0.0,11.73
2.745,6.179,7.52,-3.449,-11.73,-5.844,7.712,3.88,-11.73,6.327,7.478,3.595,5.865,0.0,11.73
2.75,6.179,7.616,-3.449,-11.73,-5.892,7.76,3.88,-11.73,6.327,7.621,3.595,0.0,0.0,11.73
2.755,6.275,7.712,-3.401,-11.73,-5.892,7.856,3.784,-11.73,6.327,7.765,3.595,0.0,0.0,11.73
2.7600000000000002,6.323,7.808,-3.353,-11.73,-5.94,7.856,3.688,-11.73,6.471,7.909,3.595,0.0,0.0,11.73
2.765,6.323,7.856,-3.305,-11.73,-5.94,7.808,3.736,-11.73,6.471,7.909,3.595,0.0,0.0,17.595
2.77,6.371,7.856,-3.209,-11.73,-5.94,7.856,3.688,-17.595,6.471,7.909,3.451,0.0,0.0,11.73
2.775,6.323,7.808,-3.257,-17.595,-5.988,7.951,3.64,-17.595,6.471,7.909,3.451,0.0,0.0,17.595
2.7800000000000002,6.323,7.856,-3.209,-17.595,-5.988,7.951,3.64,-17.595,6.327,7.909,3.451,-5.865,0.0,17.595
2.785,6.371,7.951,-3.161,-17.595,-5.988,7.951,3.64,-17.595,6.471,7.909,3.451,-5.865,0.0,17.595
2.79,6.371,7.904,-3.161,-17.595,-6.035,7.999,3.64,-17.595,6.471,8.053,3.307,-5.865,0.0,17.595
2.795,6.323,7.856,-3.161,-17.595,-6.035,7.951,3.64,-17.595,6.471,7.909,3.451,-5.865,0.0,17.595
2.8000000000000003,6.371,7.856,-3.161,-17.595,-6.035,7.951,3.64,-23.46,6.471,7.909,3.451,-5.865,0.0,23.46
2.805,6.371,7.808,-3.209,-17.595,-6.035,7.904,3.593,-23.46,6.471,7.765,3.451,-11.73,0.0,23.46
2.81,6.371,7.808,-3.161,-23.46,-5.988,7.808,3.545,-23.46,6.471,7.765,3.451,-11.73,0.0,23.46
2.815,6.419,7.808,-3.114,-23.46,-5.988,7.712,3.545,-29.326,6.471,7.765,3.307,-11.73,0.0,23.46
2.82,6.371,7.712,-3.066,-23.46,-5.94,7.664,3.545,-29.326,6.471,7.765,3.307,-5.865,0.0,23.46
2.825,6.323,7.712,-3.066,-29.326,-5.892,7.52,3.64,-29.326,6.471,7.765,3.307,-11.73,0.0,29.326
2.83,6.227,7.616,-3.114,-29.326,-5.94,7.329,3.688,-29.326,6.327,7.765,3.307,-11.73,0.0,29.326
2.835,6.227,7.425,-3.209,-29.326,-5.94,7.185,3.784,-29.326,6.327,7.621,3.451,-11.73,-5.865,29.326
2.84,6.275,7.185,-3.257,-29.326,-5.988,7.185,3.784,-29.326,6.327,7.334,3.451,-11.73,-5.865,29.326
2.845,6.371,7.041,-3.305,-29.326,-5.94,7.041,3.88,-29.326,6.471,7.046,3.451,-11.73,-5.865,29.326
2.85,6.323,6.993,-3.353,-29.326,-5.94,6.993,3.832,-29.326,6.471,6.902,3.595,-11.73,-5.865,29.326
2.855,6.275,6.946,-3.401,-29.326,-5.94,6.946,3.784,-29.326,6.327,6.902,3.595,-11.73,-5.865,29.326
2.86,6.323,6.946,-3.305,-23.46,-5.844,6.898,3.784,-29.326,6.471,6.902,3.595,-11.73,-5.865,29.326
2.865,6.275,6.898,-3.305,-29.326,-5.892,6.946,3.736,-29.326,6.471,7.046,3.595,-11.73,-5.865,29.326
2.87,6.227,6.898,-3.305,-29.326,-5.94,6.993,3.784,-29.326,6.471,6.902,3.451,-11.73,-5.865,29.326
2.875,6.275,6.898,-3.305,-29.326,-5.94,6.946,3.736,-29.326,6.327,6.902,3.451,-17.595,-5.865,29.326
2.88,6.275,6.898,-3.305,-29.326,-5.94,6.85,3.784,-29.326,6.327,6.902,3.451,-17.595,0.0,29.326
2.8850000000000002,6.227,6.802,-3.305,-29.326,-5.94,6.802,3.784,-29.326,6.327,6.759,3.451,-17.595,0.0,29.326
2.89,6.227,6.706,-3.305,-29.326,-5.988,6.706,3.784,-29.326,6.327,6.615,3.451,-17.595,-5.865,29.326
2.895,6.275,6.61,-3.305,-29.326,-5.94,6.658,3.784,-29.326,6.327,6.615,3.451,-17.595,-5.865,29.326
2.9,6.227,6.562,-3.353,-29.326,-5.988,6.706,3.784,-29.326,6.327,6.471,3.595,-17.595,-5.865,29.326
2.9050000000000002,6.227,6.514,-3.305,-29.326,-5.988,6.802,3.832,-29.326,6.327,6.471,3.595,-17.595,-5.865,29.326
2.91,6.275,6.562,-3.353,-29.326,-6.035,6.61,3.784,-29.326,6.327,6.471,3.595,-17.595,-5.865,29.326
2.915,6.227,6.562,-3.353,-29.326,-5.988,6.61,3.88,-29.326,6.327,6.471,3.595,-11.73,-5.865,29.326
2.92,6.275,6.419,-3.353,-29.326,-5.988,6.467,3.88,-35.191,6.183,6.327,3.595,-17.595,-5.865,29.326
2.9250000000000003,6.275,6.371,-3.401,-29.326,-5.94,6.275,3.88,-29.326,6.327,6.327,3.595,-11.73,-5.865,29.326
2.93,6.275,6.275,-3.401,-29.326,-5.892,6.275,3.928,-29.326,6.327,6.327,3.595,-11.73,-5.865,29.326
2.935,6.227,6.179,-3.401,-29.326,-5.988,6.083,3.976,-35.191,6.327,6.183,3.595,-11.73,-5.865,29.326
2.94,6.227,6.179,-3.401,-29.326,-5.844,6.131,4.072,-29.326,6.327,6.183,3.595,-11.73,-5.865,29.326
2.945,6.275,5.988,-3.497,-29.326,-5.94,5.94,4.119,-29.326,6.327,6.04,3.739,-11.73,-5.865,35.191
2.95,6.179,5.892,-3.593,-29.326,-6.035,5.796,4.167,-29.326,6.327,5.896,3.739,-11.73,-5.865,35.191
2.955,6.275,5.796,-3.64,-29.326,-5.892,5.844,4.215,-29.326,6.471,5.752,3.883,-11.73,-5.865,29.326
2.96,6.323,5.748,-3.688,-29.326,-5.988,5.844,4.215,-29.326,6.471,5.752,3.883,-11.73,-5.865,29.326
2.965,6.275,5.796,-3.736,-23.46,-6.035,5.796,4.215,-29.326,6.471,5.752,3.883,-11.73,-5.865,29.326
2.97,6.323,5.748,-3.736,-23.46,-5.94,5.892,4.167,-23.46,6.471,5.752,3.883,-11.73,-5.865,29.326
2.975,6.323,5.748,-3.688,-23.46,-6.035,5.892,4.167,-23.46,6.471,5.752,3.883,-11.73,-5.865,29.326
2.98,6.323,5.748,-3.688,-23.46,-6.083,5.94,4.167,-23.46,6.471,5.752,3.883,-11.73,0.0,23.46
2.985,6.323,5.748,-3.688,-23.46,-6.035,5.892,4.167,-23.46,6.471,5.752,3.883,-11.73,0.0,23.46
2.99,6.323,5.748,-3.688,-23.46,-6.083,5.844,4.167,-23.46,6.471,5.608,3.883,-11.73,0.0,23.46
2.995,6.323,5.748,-3.688,-23.46,-6.083,5.892,4.119,-23.46,6.471,5.608,3.883,-11.73,0.0,23.46
3.0,6.323,5.7,-3.688,-23.46,-6.179,5.892,4.119,-23.46,6.471,5.608,3.883,-11.73,0.0,23.46
3.005,6.323,5.7,-3.64,-23.46,-6.131,5.892,4.119,-23.46,6.471,5.608,3.883,-11.73,0.0,23.46
3.0100000000000002,6.371,5.652,-3.64,-23.46,-6.179,5.796,4.072,-23.46,6.471,5.464,3.883,-11.73,0.0,29.326
3.015,6.371,5.7,-3.64,-23.46,-6.131,5.7,4.024,-23.46,6.471,5.464,3.739,-11.73,0.0,23.46
3.02,6.371,5.7,-3.593,-23.46,-6.179,5.844,3.976,-23.46,6.471,5.608,3.739,-5.865,0.0,23.46
3.025,6.371,5.7,-3.545,-23.46,-6.179,5.892,3.88,-23.46,6.471,5.608,3.739,-5.865,0.0,23.46
3.0300000000000002,6.419,5.796,-3.449,-23.46,-6.131,5.94,3.832,-17.595,6.471,5.752,3.739,-5.865,0.0,23.46
3.035,6.371,5.844,-3.353,-23.46,-6.179,5.988,3.832,-23.46,6.471,5.752,3.595,-5.865,0.0,23.46
3.04,6.323,5.796,-3.401,-23.46,-6.227,5.94,3.928,-17.595,6.471,5.752,3.595,-5.865,0.0,23.46
3.045,6.419,5.844,-3.353,-17.595,-6.179,5.94,4.024,-17.595,6.471,5.752,3.595,-5.865,0.0,23.46
3.0500000000000003,6.419,5.748,-3.449,-17.595,-6.323,5.892,4.024,-17.595,6.615,5.752,3.595,-5.865,0.0,23.46
3.055,6.467,5.7,-3.545,-17.595,-6.275,5.844,4.072,-17.595,6.615,5.608,3.739,-5.865,0.0,23.46
3.06,6.562,5.604,-3.545,-17.595,-6.323,5.844,4.072,-17.595,6.615,5.464,3.739,-5.865,0.0,23.46
3.065,6.562,5.604,-3.593,-17.595,-6.371,5.7,4.024,-17.595,6.759,5.464,3.739,-5.865,0.0,23.46
3.0700000000000003,6.61,5.652,-3.593,-17.595,-6.323,5.748,4.024,-17.595,6.759,5.464,3.739,-5.865,0.0,23.46
3.075,6.61,5.652,-3.545,-17.595,-6.371,5.796,4.072,-17.595,6.759,5.608,3.739,0.0,0.0,23.46
3.08,6.658,5.7,-3.545,-17.595,-6.323,5.796,3.976,-17.595,6.759,5.608,3.739,0.0,0.0,23.46
3.085,6.61,5.748,-3.545,-17.595,-6.467,5.892,4.024,-11.73,6.759,5.752,3.739,0.0,0.0,17.595
3.09,6.658,5.748,-3.497,-11.73,-6.419,6.035,4.024,-11.73,6.759,5.752,3.739,0.0,0.0,17.595
3.095,6.754,5.844,-3.497,-11.73,-6.514,6.083,3.976,-11.73,6.902,5.752,3.739,-5.865,0.0,17.595
3.1,6.706,5.892,-3.497,-11.73,-6.562,6.179,3.976,-11.73,6.902,5.752,3.739,0.0,0.0,17.595
3.105,6.802,5.988,-3.497,-11.73,-6.562,6.179,3.928,-11.73,6.902,5.896,3.739,-5.865,0.0,17.595
3.11,6.802,6.035,-3.497,-11.73,-6.514,6.035,3.832,-11.73,7.046,5.896,3.739,-5.865,0.0,17.595
3.115,6.802,5.988,-3.401,-11.73,-6.514,5.988,3.832,-11.73,6.902,5.896,3.739,0.0,5.865,11.73
3.12,6.754,5.94,-3.305,-11.73,-6.562,6.179,3.832,-11.73,6.902,5.896,3.595,0.0,5.865,11.73
3.125,6.754,5.988,-3.353,-11.73,-6.562,6.227,3.832,-5.865,6.902,5.896,3.595,0.0,5.865,11.73
3.13,6.85,6.083,-3.353,-11.73,-6.562,6.179,3.784,-5.865,7.046,6.04,3.595,0.0,5.865,11.73
3.1350000000000002,6.802,6.083,-3.353,-11.73,-6.61,6.275,3.736,-5.865,6.902,6.04,3.595,0.0,5.865,11.73
3.14,6.85,6.035,-3.305,-5.865,-6.61,6.371,3.736,-5.865,6.902,6.04,3.451,-5.865,5.865,11.73
3.145,6.85,6.131,-3.257,-5.865,-6.61,6.323,3.688,-5.865,7.046,6.04,3.451,-5.865,5.865,5.865
3.15,6.802,6.131,-3.257,-5.865,-6.562,6.227,3.64,-5.865,6.902,6.04,3.451,0.0,5.865,5.865
3.1550000000000002,6.802,6.083,-3.209,-5.865,-6.562,6.227,3.545,-5.865,6.902,6.04,3.451,0.0,5.865,11.73
3.16,6.802,6.083,-3.114,-5.865,-6.562,6.227,3.593,-5.865,6.902,6.04,3.451,0.0,5.865,5.865
3.165,6.802,6.083,-3.114,-5.865,-6.562,6.131,3.545,-5.865,6.902,6.04,3.307,0.0,5.865,11.73
3.17,6.754,6.035,-3.114,-5.865,-6.562,6.083,3.545,-5.865,6.902,6.04,3.307,0.0,0.0,11.73
3.1750000000000003,6.754,5.988,-3.066,-5.865,-6.514,6.131,3.593,-5.865,6.759,5.896,3.307,0.0,0.0,11.73
3.18,6.802,6.035,-3.066,-5.865,-6.514,6.131,3.545,-5.865,6.902,5.896,3.307,0.0,0.0,11.73
3.185,6.754,6.083,-3.114,-11.73,-6.562,6.179,3.545,-5.865,6.902,6.04,3.307,0.0,0.0,11.73
3.19,6.802,6.131,-3.066,-5.865,-6.562,6.275,3.593,-5.865,6.902,6.04,3.307,0.0,0.0,11.73
3.1950000000000003,6.802,6.131,-3.066,-5.865,-6.562,6.227,3.64,-11.73,6.902,6.183,3.307,0.0,0.0,11.73
3.2,6.802,6.179,-3.114,-5.865,-6.61,6.131,3.64,-5.865,6.902,6.183,3.307,0.0,0.0,11.73
3.205,6.802,6.083,-3.161,-11.73,-6.61,6.179,3.64,-5.865,6.902,6.04,3.307,0.0,0.0,11.73
3.21,6.85,5.988,-3.161,-5.865,-6.562,6.131,3.64,-5.865,6.902,6.04,3.451,0.0,0.0,11.73
3.215,6.898,6.035,-3.209,-5.865,-6.61,5.988,3.64,-11.73,7.046,5.896,3.451,0.0,0.0,11.73
3.22,6.802,5.988,-3.161,-5.865,-6.562,5.988,3.593,-5.865,7.046,6.04,3.451,0.0,0.0,11.73
3.225,6.85,5.94,-3.114,-5.865,-6.61,6.083,3.593,-5.865,6.902,5.896,3.307,0.0,0.0,11.73
3.23,6.802,5.94,-3.114,-5.865,-6.61,6.083,3.593,-5.865,6.902,5.896,3.307,0.0,0.0,11.73
3.235,6.802,5.988,-3.114,-5.865,-6.61,6.083,3.545,-5.865,6.902,6.04,3.307,0.0,0.0,11.73
3.24,6.85,6.035,-3.066,-5.865,-6.706,6.179,3.545,-5.865,6.902,6.04,3.307,0.0,0.0,11.73
3.245,6.898,6.035,-3.018,-5.865,-6.706,6.227,3.64,-5.865,7.046,6.04,3.164,0.0,0.0,5.865
3.25,6.898,6.083,-3.114,-5.865,-6.658,6.131,3.593,-5.865,7.046,6.04,3.307,0.0,0.0,5.865
3.255,6.898,6.083,-3.161,-5.865,-6.754,6.179,3.593,-5.865,7.046,6.04,3.307,0.0,0.0,5.865
3.2600000000000002,6.946,5.988,-3.114,-5.865,-6.754,6.275,3.64,-5.865,7.046,5.896,3.307,0.0,0.0,11.73
3.265,6.993,6.035,-3.114,-5.865,-6.754,6.179,3.64,-5.865,7.046,5.896,3.307,0.0,0.0,5.865
3.27,6.993,6.131,-3.161,-5.865,-6.706,6.083,3.593,-5.865,7.19,6.04,3.451,0.0,0.0,11.73
3.275,6.993,6.035,-3.114,-5.865,-6.706,6.179,3.593,-5.865,7.19,6.04,3.307,0.0,0.0,11.73
3.2800000000000002,6.993,6.035,-3.114,-5.865,-6.754,6.179,3.593,-5.865,7.19,6.04,3.307,0.0,0.0,5.865
3.285,6.993,6.131,-3.114,-5.865,-6.754,6.131,3.593,-5.865,7.19,6.04,3.307,0.0,0.0,5.865
3.29,7.041,6.131,-3.114,-5.865,-6.706,6.131,3.593,-5.865,7.19,6.183,3.307,0.0,0.0,11.73
3.295,7.041,6.083,-3.114,-5.865,-6.706,6.179,3.593,-5.865,7.19,6.04,3.307,0.0,0.0,11.73
3.3000000000000003,6.993,6.083,-3.114,-5.865,-6.754,6.227,3.545,-5.865,7.19,6.04,3.307,0.0,0.0,11.73
3.305,6.993,6.131,-3.066,-5.865,-6.754,6.131,3.545,-5.865,7.046,6.183,3.307,-5.865,0.0,11.73
3.31,6.993,6.131,-3.066,-11.73,-6.706,5.988,3.497,-5.865,7.19,6.183,3.307,-5.865,0.0,11.73
3.315,6.946,5.988,-3.018,-11.73,-6.706,6.131,3.545,-11.73,7.046,6.04,3.307,-5.865,0.0,11.73
3.3200000000000003,6.898,5.892,-3.018,-11.73,-6.754,6.131,3.545,-11.73,7.046,5.752,3.164,-5.865,0.0,11.73
3.325,6.946,5.94,-3.066,-11.73,-6.706,5.94,3.497,-5.865,7.046,5.896,3.164,0.0,0.0,11.73
3.33,6.898,5.94,-3.066,-11.73,-6.754,5.94,3.497,-11.73,7.046,5.896,3.307,-5.865,0.0,11.73
3.335,6.85,5.844,-3.018,-11.73,-6.754,5.988,3.497,-11.73,6.902,5.752,3.307,0.0,0.0,11.73
3.34,6.946,5.892,-3.018,-5.865,-6.706,5.892,3.545,-11.73,7.046,5.752,3.164,0.0,0.0,11.73
3.345,6.898,5.892,-3.066,-11.73,-6.706,5.796,3.545,-11.73,7.046,5.896,3.164,0.0,0.0,11.73
3.35,6.85,5.796,-3.066,-11.73,-6.706,5.844,3.593,-11.73,6.902,5.896,3.307,0.0,0.0,11.73
3.355,6.946,5.748,-3.066,-11.73,-6.706,5.844,3.64,-11.73,6.902,5.752,3.307,-5.865,0.0,11.73
3.36,6.946,5.748,-3.114,-11.73,-6.706,5.748,3.736,-11.73,7.046,5.752,3.307,-5.865,0.0,11.73
3.365,6.898,5.7,-3.209,-11.73,-6.754,5.748,3.784,-11.73,7.046,5.752,3.307,-5.865,0.0,11.73
3.37,6.946,5.604,-3.305,-11.73,-6.706,5.748,3.832,-11.73,7.046,5.608,3.451,-5.865,-5.865,11.73
3.375,6.993,5.604,-3.305,-11.73,-6.658,5.604,3.88,-11.73,7.046,5.464,3.451,-5.865,0.0,11.73
3.38,6.898,5.556,-3.353,-11.73,-6.706,5.413,3.88,-11.73,7.046,5.464,3.451,-5.865,0.0,11.73
3.3850000000000002,6.898,5.413,-3.401,-11.73,-6.61,5.365,3.88,-5.865,7.046,5.464,3.595,0.0,0.0,11.73
3.39,6.898,5.269,-3.353,-11.73,-6.658,5.365,3.928,-5.865,7.046,5.321,3.595,0.0,0.0,11.73
3.395,6.85,5.221,-3.401,-5.865,-6.562,5.317,3.976,-5.865,7.046,5.177,3.595,0.0,0.0,11.73
3.4,6.802,5.221,-3.449,-5.865,-6.658,5.365,3.832,-5.865,7.046,5.177,3.595,0.0,0.0,11.73
3.4050000000000002,6.802,5.173,-3.401,-5.865,-6.658,5.509,3.88,-5.865,6.902,5.177,3.595,0.0,0.0,11.73
3.41,6.898,5.269,-3.353,-5.865,-6.514,5.509,4.024,-5.865,7.046,5.177,3.595,0.0,0.0,5.865
3.415,6.85,5.317,-3.449,-5.865,-6.61,5.317,3.928,-5.865,7.046,5.321,3.595,0.0,0.0,5.865
3.42,6.658,5.173,-3.545,-5.865,-6.514,5.173,3.88,-5.865,6.759,5.177,3.739,0.0,0.0,5.865
3.4250000000000003,6.802,5.125,-3.401,-5.865,-6.467,5.125,3.976,-5.865,6.759,5.033,3.739,0.0,0.0,5.865
3.43,6.754,5.077,-3.401,-5.865,-6.514,5.173,3.976,-5.865,6.902,5.033,3.595,0.0,0.0,5.865
3.435,6.658,5.03,-3.497,-5.865,-6.419,5.03,3.928,-5.865,6.759,5.033,3.595,5.865,0.0,5.865
3.44,6.706,4.982,-3.449,-5.865,-6.419,4.934,3.928,-5.865,6.759,4.889,3.739,0.0,0.0,5.865
3.4450000000000003,6.61,4.934,-3.449,-5.865,-6.419,4.934,3.928,0.0,6.759,4.889,3.595,5.865,0.0,5.865
3.45,6.61,4.886,-3.401,-5.865,-6.371,4.886,3.928,0.0,6.759,4.889,3.595,0.0,0.0,5.865
3.455,6.562,4.838,-3.449,-0.0,-6.371,4.838,3.928,0.0,6.759,4.889,3.595,0.0,0.0,5.865
3.46,6.562,4.79,-3.449,-0.0,-6.371,4.838,3.976,0.0,6.759,4.745,3.595,0.0,0.0,5.865
3.465,6.562,4.742,-3.449,-0.0,-6.371,4.838,3.976,0.0,6.759,4.745,3.595,0.0,0.0,5.865
3.47,6.514,4.694,-3.497,-0.0,-6.371,4.838,3.976,5.865,6.615,4.602,3.739,0.0,0.0,0.0
3.475,6.514,4.646,-3.449,-0.0,-6.323,4.742,4.024,5.865,6.615,4.602,3.739,0.0,0.0,0.0
3.48,6.562,4.598,-3.497,-0.0,-6.323,4.598,4.072,5.865,6.615,4.458,3.739,0.0,0.0,0.0
3.485,6.514,4.503,-3.545,5.865,-6.275,4.551,4.072,5.865,6.615,4.458,3.739,0.0,0.0,0.0
3.49,6.467,4.407,-3.545,5.865,-6.275,4.455,4.167,5.865,6.615,4.314,3.739,5.865,0.0,0.0
3.495,6.467,4.359,-3.593,5.865,-6.227,4.359,4.215,11.73,6.615,4.314,3.739,5.865,0.0,0.0
3.5,6.419,4.263,-3.688,5.865,-6.179,4.263,4.263,11.73,6.615,4.17,3.883,5.865,0.0,-5.865
3.505,6.419,4.119,-3.736,5.865,-6.131,4.167,4.311,11.73,6.615,4.026,4.026,5.865,0.0,-5.865
3.5100000000000002,6.419,4.024,-3.736,11.73,-6.083,4.024,4.455,17.595,6.615,3.883,4.026,5.865,0.0,-5.865
3.515,6.323,3.928,-3.832,11.73,-5.94,3.88,4.503,17.595,6.615,3.883,4.026,5.865,0.0,-11.73
3.52,6.275,3.736,-3.928,11.73,-5.94,3.64,4.503,17.595,6.471,3.739,4.17,5.865,5.865,-11.73
3.525,6.179,3.593,-3.976,17.595,-5.796,3.449,4.598,23.46,6.471,3.451,4.17,5.865,5.865,-17.595
3.5300000000000002,6.131,3.449,-4.024,23.46,-5.7,3.161,4.646,23.46,6.327,3.451,4.17,5.865,5.865,-17.595
3.535,5.988,3.257,-4.072,23.46,-5.509,2.874,4.646,29.326,6.327,3.307,4.314,17.595,5.865,-17.595
3.54,5.892,2.97,-4.072,29.326,-5.365,2.682,4.646,35.191,6.183,3.02,4.314,17.595,5.865,-23.46
3.545,5.748,2.682,-4.072,29.326,-5.413,2.491,4.646,35.191,6.183,2.732,4.314,17.595,11.73,-23.46
3.5500000000000003,5.556,2.587,-4.119,35.191,-5.221,2.347,4.646,41.056,6.04,2.588,4.314,17.595,11.73,-35.191
3.555,5.509,2.299,-4.119,41.056,-5.125,2.06,4.694,46.921,5.752,2.301,4.314,17.595,17.595,-35.191
3.56,5.365,2.06,-4.167,46.921,-5.03,1.724,4.646,52.786,5.608,2.013,4.458,17.595,17.595,-41.056
3.565,5.269,1.772,-4.119,52.786,-4.886,1.341,4.694,58.651,5.464,1.726,4.458,17.595,17.595,-46.921
3.5700000000000003,5.03,1.341,-4.119,52.786,-4.838,0.766,4.742,70.381,5.321,1.294,4.314,17.595,17.595,-52.786
3.575,4.838,0.814,-4.167,64.516,-4.646,0.0,4.838,76.246,5.177,0.719,4.314,23.46,23.46,-58.651
3.58,4.79,0.0,-4.215,70.381,-4.598,-0.766,5.077,87.977,5.033,-0.144,4.458,23.46,23.46,-64.516
3.585,4.598,-0.958,-4.359,76.246,-4.311,-1.772,5.317,99.707,4.889,-1.15,4.602,29.326,23.46,-70.381
3.59,4.455,-2.012,-4.598,87.977,-4.311,-2.539,5.413,117.302,4.745,-2.445,4.745,35.191,23.46,-82.111
3.595,4.215,-2.97,-4.838,99.707,-3.593,-3.114,5.94,134.897,4.602,-3.451,5.033,41.056,23.46,-93.842
3.6,4.072,-3.832,-4.934,117.302,-2.635,-1.82,6.706,152.493,4.314,-4.458,5.177,52.786,29.326,-105.572
3.605,3.018,-3.688,-5.7,134.897,-2.539,1.437,5.844,170.088,3.883,-5.177,5.464,64.516,29.326,-129.032
3.61,2.443,-0.383,-6.035,152.493,-2.73,4.742,5.413,181.818,2.588,-2.732,6.327,76.246,35.191,-146.628
3.615,3.64,3.64,-4.982,170.088,-2.826,7.185,5.509,175.953,3.307,2.445,5.896,76.246,35.191,-164.223
3.62,3.545,7.137,-4.838,181.818,-3.305,9.005,5.604,170.088,4.602,6.902,5.033,70.381,41.056,-175.953
3.625,3.353,8.766,-5.03,175.953,-3.832,9.197,5.413,158.358,3.595,9.347,5.177,52.786,46.921,-175.953
3.63,3.353,9.341,-5.077,164.223,-8.191,22.944,0.048,158.358,2.876,9.778,5.321,35.191,52.786,-164.223
3.6350000000000002,3.832,10.442,-4.79,152.493,-4.167,24.429,-7.712,146.628,3.164,8.916,5.177,23.46,52.786,-158.358
3.64,11.592,24.142,2.874,152.493,-18.825,24.429,-12.885,175.953,7.478,25.884,2.301,23.46,46.921,-152.493
3.645,4.215,24.237,8.047,146.628,-5.413,13.652,-10.394,111.437,6.471,57.808,-5.896,5.865,52.786,-146.628
3.65,10.059,24.237,12.262,175.953,-6.131,3.401,-3.64,-70.381,-5.608,40.408,-10.785,5.865,35.191,-158.358
3.6550000000000002,8.287,8.909,8.909,64.516,-6.514,-0.096,3.018,-134.897,9.922,25.021,-11.216,82.111,-70.381,-111.437
3.66,7.425,4.311,2.299,-99.707,-8.239,-0.24,7.425,-93.842,8.484,11.648,-5.752,93.842,-129.032,70.381
3.665,9.005,0.575,-3.928,-129.032,-7.808,2.587,8.957,-23.46,9.778,2.732,1.15,76.246,-123.167,134.897
3.67,10.538,1.006,-7.377,-70.381,-8.43,6.227,9.245,29.326,11.648,0.431,6.327,58.651,-105.572,105.572
3.6750000000000003,11.544,4.598,-8.383,-5.865,-7.904,8.67,8.814,35.191,14.236,2.876,8.484,46.921,-82.111,41.056
3.68,11.879,8.43,-8.574,29.326,-6.946,9.341,7.425,41.056,15.243,7.478,8.916,41.056,-46.921,-17.595
3.685,10.634,10.778,-7.808,41.056,-6.323,9.867,6.85,41.056,14.236,11.216,8.772,29.326,-11.73,-35.191
3.69,8.622,11.017,-6.706,41.056,-3.545,9.341,5.844,46.921,11.935,12.654,7.478,5.865,29.326,-41.056
3.6950000000000003,6.562,10.778,-6.035,46.921,-5.988,8.095,5.365,46.921,8.053,12.079,6.759,-11.73,58.651,-41.056
3.7,4.838,10.346,-5.125,46.921,-5.221,8.526,5.173,52.786,6.471,11.648,5.752,-29.326,70.381,-41.056
3.705,5.461,9.245,-4.886,52.786,-5.413,8.287,5.221,46.921,4.745,11.216,5.177,-41.056,76.246,-46.921
3.71,4.934,8.383,-4.79,52.786,-5.988,7.568,5.556,35.191,4.889,9.347,5.033,-58.651,76.246,-52.786
3.715,5.077,7.041,-4.934,46.921,-5.844,6.754,5.844,29.326,4.314,7.478,5.033,-70.381,64.516,-46.921
3.72,5.413,5.556,-5.317,35.191,-5.652,5.94,5.748,17.595,4.602,5.177,5.464,-70.381,58.651,-41.056
3.725,5.365,4.503,-5.509,23.46,-5.413,5.317,4.934,17.595,4.889,3.451,5.752,-58.651,46.921,-23.46
3.73,5.269,3.88,-5.173,17.595,-5.03,5.796,4.024,17.595,4.745,2.445,5.752,-41.056,41.056,-17.595
3.735,5.077,4.167,-4.263,17.595,-4.934,6.898,3.305,17.595,4.889,2.588,5.033,-23.46,29.326,-17.595
3.74,4.982,5.413,-3.353,17.595,-4.79,8.143,2.491,17.595,4.889,3.883,4.026,-5.865,23.46,-11.73
3.745,4.838,6.946,-2.635,17.595,-4.982,9.101,1.868,23.46,4.745,5.752,3.164,5.865,17.595,-17.595
3.75,4.982,8.383,-1.82,23.46,-5.125,9.341,1.485,17.595,4.602,7.478,2.445,5.865,11.73,-17.595
3.755,5.03,9.149,-1.341,23.46,-5.221,9.005,1.437,11.73,4.889,8.916,1.726,5.865,5.865,-17.595
3.7600000000000002,5.461,9.245,-1.054,17.595,-5.173,8.478,1.677,5.865,5.177,9.347,1.294,5.865,5.865,-17.595
3.765,5.556,8.814,-1.054,11.73,-5.125,7.951,2.06,-5.865,5.464,9.203,1.15,5.865,0.0,-11.73
3.77,5.604,8.191,-1.293,-0.0,-5.173,7.52,2.587,-11.73,5.608,8.484,1.294,5.865,-5.865,-5.865
3.775,5.652,7.712,-1.772,-5.865,-5.365,7.425,2.97,-11.73,5.752,7.909,1.726,5.865,-5.865,5.865
3.7800000000000002,5.7,7.377,-2.251,-11.73,-5.556,7.377,3.066,-11.73,5.896,7.478,2.157,5.865,-5.865,11.73
3.785,5.844,7.281,-2.539,-11.73,-5.604,7.425,3.161,-11.73,5.896,7.19,2.588,5.865,-5.865,11.73
3.79,5.988,7.281,-2.587,-11.73,-5.748,7.568,3.353,-11.73,6.183,7.19,2.732,5.865,-5.865,11.73
3.795,5.94,7.329,-2.778,-11.73,-5.844,7.568,3.449,-11.73,6.183,7.19,2.876,5.865,-5.865,11.73
3.8000000000000003,5.988,7.329,-2.922,-11.73,-5.892,7.377,3.545,-11.73,6.04,7.19,3.02,5.865,0.0,11.73
3.805,6.083,7.281,-3.018,-11.73,-5.94,7.329,3.784,-11.73,6.04,7.046,3.164,5.865,0.0,11.73
3.81,6.131,7.233,-3.114,-11.73,-5.94,7.281,4.024,-11.73,6.04,7.046,3.307,5.865,-5.865,11.73
3.815,6.275,7.233,-3.353,-11.73,-5.892,7.137,4.167,-11.73,6.327,7.19,3.451,5.865,-5.865,11.73
3.8200000000000003,6.323,7.185,-3.593,-11.73,-5.796,6.993,4.072,-5.865,6.471,7.19,3.739,5.865,-5.865,11.73
3.825,6.179,7.089,-3.688,-11.73,-5.748,6.898,3.88,-5.865,6.327,7.19,3.883,5.865,-5.865,11.73
3.83,6.131,7.089,-3.545,-5.865,-5.652,6.993,3.784,0.0,6.327,7.19,3.883,5.865,-5.865,11.73
3.835,6.131,7.089,-3.353,-5.865,-5.652,7.137,3.736,0.0,6.327,7.19,3.595,5.865,-5.865,5.865
3.84,6.035,7.137,-3.305,-0.0,-5.7,7.233,3.64,5.865,6.327,7.19,3.451,5.865,-5.865,5.865
3.845,6.083,7.137,-3.257,-0.0,-5.604,7.329,3.593,5.865,6.183,7.19,3.451,5.865,-5.865,0.0
3.85,6.083,7.185,-3.161,-0.0,-5.604,7.377,3.545,5.865,6.327,7.19,3.451,5.865,-5.865,0.0
3.855,6.035,7.233,-3.114,5.865,-5.556,7.329,3.545,5.865,6.327,7.19,3.307,5.865,-5.865,0.0
3.86,5.988,7.233,-3.066,-0.0,-5.509,7.281,3.593,0.0,6.183,7.19,3.307,0.0,-5.865,0.0
3.865,5.892,7.185,-3.114,-0.0,-5.461,7.233,3.688,0.0,6.04,7.046,3.307,0.0,-5.865,0.0
3.87,5.844,7.137,-3.161,-0.0,-5.509,7.185,3.784,0.0,6.04,7.046,3.307,0.0,0.0,0.0
3.875,5.796,7.041,-3.209,-0.0,-5.509,7.281,3.976,0.0,5.896,7.046,3.451,5.865,0.0,0.0
3.88,5.844,7.041,-3.401,-0.0,-5.413,7.329,4.024,0.0,5.896,6.902,3.595,5.865,-5.865,0.0
3.8850000000000002,5.796,7.089,-3.545,-0.0,-5.556,7.425,3.976,0.0,5.896,6.902,3.595,5.865,-5.865,0.0
3.89,5.796,7.185,-3.545,5.865,-5.509,7.377,4.072,0.0,5.896,7.046,3.739,5.865,-5.865,0.0
3.895,5.844,7.233,-3.545,-0.0,-5.461,7.185,4.167,0.0,5.896,7.19,3.739,5.865,-5.865,0.0
3.9,5.748,7.137,-3.64,-0.0,-5.461,7.185,4.215,0.0,5.752,7.046,3.883,5.865,-5.865,0.0
3.9050000000000002,5.796,7.041,-3.688,-0.0,-5.461,7.281,4.263,0.0,5.752,6.902,3.883,5.865,-5.865,5.865
3.91,5.844,7.137,-3.784,-0.0,-5.461,7.233,4.263,0.0,5.896,7.046,3.883,5.865,-5.865,0.0
3.915,5.796,7.185,-3.832,-0.0,-5.461,7.233,4.263,0.0,5.896,7.046,4.026,5.865,-5.865,5.865
3.92,5.892,7.137,-3.784,-5.865,-5.461,7.233,4.311,-5.865,6.04,7.19,4.026,5.865,-5.865,5.865
3.9250000000000003,5.94,7.185,-3.784,-5.865,-5.413,7.089,4.311,-5.865,6.04,7.19,4.026,5.865,-5.865,5.865
3.93,5.892,7.137,-3.832,-5.865,-5.461,7.089,4.311,-5.865,6.04,7.19,4.026,5.865,-5.865,5.865
3.935,5.892,7.089,-3.832,-5.865,-5.556,7.137,4.359,0.0,6.04,7.046,4.026,5.865,-5.865,5.865
3.94,5.988,7.089,-3.88,-5.865,-5.509,7.233,4.311,0.0,6.183,7.046,4.026,5.865,-5.865,5.865
3.9450000000000003,6.035,7.089,-3.88,-5.865,-5.604,7.329,4.263,0.0,6.327,7.046,4.026,5.865,0.0,5.865
3.95,5.988,7.137,-3.832,-5.865,-5.604,7.425,4.215,0.0,6.183,7.046,4.026,5.865,0.0,5.865
3.955,6.035,7.233,-3.736,-0.0,-5.604,7.472,4.119,0.0,6.183,7.046,4.026,5.865,0.0,5.865
3.96,5.988,7.329,-3.736,-0.0,-5.652,7.472,4.119,0.0,6.183,7.19,4.026,5.865,0.0,0.0
3.9650000000000003,5.988,7.329,-3.688,-0.0,-5.604,7.377,4.119,0.0,6.183,7.19,3.883,5.865,5.865,5.865
3.97,6.035,7.329,-3.64,-0.0,-5.604,7.329,4.167,0.0,6.183,7.19,3.883,5.865,5.865,5.865
3.975,5.988,7.233,-3.64,-0.0,-5.604,7.281,4.119,0.0,6.183,7.19,3.883,5.865,5.865,0.0
3.98,5.988,7.185,-3.688,-0.0,-5.556,7.281,4.119,0.0,6.183,7.19,3.883,5.865,5.865,0.0
3.985,5.988,7.137,-3.64,-0.0,-5.556,7.281,4.119,0.0,6.183,7.046,3.883,5.865,5.865,0.0
3.99,5.94,7.185,-3.64,-0.0,-5.509,7.329,4.072,0.0,6.04,7.046,3.883,5.865,5.865,0.0
3.995,5.94,7.185,-3.593,-0.0,-5.509,7.377,4.072,0.0,6.04,7.19,3.883,5.865,5.865,0.0
4.0,5.844,7.281,-3.593,-0.0,-5.509,7.377,4.072,5.865,6.04,7.19,3.739,5.865,5.865,0.0
4.005,5.844,7.329,-3.593,-0.0,-5.461,7.329,4.119,0.0,6.04,7.334,3.739,5.865,5.865,0.0
4.01,5.844,7.281,-3.593,-0.0,-5.509,7.329,4.119,0.0,6.04,7.334,3.739,0.0,5.865,0.0
4.015,5.892,7.233,-3.64,-0.0,-5.461,7.281,4.119,0.0,6.04,7.19,3.883,0.0,5.865,0.0
4.0200000000000005,5.844,7.185,-3.64,-0.0,-5.461,7.329,4.072,0.0,6.04,7.046,3.883,0.0,5.865,0.0
4.025,5.844,7.185,-3.64,-0.0,-5.461,7.329,4.024,0.0,6.04,7.046,3.883,0.0,5.865,0.0
4.03,5.844,7.233,-3.593,-0.0,-5.509,7.472,4.024,0.0,6.04,7.19,3.883,0.0,5.865,0.0
4.035,5.844,7.281,-3.545,-0.0,-5.556,7.52,4.024,0.0,5.896,7.19,3.739,0.0,5.865,0.0
4.04,5.892,7.329,-3.497,-0.0,-5.509,7.616,4.072,0.0,6.04,7.19,3.739,0.0,5.865,0.0
4.045,5.892,7.377,-3.593,-0.0,-5.509,7.664,4.072,0.0,6.04,7.334,3.739,0.0,5.865,0.0
4.05,5.892,7.52,-3.64,-0.0,-5.556,7.712,4.024,-5.865,6.04,7.334,3.883,0.0,5.865,5.865
4.055,5.94,7.568,-3.593,-5.865,-5.604,7.856,3.976,-5.865,6.04,7.478,3.739,0.0,5.865,5.865
4.0600000000000005,5.988,7.616,-3.545,-5.865,-5.509,7.808,4.072,-5.865,6.183,7.478,3.739,0.0,5.865,5.865
4.065,5.988,7.664,-3.545,-5.865,-5.556,7.856,4.072,-5.865,6.04,7.478,3.739,0.0,5.865,5.865
4.07,5.892,7.664,-3.64,-5.865,-5.604,7.951,3.928,-5.865,6.04,7.478,3.739,0.0,5.865,5.865
4.075,5.94,7.664,-3.545,-5.865,-5.556,8.047,3.928,-5.865,6.04,7.478,3.883,0.0,5.865,5.865
4.08,6.035,7.76,-3.449,-5.865,-5.556,7.904,4.072,-5.865,6.04,7.478,3.739,5.865,5.865,5.865
4.085,5.988,7.808,-3.497,-5.865,-5.509,7.856,4.024,-5.865,6.183,7.621,3.595,5.865,5.865,5.865
4.09,5.892,7.76,-3.593,-5.865,-5.509,7.808,3.976,-5.865,6.04,7.765,3.739,5.865,5.865,11.73
4.095,5.844,7.712,-3.545,-5.865,-5.509,7.664,3.88,-5.865,5.896,7.621,3.739,5.865,5.865,11.73
4.1,5.844,7.712,-3.497,-11.73,-5.413,7.52,3.784,-5.865,6.04,7.621,3.739,5.865,5.865,11.73
4.105,5.844,7.664,-3.353,-5.865,-5.413,7.568,3.688,-11.73,5.896,7.621,3.595,5.865,5.865,11.73
4.11,5.748,7.664,-3.257,-11.73,-5.461,7.616,3.593,-11.73,5.896,7.765,3.451,5.865,5.865,11.73
4.115,5.748,7.712,-3.161,-11.73,-5.556,7.951,3.497,-5.865,5.896,7.909,3.451,5.865,5.865,11.73
4.12,5.748,7.76,-3.066,-11.73,-5.556,8.047,3.449,-5.865,5.896,7.909,3.307,0.0,5.865,11.73
4.125,5.796,7.856,-3.018,-5.865,-5.556,8.095,3.449,-5.865,5.752,7.765,3.307,0.0,5.865,11.73
4.13,5.796,7.904,-2.97,-5.865,-5.413,7.999,3.401,-5.865,5.752,7.765,3.164,-5.865,0.0,11.73
4.135,5.796,7.951,-3.018,-5.865,-5.413,7.951,3.305,-5.865,5.752,7.765,3.164,-5.865,0.0,11.73
4.14,5.748,7.904,-2.874,-11.73,-5.269,7.808,3.305,-11.73,5.896,7.909,3.164,-5.865,0.0,11.73
4.1450000000000005,5.7,7.856,-2.826,-11.73,-5.269,7.664,3.401,-11.73,5.752,7.909,3.02,-5.865,-5.865,11.73
4.15,5.556,7.76,-2.874,-11.73,-5.173,7.568,3.497,-11.73,5.752,7.765,3.02,-5.865,-5.865,11.73
4.155,5.556,7.664,-2.922,-11.73,-5.03,7.472,3.545,-11.73,5.608,7.765,3.164,-5.865,-5.865,11.73
4.16,5.461,7.568,-3.018,-11.73,-4.934,7.281,3.593,-11.73,5.608,7.621,3.164,-5.865,-5.865,11.73
4.165,5.365,7.425,-3.066,-11.73,-4.838,7.041,3.688,-11.73,5.464,7.478,3.307,-5.865,-5.865,11.73
4.17,5.317,7.233,-3.114,-11.73,-4.742,6.898,3.64,-5.865,5.464,7.334,3.307,-11.73,-5.865,11.73
4.175,5.221,7.089,-3.161,-5.865,-4.694,6.754,3.688,-5.865,5.464,7.19,3.451,-11.73,-5.865,11.73
4.18,5.173,6.946,-3.161,-5.865,-4.598,6.562,3.688,-5.865,5.321,7.046,3.451,-11.73,-5.865,11.73
4.1850000000000005,5.077,6.802,-3.161,-5.865,-4.551,6.419,3.688,0.0,5.321,6.902,3.307,-11.73,-5.865,5.865
4.19,4.982,6.61,-3.209,-0.0,-4.455,6.227,3.64,0.0,5.177,6.759,3.451,-17.595,-5.865,5.865
4.195,4.886,6.467,-3.209,-0.0,-4.407,6.131,3.688,0.0,5.033,6.615,3.451,-17.595,-5.865,5.865
4.2,4.79,6.227,-3.209,-0.0,-4.359,6.131,3.688,5.865,5.033,6.471,3.451,-17.595,-5.865,0.0
4.205,4.694,6.083,-3.209,5.865,-4.359,6.131,3.64,5.865,4.889,6.183,3.451,-23.46,-5.865,0.0
4.21,4.598,6.035,-3.209,5.865,-4.263,6.179,3.593,11.73,4.745,6.04,3.451,-23.46,0.0,0.0
4.215,4.551,5.988,-3.161,5.865,-4.263,6.227,3.497,11.73,4.602,5.896,3.451,-23.46,-5.865,-5.865
4.22,4.455,6.083,-3.066,11.73,-4.215,6.275,3.449,17.595,4.458,5.896,3.307,-23.46,-5.865,-5.865
4.225,4.455,6.227,-3.018,11.73,-4.119,6.323,3.401,17.595,4.458,6.04,3.307,-23.46,-5.865,-11.73
4.23,4.359,6.323,-2.97,11.73,-4.119,6.275,3.353,17.595,4.458,6.327,3.164,-23.46,-5.865,-11.73
4.235,4.311,6.371,-2.874,17.595,-4.072,6.131,3.353,17.595,4.314,6.327,3.164,-23.46,-5.865,-11.73
4.24,4.263,6.275,-2.874,17.595,-3.976,6.131,3.401,17.595,4.17,6.327,3.02,-23.46,-11.73,-17.595
4.245,4.215,6.179,-2.874,17.595,-4.024,6.179,3.401,23.46,4.17,6.183,3.02,-29.326,-11.73,-17.595
4.25,4.167,6.131,-2.922,23.46,-4.024,6.227,3.449,23.46,4.17,6.183,3.164,-29.326,-11.73,-17.595
4.255,4.215,6.179,-2.922,23.46,-3.976,6.227,3.449,23.46,4.17,6.183,3.164,-29.326,-11.73,-17.595
4.26,4.215,6.179,-2.97,23.46,-3.928,6.179,3.449,23.46,4.17,6.183,3.164,-29.326,-17.595,-17.595
4.265,4.167,6.227,-2.97,23.46,-3.928,6.179,3.545,29.326,4.17,6.183,3.164,-29.326,-17.595,-23.46
4.2700000000000005,4.167,6.179,-3.018,29.326,-3.928,6.179,3.593,29.326,4.17,6.183,3.164,-29.326,-17.595,-23.46
4.275,4.167,6.131,-3.114,29.326,-3.928,6.227,3.688,29.326,4.17,6.183,3.307,-29.326,-23.46,-23.46
4.28,4.167,6.131,-3.161,29.326,-3.88,6.275,3.784,29.326,4.17,6.04,3.307,-35.191,-23.46,-23.46
4.285,4.119,6.131,-3.257,29.326,-3.832,6.275,3.88,29.326,4.17,6.04,3.451,-35.191,-23.46,-23.46
4.29,4.072,6.131,-3.353,29.326,-3.784,6.275,3.928,35.191,4.17,6.04,3.451,-35.191,-23.46,-29.326
4.295,4.119,6.131,-3.401,35.191,-3.688,6.275,3.976,35.191,4.17,6.04,3.595,-35.191,-23.46,-35.191
4.3,4.119,6.131,-3.449,35.191,-3.64,6.179,3.976,35.191,4.17,6.04,3.595,-35.191,-29.326,-35.191
4.305,4.072,6.131,-3.497,35.191,-3.545,6.083,4.024,35.191,4.17,6.04,3.739,-29.326,-29.326,-35.191
4.3100000000000005,3.976,6.131,-3.497,35.191,-3.401,6.035,4.024,35.191,4.17,6.04,3.739,-29.326,-29.326,-35.191
4.315,3.928,6.083,-3.545,35.191,-3.353,5.94,3.976,41.056,4.17,6.04,3.739,-35.191,-29.326,-35.191
4.32,3.784,6.083,-3.497,41.056,-3.353,5.94,3.976,41.056,4.026,6.04,3.739,-29.326,-29.326,-35.191
4.325,3.784,6.083,-3.497,41.056,-3.401,6.131,4.024,41.056,3.883,6.183,3.739,-35.191,-23.46,-41.056
4.33,3.736,6.083,-3.497,46.921,-3.401,6.419,4.072,46.921,3.883,6.183,3.739,-35.191,-23.46,-41.056
4.335,3.736,6.275,-3.593,46.921,-3.449,6.754,4.119,46.921,3.883,6.183,3.739,-41.056,-23.46,-41.056
4.34,3.784,6.514,-3.64,46.921,-3.497,7.137,4.167,46.921,3.883,6.327,3.739,-41.056,-23.46,-46.921
4.345,3.832,6.802,-3.688,52.786,-3.497,7.377,4.167,52.786,3.883,6.615,3.883,-41.056,-23.46,-46.921
4.3500000000000005,3.832,7.089,-3.688,52.786,-3.545,7.425,4.119,52.786,3.883,6.902,3.883,-41.056,-23.46,-46.921
4.355,3.832,7.233,-3.688,52.786,-3.593,7.472,4.119,52.786,3.883,7.046,3.883,-41.056,-23.46,-52.786
4.36,3.832,7.281,-3.688,52.786,-3.497,7.52,4.072,52.786,3.883,7.19,3.883,-41.056,-23.46,-52.786
4.365,3.832,7.281,-3.64,52.786,-3.497,7.664,3.976,52.786,3.739,7.19,3.883,-41.056,-23.46,-52.786
4.37,3.736,7.425,-3.593,52.786,-3.449,7.904,3.928,52.786,3.739,7.19,3.883,-41.056,-23.46,-52.786
4.375,3.784,7.712,-3.497,52.786,-3.497,8.143,3.976,52.786,3.739,7.478,3.739,-41.056,-29.326,-52.786
4.38,3.784,7.999,-3.497,52.786,-3.593,8.622,4.072,52.786,3.739,7.909,3.739,-41.056,-29.326,-52.786
4.385,3.832,8.239,-3.545,52.786,-3.688,9.053,4.215,52.786,3.739,8.197,3.739,-41.056,-29.326,-52.786
4.39,3.928,8.622,-3.688,52.786,-3.736,9.388,4.359,52.786,3.739,8.34,3.883,-41.056,-35.191,-52.786
4.3950000000000005,4.072,8.957,-3.832,52.786,-3.784,9.532,4.455,52.786,3.883,8.628,4.026,-41.056,-35.191,-52.786
4.4,4.167,9.197,-3.976,52.786,-3.784,9.532,4.503,46.921,4.026,8.916,4.17,-41.056,-35.191,-52.786
4.405,4.215,9.341,-4.024,52.786,-3.64,9.388,4.646,46.921,4.17,9.059,4.17,-41.056,-41.056,-52.786
4.41,4.215,9.388,-4.119,52.786,-3.64,9.293,4.838,46.921,4.314,9.203,4.314,-41.056,-41.056,-46.921
4.415,4.263,9.388,-4.263,46.921,-3.688,9.245,4.982,46.921,4.314,9.491,4.458,-41.056,-41.056,-46.921
4.42,4.263,9.341,-4.455,46.921,-3.593,9.197,5.03,46.921,4.458,9.491,4.602,-41.056,-41.056,-46.921
4.425,4.359,9.341,-4.551,46.921,-3.593,9.149,5.077,46.921,4.458,9.491,4.745,-41.056,-41.056,-46.921
4.43,4.455,9.341,-4.551,46.921,-3.593,9.101,5.077,46.921,4.745,9.491,4.745,-41.056,-41.056,-46.921
4.4350000000000005,4.455,9.341,-4.598,46.921,-3.688,9.101,5.077,46.921,4.889,9.635,4.889,-41.056,-41.056,-46.921
4.44,4.455,9.293,-4.598,46.921,-3.64,9.197,4.982,46.921,4.889,9.491,4.889,-46.921,-35.191,-46.921
4.445,4.455,9.293,-4.598,46.921,-3.64,9.245,4.838,46.921,4.889,9.491,4.889,-52.786,-35.191,-46.921
4.45,4.359,9.341,-4.503,46.921,-3.64,9.245,4.598,46.921,4.745,9.491,4.889,-52.786,-29.326,-46.921
4.455,4.311,9.388,-4.359,46.921,-3.545,9.245,4.311,46.921,4.602,9.491,4.745,-58.651,-29.326,-46.921
4.46,4.263,9.436,-4.072,46.921,-3.497,9.293,4.119,46.921,4.458,9.635,4.458,-58.651,-23.46,-46.921
4.465,4.119,9.484,-3.784,46.921,-3.497,9.436,3.976,46.921,4.314,9.778,4.17,-64.516,-23.46,-46.921
4.47,4.024,9.532,-3.64,46.921,-3.449,9.58,3.928,41.056,4.17,9.778,3.883,-64.516,-23.46,-46.921
4.4750000000000005,3.928,9.532,-3.545,46.921,-3.449,9.724,3.928,41.056,4.026,9.635,3.883,-70.381,-23.46,-46.921
4.48,3.88,9.58,-3.545,46.921,-3.497,9.867,3.928,41.056,3.883,9.635,3.739,-70.381,-23.46,-41.056
4.485,3.88,9.58,-3.545,41.056,-3.449,9.915,3.88,41.056,3.883,9.491,3.739,-76.246,-23.46,-41.056
4.49,3.88,9.532,-3.545,41.056,-3.401,9.867,3.832,35.191,3.883,9.347,3.739,-76.246,-23.46,-41.056
4.495,3.832,9.532,-3.497,41.056,-3.209,9.676,3.784,35.191,3.739,9.347,3.739,-76.246,-29.326,-41.056
4.5,3.784,9.532,-3.401,41.056,-3.114,9.484,3.736,35.191,3.739,9.347,3.739,-70.381,-29.326,-41.056
4.505,3.688,9.484,-3.353,35.191,-2.97,9.484,3.688,35.191,3.739,9.347,3.595,-70.381,-35.191,-35.191
4.51,3.593,9.388,-3.305,35.191,-2.874,9.436,3.64,35.191,3.739,9.347,3.595,-70.381,-35.191,-35.191
4.515,3.497,9.341,-3.257,35.191,-2.922,9.436,3.64,35.191,3.595,9.347,3.451,-70.381,-35.191,-35.191
4.5200000000000005,3.593,9.341,-3.209,35.191,-2.874,9.58,3.64,35.191,3.595,9.347,3.451,-70.381,-35.191,-35.191
4.525,3.545,9.245,-3.257,35.191,-2.922,9.724,3.545,35.191,3.595,9.203,3.451,-70.381,-35.191,-35.191
4.53,3.545,9.341,-3.209,35.191,-2.922,9.915,3.401,35.191,3.595,9.059,3.451,-70.381,-35.191,-35.191
4.535,3.497,9.484,-3.161,35.191,-2.778,10.059,3.161,35.191,3.595,9.203,3.451,-64.516,-35.191,-35.191
4.54,3.449,9.676,-2.922,35.191,-2.587,10.011,2.97,29.326,3.595,9.347,3.307,-64.516,-35.191,-35.191
4.545,3.305,9.963,-2.682,35.191,-2.539,9.963,2.826,29.326,3.451,9.635,3.02,-64.516,-35.191,-35.191
4.55,3.209,10.059,-2.491,29.326,-2.443,9.963,2.682,29.326,3.307,10.066,2.876,-58.651,-35.191,-29.326
4.555,3.066,10.155,-2.347,29.326,-2.491,10.059,2.635,23.46,3.164,10.354,2.588,-58.651,-35.191,-29.326
4.5600000000000005,3.018,10.203,-2.251,29.326,-2.491,10.203,2.539,23.46,3.164,10.354,2.588,-64.516,-35.191,-23.46
4.565,3.066,10.251,-2.203,29.326,-2.491,10.251,2.443,23.46,3.02,10.354,2.445,-64.516,-35.191,-23.46
4.57,3.066,10.299,-2.108,23.46,-2.395,10.155,2.251,23.46,3.164,10.354,2.445,-70.381,-35.191,-23.46
4.575,3.066,10.299,-1.964,23.46,-2.395,10.059,2.012,17.595,3.02,10.354,2.301,-70.381,-35.191,-23.46
4.58,2.97,10.203,-1.772,23.46,-2.299,10.107,1.82,17.595,3.02,10.354,2.157,-76.246,-35.191,-17.595
4.585,2.922,10.203,-1.533,17.595,-2.299,10.011,1.772,17.595,2.876,10.354,1.869,-76.246,-41.056,-17.595
4.59,2.826,10.155,-1.437,17.595,-2.347,10.251,1.724,11.73,2.876,10.21,1.726,-76.246,-41.056,-17.595
4.595,2.874,10.155,-1.389,17.595,-2.347,10.394,1.677,11.73,2.876,10.21,1.582,-82.111,-41.056,-11.73
4.6000000000000005,2.874,10.251,-1.341,17.595,-2.491,10.73,1.581,11.73,2.876,10.21,1.582,-82.111,-41.056,-11.73
4.605,2.922,10.394,-1.293,11.73,-2.443,10.825,1.485,11.73,2.876,10.354,1.582,-87.977,-41.056,-11.73
4.61,2.97,10.586,-1.198,11.73,-2.395,10.825,1.485,11.73,2.876,10.354,1.438,-87.977,-46.921,-11.73
4.615,2.97,10.73,-1.102,11.73,-2.299,10.873,1.437,11.73,2.876,10.497,1.438,-87.977,-46.921,-11.73
4.62,2.922,10.825,-1.102,11.73,-2.491,10.778,1.341,5.865,2.876,10.785,1.294,-87.977,-46.921,-11.73
4.625,2.826,10.873,-1.054,5.865,-2.156,11.017,1.198,5.865,2.876,10.929,1.294,-87.977,-52.786,-5.865
4.63,2.97,10.778,-0.958,5.865,-2.203,11.209,1.054,5.865,2.732,10.929,1.294,-87.977,-52.786,-5.865
4.635,2.635,11.065,-0.766,5.865,-2.108,11.257,1.006,5.865,2.732,10.929,1.15,-87.977,-52.786,-5.865
4.64,2.682,11.113,-0.719,5.865,-2.06,11.352,0.814,5.865,2.732,11.073,1.007,-87.977,-58.651,-5.865
4.6450000000000005,2.539,11.113,-0.623,5.865,-1.916,11.352,0.719,5.865,2.445,11.073,1.007,-87.977,-58.651,0.0
4.65,2.491,11.257,-0.431,5.865,-1.964,11.544,0.527,5.865,2.301,11.073,0.719,-87.977,-58.651,-5.865
4.655,2.395,11.304,-0.383,5.865,-1.82,11.783,0.383,5.865,2.301,11.216,0.719,-87.977,-64.516,-5.865
4.66,2.443,11.783,-0.096,5.865,-1.772,11.688,0.335,0.0,2.157,11.504,0.575,-87.977,-70.381,-5.865
4.665,2.347,11.831,-0.048,5.865,-1.772,11.64,0.144,0.0,2.301,11.935,0.288,-87.977,-70.381,-5.865
4.67,2.299,11.783,0.0,-0.0,-1.724,11.688,0.048,0.0,2.157,11.935,0.288,-87.977,-76.246,0.0
4.675,2.299,11.831,0.192,-0.0,-1.82,11.783,0.0,-5.865,2.157,11.935,0.144,-87.977,-76.246,0.0
4.68,2.299,11.831,0.287,-0.0,-1.868,11.879,-0.096,-5.865,2.157,12.079,-0.0,-93.842,-76.246,0.0
4.6850000000000005,2.299,11.831,0.287,-0.0,-1.868,11.879,-0.287,-5.865,2.157,11.935,-0.0,-93.842,-82.111,0.0
4.69,2.299,11.831,0.431,-0.0,-1.724,11.736,-0.575,-5.865,2.013,11.792,-0.144,-99.707,-82.111,5.865
4.695,2.299,11.879,0.623,-5.865,-1.533,11.496,-0.814,-5.865,2.013,11.792,-0.288,-99.707,-87.977,5.865
4.7,2.251,11.927,0.958,-5.865,-1.581,11.4,-0.671,-5.865,2.013,12.223,-0.575,-99.707,-93.842,5.865
4.705,2.06,11.688,1.054,-5.865,-1.724,11.304,-0.479,-5.865,2.157,12.079,-0.863,-99.707,-93.842,5.865
4.71,1.964,11.304,0.862,-5.865,-1.581,11.113,-0.527,0.0,1.726,11.648,-0.719,-105.572,-99.707,5.865
4.715,1.964,10.969,0.719,-0.0,-1.82,11.065,-0.671,0.0,1.582,10.929,-0.431,-105.572,-99.707,5.865
4.72,2.251,10.778,0.814,-0.0,-1.629,10.969,-0.527,0.0,1.869,10.641,-0.431,-105.572,-105.572,0.0
4.7250000000000005,2.443,10.73,0.958,-0.0,-1.677,11.017,-0.479,0.0,2.301,10.497,-0.575,-105.572,-105.572,0.0
4.73,2.251,10.682,0.766,-0.0,-1.533,10.921,-0.527,0.0,2.445,10.497,-0.575,-105.572,-105.572,0.0
4.735,2.156,10.586,0.719,-0.0,-1.485,10.969,-0.527,0.0,2.157,10.354,-0.431,-99.707,-111.437,0.0
4.74,2.108,10.778,0.766,-0.0,-1.581,10.825,-0.527,0.0,2.013,10.354,-0.431,-99.707,-111.437,0.0
4.745,2.108,10.73,0.862,-0.0,-1.389,10.778,-0.527,0.0,2.013,10.641,-0.575,-93.842,-111.437,0.0
4.75,2.06,10.586,0.814,-0.0,-1.533,10.682,-0.527,-5.865,2.013,10.497,-0.575,-93.842,-117.302,0.0
4.755,2.012,10.634,0.766,-0.0,-1.533,10.778,-0.479,-5.865,2.013,10.497,-0.575,-87.977,-117.302,0.0
4.76,2.108,10.538,0.719,-0.0,-1.437,10.778,-0.527,-11.73,2.013,10.497,-0.431,-87.977,-123.167,5.865
4.765,2.06,10.538,0.766,-5.865,-1.581,10.778,-0.479,-11.73,2.013,10.354,-0.575,-87.977,-123.167,5.865
4.7700000000000005,2.012,10.49,0.766,-5.865,-1.629,10.778,-0.287,-17.595,1.869,10.21,-0.575,-87.977,-123.167,11.73
4.775,2.012,10.442,0.623,-11.73,-1.581,10.778,-0.048,-17.595,1.869,10.354,-0.575,-87.977,-123.167,11.73
4.78,2.012,10.394,0.479,-11.73,-1.964,10.538,-0.048,-17.595,1.726,10.21,-0.288,-87.977,-129.032,11.73
4.785,2.06,10.251,0.24,-17.595,-1.533,10.203,-0.048,-23.46,1.869,10.066,-0.0,-82.111,-129.032,17.595
4.79,2.108,9.867,0.335,-17.595,-1.677,9.628,-0.335,-17.595,1.726,9.635,0.144,-76.246,-134.897,23.46
4.795,2.108,9.341,0.383,-17.595,-1.437,9.58,-0.335,-17.595,1.869,9.059,-0.0,-70.381,-134.897,23.46
4.8,2.156,9.149,0.671,-17.595,-1.581,9.628,-0.431,-11.73,2.013,8.772,-0.288,-64.516,-140.762,17.595
4.805,2.108,9.149,0.575,-11.73,-1.437,9.724,-0.527,-11.73,2.157,8.628,-0.288,-64.516,-140.762,17.595
4.8100000000000005,2.299,9.436,0.719,-11.73,-1.533,9.58,-0.623,-5.865,2.157,8.916,-0.431,-58.651,-140.762,11.73
4.815,2.203,9.484,0.862,-5.865,-1.485,9.724,-0.91,-5.865,2.588,9.203,-0.575,-52.786,-140.762,11.73
4.82,2.156,9.58,0.958,-5.865,-1.341,9.772,-0.91,0.0,2.301,9.347,-0.575,-52.786,-140.762,5.865
4.825,2.251,9.772,1.245,-0.0,-1.772,10.059,-1.15,0.0,2.301,9.635,-0.863,-52.786,-140.762,5.865
4.83,2.347,9.963,1.245,-0.0,-1.724,10.346,-1.389,5.865,2.588,9.922,-1.007,-46.921,-140.762,0.0
4.835,2.347,9.963,1.485,5.865,-1.724,10.538,-1.533,11.73,2.445,9.922,-1.15,-52.786,-140.762,-5.865
4.84,2.395,10.155,1.724,11.73,-1.772,10.586,-1.724,11.73,2.445,9.922,-1.294,-52.786,-140.762,-5.865
4.845,2.347,10.299,1.868,11.73,-1.724,10.49,-2.06,17.595,2.445,10.066,-1.438,-46.921,-134.897,-11.73
4.8500000000000005,2.347,10.346,2.108,17.595,-1.533,10.634,-2.203,17.595,2.301,10.21,-1.726,-46.921,-134.897,-11.73
4.855,2.251,10.538,2.395,17.595,-1.389,10.634,-2.299,17.595,2.301,10.354,-2.013,-46.921,-140.762,-11.73
4.86,2.06,10.682,2.539,17.595,-1.677,10.634,-2.203,17.595,2.157,10.641,-2.301,-41.056,-140.762,-17.595
4.865,1.964,10.634,2.539,17.595,-2.012,10.203,-2.203,23.46,1.869,10.785,-2.445,-41.056,-140.762,-17.595
4.87,3.161,9.436,2.539,17.595,-0.862,10.73,-2.012,29.326,1.438,10.929,-2.157,-41.056,-140.762,-17.595
4.875,1.964,10.538,2.443,29.326,-0.766,10.682,-1.581,29.326,1.007,11.073,-2.157,-41.056,-140.762,-11.73
4.88,1.054,11.161,2.156,35.191,-1.293,10.442,-1.102,11.73,2.157,10.497,-2.013,-41.056,-140.762,5.865
4.885,1.581,10.586,1.772,23.46,-1.389,10.442,-0.671,5.865,2.013,10.21,-1.726,-41.056,-140.762,11.73
4.89,1.964,10.346,1.245,11.73,-1.437,10.634,-0.623,0.0,1.869,10.21,-1.15,-41.056,-146.628,5.865
4.8950000000000005,2.108,10.49,0.862,5.865,-1.629,10.682,-0.527,0.0,2.301,10.21,-0.719,-41.056,-146.628,11.73
4.9,2.299,10.586,0.862,-0.0,-1.772,10.586,-0.719,-5.865,2.588,10.497,-0.575,-41.056,-152.493,11.73
4.905,2.491,10.49,0.814,-0.0,-1.724,10.251,-0.623,-5.865,2.588,10.497,-0.575,-46.921,-152.493,17.595
4.91,2.443,10.346,0.91,-5.865,-1.868,9.963,-0.766,-5.865,2.732,10.21,-0.575,-46.921,-152.493,17.595
4.915,2.778,10.155,0.91,-5.865,-1.82,9.82,-0.958,-5.865,3.307,10.066,-0.575,-46.921,-152.493,17.595
4.92,2.874,9.963,1.102,-5.865,-1.868,9.388,-1.198,-11.73,3.595,9.778,-0.719,-46.921,-146.628,17.595
4.925,2.874,9.341,1.341,-5.865,-1.82,9.101,-1.389,-11.73,3.595,9.347,-0.863,-46.921,-146.628,11.73
4.93,2.826,8.909,1.533,-5.865,-1.772,9.053,-1.533,-17.595,3.451,8.628,-1.15,-46.921,-140.762,11.73
4.9350000000000005,2.778,8.718,1.772,-11.73,-1.629,8.814,-1.437,-17.595,3.307,8.484,-1.438,-46.921,-140.762,17.595
4.94,2.635,8.67,1.916,-17.595,-2.491,10.251,-1.485,-17.595,3.307,8.197,-1.582,-41.056,-134.897,17.595
4.945,2.539,8.718,1.82,-17.595,-3.449,10.73,-1.245,0.0,3.164,8.34,-1.582,-41.056,-129.032,23.46
4.95,3.784,10.394,1.677,-11.73,-2.06,8.909,-1.15,17.595,3.451,9.347,-1.582,-41.056,-123.167,23.46
4.955,3.928,10.107,1.581,5.865,-2.156,8.574,-0.766,23.46,4.314,10.066,-1.438,-35.191,-123.167,5.865
4.96,2.922,8.526,1.437,23.46,-2.395,8.957,-0.766,11.73,3.883,9.203,-1.294,-35.191,-117.302,-11.73
4.965,2.826,8.335,1.102,17.595,-2.491,9.197,-0.766,5.865,3.02,8.053,-1.007,-29.326,-117.302,-17.595
4.97,3.449,8.67,1.15,11.73,-2.347,9.388,-0.719,5.865,3.595,8.053,-0.863,-29.326,-117.302,-5.865
4.9750000000000005,3.688,9.149,1.15,5.865,-2.06,9.484,-0.671,5.865,4.458,8.628,-1.007,-23.46,-111.437,-5.865
4.98,3.257,9.293,1.102,11.73,-2.06,9.532,-0.766,5.865,4.314,9.203,-0.863,-23.46,-105.572,0.0
4.985,2.874,9.341,1.102,5.865,-2.012,9.436,-0.719,0.0,3.595,9.203,-0.863,-23.46,-99.707,0.0
4.99,2.73,9.293,1.15,-0.0,-2.012,9.532,-0.719,0.0,3.164,9.059,-0.863,-23.46,-99.707,0.0
4.995,2.539,9.341,1.15,-0.0,-2.06,9.772,-0.719,0.0,2.876,9.059,-0.863,-23.46,-93.842,5.865
5.0,2.682,9.436,1.15,-0.0,-2.156,9.915,-0.623,0.0,2.876,9.203,-0.863,-17.595,-93.842,5.865
5.005,2.635,9.628,1.102,-0.0,-2.012,9.82,-0.431,0.0,2.876,9.347,-1.007,-17.595,-93.842,5.865
5.01,2.443,9.724,0.91,-0.0,-2.156,9.58,-0.335,0.0,2.445,9.491,-0.863,-17.595,-93.842,5.865
5.015,2.491,9.532,0.766,-0.0,-2.299,9.484,-0.192,-5.865,2.445,9.491,-0.575,-17.595,-93.842,5.865
5.0200000000000005,2.682,9.341,0.623,-0.0,-2.203,9.293,0.048,-5.865,2.588,9.203,-0.575,-17.595,-99.707,5.865
5.025,2.635,9.293,0.479,-5.865,-2.491,9.197,0.383,-11.73,2.732,9.059,-0.431,-11.73,-99.707,11.73
5.03,2.73,8.957,0.24,-5.865,-2.395,8.909,0.671,-17.595,2.732,8.916,-0.144,-11.73,-105.572,11.73
5.035,2.922,8.909,-0.096,-11.73,-2.395,8.622,0.814,-23.46,2.876,8.772,0.144,-11.73,-105.572,17.595
5.04,2.97,8.526,-0.383,-17.595,-2.778,8.526,0.958,-23.46,3.02,8.628,0.431,-5.865,-105.572,23.46
5.045,3.066,8.43,-0.479,-17.595,-2.491,7.999,1.054,-23.46,3.307,8.628,0.719,-5.865,-111.437,23.46
5.05,3.114,8.287,-0.671,-23.46,-2.587,7.856,0.958,-29.326,3.164,8.484,0.863,-5.865,-111.437,29.326
5.055,3.066,7.664,-0.623,-23.46,-2.635,7.808,0.862,-29.326,3.307,8.197,1.007,-5.865,-111.437,23.46
5.0600000000000005,3.114,7.616,-0.527,-23.46,-2.826,7.856,0.671,-23.46,3.307,7.621,0.863,-5.865,-111.437,23.46
5.065,3.209,7.377,-0.383,-23.46,-2.682,8.191,0.766,-23.46,3.451,7.478,0.719,-5.865,-111.437,23.46
5.07,2.73,6.61,-0.192,-23.46,-2.347,7.041,0.527,-29.326,3.451,7.046,0.575,0.0,-111.437,23.46
5.075,2.635,6.61,-0.335,-11.73,-2.347,7.041,0.527,-29.326,3.164,6.615,0.575,0.0,-105.572,17.595
5.08,3.018,7.089,-0.144,-5.865,-2.73,7.664,0.575,-17.595,3.307,6.615,0.431,0.0,-105.572,11.73
5.085,3.257,7.808,-0.192,-5.865,-2.587,7.664,0.623,-11.73,3.595,6.615,0.431,-5.865,-99.707,11.73
5.09,3.114,7.041,-0.287,-5.865,-2.539,8.095,0.575,-11.73,3.451,6.902,0.431,0.0,-99.707,11.73
5.095,3.114,7.425,-0.24,-5.865,-2.491,8.191,0.575,-11.73,3.595,6.759,0.575,0.0,-99.707,11.73
5.1000000000000005,3.066,7.808,-0.24,-5.865,-2.73,8.909,0.623,-17.595,3.451,7.046,0.431,5.865,-99.707,11.73
5.105,3.209,8.047,-0.192,-11.73,-2.635,8.862,0.623,-17.595,3.451,7.478,0.431,5.865,-99.707,11.73
5.11,3.209,8.335,-0.287,-17.595,-2.635,9.149,0.479,-17.595,3.451,8.053,0.431,5.865,-99.707,17.595
5.115,3.401,9.293,-0.144,-17.595,-2.587,9.197,0.335,-17.595,3.739,8.197,0.575,5.865,-99.707,23.46
5.12,3.401,9.388,-0.096,-23.46,-2.443,9.341,0.287,-17.595,3.739,9.203,0.288,5.865,-99.707,23.46
5.125,3.305,9.532,0.048,-23.46,-2.539,9.388,0.144,-23.46,3.739,9.635,0.144,5.865,-93.842,29.326
5.13,3.545,10.155,0.24,-23.46,-2.491,9.724,0.287,-23.46,3.883,9.778,0.144,5.865,-93.842,29.326
5.135,3.449,10.011,0.287,-23.46,-2.539,10.059,0.335,-29.326,4.026,10.21,-0.0,5.865,-93.842,29.326
5.14,3.161,9.963,0.192,-29.326,-2.299,9.532,0.192,-29.326,4.026,10.497,-0.0,5.865,-93.842,29.326
5.1450000000000005,3.257,9.915,0.192,-29.326,-2.395,9.484,0.335,-29.326,3.883,10.354,0.144,0.0,-87.977,29.326
5.15,3.257,10.299,0.24,-29.326,-2.539,9.58,0.527,-35.191,3.739,10.641,-0.0,-5.865,-82.111,29.326
5.155,3.161,10.346,0.048,-29.326,-2.347,9.053,0.575,-35.191,3.595,10.497,-0.0,-17.595,-82.111,29.326
5.16,3.161,9.772,-0.096,-29.326,-2.299,8.862,0.671,-35.191,3.595,10.354,0.288,-17.595,-76.246,23.46
5.165,3.209,9.388,-0.096,-29.326,-2.443,8.574,0.527,-41.056,3.595,9.635,0.288,-23.46,-76.246,23.46
5.17,3.209,9.005,-0.24,-29.326,-2.299,8.67,0.623,-46.921,3.451,9.347,0.431,-29.326,-76.246,23.46
5.175,3.018,8.335,-0.192,-29.326,-2.299,8.047,0.479,-46.921,3.451,8.772,0.575,-35.191,-70.381,23.46
5.18,2.826,8.43,-0.048,-35.191,-2.06,7.664,0.479,-52.786,3.164,8.197,0.288,-35.191,-70.381,23.46
5.1850000000000005,2.587,8.143,0.048,-35.191,-1.964,7.52,0.335,-52.786,3.02,8.34,0.288,-29.326,-64.516,23.46
5.19,2.491,7.808,0.048,-35.191,-1.772,7.281,0.335,-58.651,2.876,7.621,0.144,-29.326,-64.516,23.46
5.195,2.443,7.089,0.096,-35.191,-1.772,7.041,0.287,-58.651,2.732,7.046,0.144,-35.191,-64.516,23.46
5.2,2.347,6.946,0.096,-35.191,-2.108,6.514,0.048,-58.651,2.588,6.615,-0.0,-35.191,-64.516,29.326
5.205,2.251,6.658,0.192,-35.191,-3.545,4.982,0.335,-58.651,2.445,6.327,0.144,-35.191,-64.516,29.326
5.21,2.012,6.227,0.431,-41.056,-0.527,8.335,-0.144,-58.651,2.013,6.183,-0.0,-29.326,-64.516,29.326
5.215,3.161,5.413,0.527,-41.056,-1.389,7.185,0.096,-46.921,1.294,6.183,-0.719,-29.326,-64.516,35.191
5.22,1.964,6.61,0.431,-35.191,-2.539,6.371,0.0,-41.056,3.164,4.745,-0.575,-35.191,-82.111,35.191
5.2250000000000005,2.203,6.467,0.335,-29.326,-2.203,6.514,-0.24,-35.191,2.732,5.608,-0.288,-29.326,-82.111,29.326
5.23,2.347,6.514,0.527,-23.46,-2.108,7.185,-0.048,-23.46,2.157,6.327,-0.144,-17.595,-76.246,29.326
5.235,2.587,6.275,0.623,-17.595,-2.443,7.616,-0.192,-17.595,2.588,6.04,-0.575,-11.73,-76.246,23.46
5.24,2.635,6.754,0.575,-11.73,-2.635,7.856,-0.048,-11.73,2.876,5.752,-0.288,-11.73,-76.246,17.595
5.245,2.635,7.185,0.431,-11.73,-2.922,8.143,0.144,-5.865,2.732,6.615,-0.431,-11.73,-76.246,11.73
5.25,2.73,7.568,0.479,-5.865,-3.257,8.478,0.431,0.0,2.876,6.902,-0.288,-5.865,-76.246,5.865
5.255,2.922,7.999,0.192,-0.0,-3.401,9.293,0.671,0.0,3.02,7.046,-0.144,0.0,-82.111,0.0
5.26,3.066,8.622,-0.096,-0.0,-3.497,9.676,0.91,5.865,3.02,7.621,0.144,0.0,-82.111,0.0
5.265,3.161,8.862,-0.383,5.865,-3.497,9.963,0.91,11.73,2.876,7.909,0.431,5.865,-87.977,0.0
5.2700000000000005,3.209,9.484,-0.527,5.865,-3.593,10.49,1.006,11.73,2.876,8.772,0.575,5.865,-93.842,-5.865
5.275,3.353,10.299,-0.623,11.73,-3.545,10.73,1.006,17.595,3.02,9.922,0.863,5.865,-99.707,-5.865
5.28,3.449,10.49,-0.671,11.73,-3.688,10.778,1.054,11.73,3.164,10.066,0.863,5.865,-105.572,-5.865
5.285,3.64,10.825,-0.766,11.73,-3.736,10.921,1.198,5.865,3.307,10.497,0.863,5.865,-105.572,-5.865
5.29,3.736,10.969,-0.719,5.865,-3.688,11.017,1.102,0.0,3.595,10.641,1.15,5.865,-111.437,-5.865
5.295,3.88,11.209,-0.814,-0.0,-3.688,10.921,1.293,-11.73,3.739,11.073,1.007,5.865,-117.302,0.0
5.3,3.88,11.065,-0.862,-5.865,-3.449,10.682,1.198,-17.595,3.883,11.36,1.007,5.865,-123.167,5.865
5.305,3.64,11.304,-0.862,-17.595,-3.449,10.586,1.15,-35.191,3.739,11.504,1.294,0.0,-129.032,17.595
5.3100000000000005,3.64,10.825,-0.862,-29.326,-3.114,10.442,0.671,-46.921,3.451,11.36,1.294,0.0,-134.897,23.46
5.315,3.497,10.73,-0.766,-41.056,-2.97,10.155,0.575,-58.651,3.307,11.504,1.15,-5.865,-140.762,35.191
5.32,3.257,11.113,-0.383,-52.786,-3.018,10.299,0.575,-70.381,3.307,11.36,0.719,-5.865,-140.762,46.921
5.325,3.209,11.161,-0.192,-64.516,-2.778,10.107,0.527,-82.111,3.307,11.792,0.575,-11.73,-146.628,58.651
5.33,3.114,11.065,-0.287,-70.381,-2.826,10.059,0.479,-82.111,3.02,11.504,0.575,-11.73,-152.493,70.381
5.335,3.161,10.825,-0.048,-76.246,-2.97,9.484,0.671,-87.977,3.02,11.648,0.288,-17.595,-158.358,76.246
5.34,3.449,10.299,-0.144,-82.111,-3.209,9.005,0.766,-87.977,3.451,11.216,0.288,-29.326,-158.358,76.246
5.345,3.593,9.484,-0.287,-82.111,-3.545,8.67,1.102,-82.111,3.307,10.929,0.144,-41.056,-158.358,76.246
5.3500000000000005,3.593,9.149,-0.527,-82.111,-3.736,8.095,1.15,-82.111,3.883,10.641,0.863,-46.921,-158.358,70.381
5.355,4.119,8.574,-0.814,-82.111,-3.688,8.383,1.15,-76.246,4.17,10.066,1.15,-52.786,-152.493,64.516
5.36,4.263,8.335,-0.814,-76.246,-3.593,7.568,0.862,-76.246,4.026,9.778,1.007,-52.786,-152.493,58.651
5.365,4.024,8.43,-0.91,-76.246,-3.114,7.712,0.575,-76.246,4.17,9.059,1.15,-58.651,-152.493,46.921
5.37,3.736,8.766,-0.335,-70.381,-3.257,6.898,0.766,-87.977,4.026,8.34,1.007,-58.651,-152.493,35.191
5.375,3.545,8.43,-0.383,-76.246,-3.018,5.556,1.102,-99.707,3.883,7.909,0.575,-58.651,-152.493,35.191
5.38,3.114,7.52,-0.479,-82.111,-3.018,7.425,1.485,-117.302,3.164,7.909,0.719,-52.786,-146.628,35.191
5.385,3.209,7.664,-0.958,-87.977,-3.88,8.718,1.006,-117.302,2.732,7.621,1.726,-46.921,-152.493,41.056
5.39,3.161,8.383,-1.054,-87.977,-3.114,8.814,0.287,-105.572,2.732,7.765,2.013,-52.786,-158.358,46.921
5.3950000000000005,3.497,7.856,-0.623,-82.111,-2.874,8.191,-0.671,-93.842,2.588,7.19,1.582,-58.651,-175.953,52.786
5.4,3.305,8.191,0.335,-70.381,-2.635,8.239,-0.671,-87.977,2.588,7.478,1.15,-64.516,-199.413,52.786
5.405,2.97,8.43,0.719,-64.516,-2.778,8.239,-0.814,-82.111,2.876,7.765,0.144,-64.516,-217.009,46.921
5.41,2.635,7.951,1.15,-52.786,-2.635,7.999,-0.814,-76.246,3.02,7.909,-1.15,-52.786,-222.874,41.056
5.415,2.682,7.664,1.102,-46.921,-2.395,7.808,-0.479,-76.246,3.164,7.909,-0.719,-41.056,-217.009,29.326
5.42,2.682,7.472,0.862,-46.921,-2.443,7.664,-0.671,-76.246,3.02,7.621,-0.719,-41.056,-205.279,29.326
5.425,2.299,7.425,0.766,-46.921,-2.491,7.76,-0.623,-76.246,2.445,7.478,-0.719,-41.056,-199.413,23.46
5.43,2.251,7.568,0.814,-41.056,-2.539,7.904,-0.575,-82.111,2.157,7.334,-0.863,-41.056,-193.548,23.46
5.4350000000000005,2.251,7.568,0.766,-46.921,-2.73,8.239,-0.479,-87.977,1.869,7.046,-0.719,-41.056,-193.548,23.46
5.44,2.251,7.616,0.719,-52.786,-3.018,8.622,-0.335,-93.842,1.869,7.621,-0.719,-41.056,-193.548,23.46
5.445,2.395,7.999,0.671,-64.516,-3.305,8.766,0.144,-105.572,1.726,8.053,-0.144,-41.056,-187.683,35.191
5.45,2.826,8.143,0.383,-76.246,-3.593,8.909,0.144,-111.437,1.869,7.909,0.144,-35.191,-193.548,41.056
5.455,2.922,7.951,0.048,-82.111,-3.449,8.909,0.048,-117.302,2.013,7.621,-0.0,-29.326,-193.548,46.921
5.46,3.161,7.808,0.0,-93.842,-3.545,9.149,0.048,-129.032,1.869,7.19,0.863,-29.326,-193.548,58.651
5.465,3.066,7.951,0.048,-105.572,-3.401,9.58,-0.192,-134.897,2.588,7.19,0.719,-17.595,-193.548,58.651
5.47,3.209,8.478,0.144,-111.437,-3.401,10.299,-0.479,-146.628,2.588,7.478,0.144,-17.595,-199.413,64.516
5.4750000000000005,3.114,9.197,0.431,-123.167,-2.682,11.592,-0.527,-164.223,2.732,8.053,-0.0,-11.73,-205.279,70.381
5.48,2.778,9.676,0.048,-134.897,-3.688,9.772,-0.24,-187.683,3.307,9.059,-0.431,-5.865,-205.279,82.111
5.485,2.539,9.101,0.479,-158.358,-3.449,9.772,-0.096,-211.144,4.745,9.778,-1.438,5.865,-199.413,87.977
5.49,3.018,9.197,0.719,-175.953,-3.545,9.82,0.383,-228.739,4.458,9.922,-1.294,5.865,-187.683,87.977
5.495,3.209,9.341,0.431,-199.413,-3.545,10.011,0.048,-240.469,3.02,10.21,-0.288,5.865,-187.683,93.842
5.5,3.066,9.82,0.144,-222.874,-4.024,10.251,0.335,-246.334,2.013,10.354,0.288,5.865,-187.683,99.707
5.505,3.401,10.586,0.0,-234.604,-3.976,10.107,-0.192,-246.334,0.719,10.641,0.288,5.865,-193.548,111.437
5.51,3.784,10.825,0.192,-246.334,-3.88,9.963,0.383,-246.334,-0.719,9.778,-0.0,-5.865,-211.144,129.032
5.515,3.784,10.73,-0.287,-246.334,-4.167,9.867,0.862,-240.469,-1.294,8.772,2.588,-11.73,-222.874,158.358
5.5200000000000005,4.119,10.634,-0.766,-246.334,-4.119,9.436,1.054,-234.604,-0.719,9.203,2.588,-17.595,-252.199,187.683
5.525,3.88,9.915,-0.91,-240.469,-4.598,9.436,1.772,-228.739,-0.144,9.635,2.876,-29.326,-281.525,217.009
5.53,4.072,9.676,-1.15,-234.604,-5.317,8.862,1.964,-222.874,2.013,9.347,4.026,-29.326,-328.446,240.469
5.535,5.125,9.436,-2.587,-228.739,-5.461,8.239,2.443,-211.144,3.164,8.34,3.739,-11.73,-351.906,246.334
5.54,5.7,8.862,-2.203,-222.874,-5.365,7.712,2.874,-193.548,3.739,8.628,4.314,5.865,-387.097,252.199
5.545,5.413,7.808,-2.922,-211.144,-4.598,7.281,1.533,-181.818,5.033,8.34,3.02,17.595,-410.557,246.334
5.55,5.556,6.993,-2.826,-193.548,-5.796,6.323,3.209,-175.953,6.471,7.765,3.164,17.595,-428.152,234.604
5.555,6.083,5.892,-1.341,-193.548,-5.604,6.179,4.215,-175.953,8.772,9.059,-7.046,17.595,-416.422,228.739
5.5600000000000005,5.556,5.988,-3.497,-187.683,-5.988,6.179,4.215,-175.953,5.752,5.608,4.314,5.865,-304.985,222.874
5.565,5.604,5.413,-3.688,-187.683,-6.275,6.179,4.79,-164.223,5.464,4.745,3.883,-23.46,-269.795,217.009
5.57,6.083,5.077,-4.407,-175.953,-6.946,5.844,5.796,-158.358,6.04,4.602,4.314,-17.595,-269.795,199.413
5.575,6.658,4.359,-5.269,-170.088,-7.425,5.03,5.652,-146.628,6.759,4.458,7.621,-17.595,-275.66,193.548
5.58,6.946,4.263,-4.598,-152.493,-7.712,4.982,6.227,-129.032,9.491,3.739,9.203,-41.056,-269.795,170.088
5.585,8.43,4.598,-5.796,-123.167,-8.526,4.982,6.131,-111.437,11.073,3.883,8.484,-64.516,-240.469,129.032
5.59,9.341,5.077,-5.796,-99.707,-8.574,5.892,7.281,-93.842,10.497,5.321,7.19,-111.437,-228.739,76.246
5.595,9.484,6.419,-5.7,-76.246,-8.478,6.371,5.892,-76.246,8.916,6.902,4.889,-134.897,-228.739,35.191
5.6000000000000005,9.82,6.946,-5.173,-52.786,-7.904,7.185,6.131,-52.786,7.478,7.334,-3.595,-123.167,-217.009,11.73
5.605,9.245,8.191,-5.509,-23.46,-7.712,7.999,5.94,-29.326,8.34,8.628,5.321,-70.381,-205.279,0.0
5.61,8.239,9.245,-5.604,-5.865,-7.472,8.478,5.7,-23.46,8.053,10.354,6.04,-46.921,-199.413,-5.865
5.615,7.904,9.628,-5.413,5.865,-7.185,8.383,5.413,-23.46,6.902,11.36,6.04,-35.191,-193.548,-11.73
5.62,7.281,9.867,-5.509,5.865,-6.562,8.239,5.365,-29.326,5.896,11.073,5.464,-35.191,-187.683,-5.865
5.625,6.61,9.436,-5.125,-0.0,-5.652,7.664,5.125,-35.191,5.464,10.641,5.033,-41.056,-187.683,0.0
5.63,6.419,9.293,-4.886,-5.865,-6.61,7.185,4.694,-41.056,4.889,10.641,4.458,-35.191,-187.683,5.865
5.635,6.323,9.005,-4.79,-17.595,-6.179,6.754,4.742,-41.056,4.889,10.066,4.458,-23.46,-187.683,11.73
5.64,6.419,8.718,-4.551,-23.46,-5.892,6.706,4.263,-41.056,5.321,10.066,4.602,-5.865,-187.683,23.46
5.6450000000000005,6.562,8.478,-4.359,-29.326,-6.035,6.514,3.832,-35.191,5.321,9.491,4.602,0.0,-187.683,29.326
5.65,6.419,7.52,-4.024,-29.326,-5.748,6.227,3.449,-23.46,5.464,9.347,4.026,5.865,-193.548,29.326
5.655,6.323,7.137,-3.64,-23.46,-5.077,6.227,3.305,-11.73,5.608,8.484,3.307,5.865,-199.413,29.326
5.66,6.227,6.85,-3.305,-11.73,-4.598,6.419,3.305,-5.865,5.464,8.197,3.307,5.865,-211.144,23.46
5.665,5.7,6.898,-3.161,-0.0,-4.646,6.371,2.73,-5.865,5.464,8.34,3.451,5.865,-211.144,17.595
5.67,5.269,6.514,-2.922,11.73,-4.551,6.371,2.443,-5.865,4.889,8.197,3.164,23.46,-211.144,11.73
5.675,4.982,6.419,-2.443,11.73,-4.263,6.514,2.156,-5.865,4.17,7.765,3.451,17.595,-211.144,5.865
5.68,4.934,6.371,-2.06,11.73,-4.119,7.041,1.916,-5.865,3.883,7.621,3.739,0.0,-217.009,0.0
5.6850000000000005,4.551,6.802,-1.772,11.73,-4.072,7.52,1.581,-5.865,4.026,7.765,3.883,-23.46,-228.739,0.0
5.69,4.167,7.137,-1.581,11.73,-3.976,7.904,1.245,-5.865,4.17,7.621,3.739,-46.921,-240.469,0.0
5.695,4.072,7.616,-1.245,17.595,-3.928,8.383,1.15,-5.865,3.883,7.909,3.451,-64.516,-246.334,0.0
5.7,3.832,8.143,-1.006,17.595,-4.072,8.862,1.15,-5.865,3.451,7.765,3.02,-70.381,-246.334,5.865
5.705,3.64,8.574,-0.862,17.595,-4.024,9.005,1.293,0.0,2.732,8.053,2.588,-70.381,-240.469,5.865
5.71,3.593,8.718,-0.958,17.595,-3.928,9.149,1.533,0.0,2.588,8.197,2.445,-76.246,-228.739,11.73
5.715,3.64,9.005,-1.102,17.595,-4.359,9.676,1.629,0.0,2.445,8.34,2.445,-76.246,-217.009,17.595
5.72,3.688,9.101,-1.389,17.595,-4.311,10.203,1.82,5.865,2.445,8.772,2.876,-70.381,-211.144,17.595
5.7250000000000005,3.688,9.628,-1.389,17.595,-4.551,10.682,1.916,5.865,2.445,9.203,3.307,-64.516,-199.413,17.595
5.73,3.736,10.155,-1.677,23.46,-4.742,11.017,2.108,11.73,1.869,9.491,2.732,-52.786,-181.818,17.595
5.735,3.784,10.634,-1.629,23.46,-4.694,11.113,2.06,11.73,2.157,9.922,3.164,-41.056,-170.088,17.595
5.74,4.167,10.969,-1.964,29.326,-4.646,11.209,2.203,17.595,2.445,10.785,4.602,-41.056,-164.223,11.73
5.745,3.832,11.161,-1.772,29.326,-4.742,11.352,2.203,23.46,2.157,10.929,4.17,-58.651,-152.493,11.73
5.75,3.88,11.352,-1.916,35.191,-4.646,11.544,2.347,23.46,2.157,10.641,4.026,-82.111,-140.762,5.865
5.755,4.167,11.304,-2.012,41.056,-4.742,11.209,2.299,29.326,1.726,10.929,3.595,-99.707,-140.762,5.865
5.76,4.311,11.017,-2.012,46.921,-4.551,10.778,2.251,29.326,1.869,10.785,3.739,-117.302,-152.493,5.865
5.765,4.263,10.921,-1.916,46.921,-4.167,10.49,2.395,35.191,1.869,10.354,3.739,-134.897,-170.088,5.865
5.7700000000000005,3.976,10.107,-2.06,46.921,-4.215,10.394,2.299,29.326,1.007,8.772,1.007,-140.762,-187.683,5.865
5.775,3.736,9.82,-2.156,46.921,-4.024,10.011,2.012,29.326,1.294,7.765,-0.288,-117.302,-234.604,0.0
5.78,3.64,9.341,-1.964,46.921,-3.688,9.82,2.108,23.46,2.013,7.334,0.719,-64.516,-281.525,-11.73
5.785,3.64,9.436,-1.677,46.921,-3.353,9.772,2.299,17.595,2.301,7.765,2.876,-17.595,-293.255,-17.595
5.79,3.401,9.484,-1.772,41.056,-3.688,9.772,2.156,5.865,3.02,8.916,4.17,17.595,-269.795,-17.595
5.795,3.257,9.676,-2.108,29.326,-3.832,10.155,2.203,0.0,2.876,9.635,4.602,52.786,-228.739,-11.73
5.8,3.497,10.155,-1.82,23.46,-3.736,10.155,2.539,-5.865,2.301,9.635,4.602,82.111,-193.548,-11.73
5.805,3.64,10.346,-1.82,17.595,-3.88,10.155,2.539,-11.73,1.726,9.778,4.745,105.572,-164.223,-11.73
5.8100000000000005,3.832,10.49,-2.108,11.73,-4.072,10.011,2.587,-11.73,1.438,9.922,4.745,117.302,-146.628,-11.73
5.815,4.167,10.825,-2.06,11.73,-3.88,10.49,2.682,-11.73,1.438,10.21,5.177,129.032,-140.762,-11.73
5.82,4.263,10.634,-2.156,17.595,-3.736,10.394,2.587,-17.595,1.294,10.21,5.033,129.032,-134.897,-11.73
5.825,4.072,10.778,-2.299,17.595,-4.311,9.532,2.491,-17.595,0.719,10.066,4.314,134.897,-134.897,-5.865
5.83,3.88,10.586,-2.203,17.595,-4.407,9.005,2.491,-11.73,1.294,10.066,5.033,140.762,-146.628,-5.865
5.835,3.736,10.394,-2.108,17.595,-4.072,8.814,2.682,-5.865,1.582,10.21,5.177,134.897,-152.493,0.0
5.84,3.593,9.963,-2.156,17.595,-3.88,8.574,2.778,-5.865,1.15,9.778,5.321,134.897,-152.493,5.865
5.845,3.64,9.436,-2.347,17.595,-3.832,8.239,2.73,0.0,1.007,9.059,5.177,129.032,-146.628,11.73
5.8500000000000005,3.784,9.005,-2.347,11.73,-3.593,7.999,2.539,0.0,1.294,8.916,5.177,123.167,-152.493,17.595
5.855,3.401,8.957,-2.203,17.595,-3.449,7.999,2.347,5.865,1.438,8.628,5.464,123.167,-152.493,23.46
5.86,3.209,8.574,-2.156,17.595,-3.497,7.951,1.964,5.865,1.582,8.628,5.608,123.167,-158.358,23.46
5.865,3.209,8.43,-1.772,17.595,-3.401,7.76,1.677,5.865,2.013,8.197,5.896,117.302,-164.223,23.46
5.87,3.257,8.191,-1.485,17.595,-3.545,7.568,1.629,0.0,1.438,7.478,5.752,99.707,-164.223,17.595
5.875,3.305,7.999,-1.245,17.595,-3.449,7.472,1.629,0.0,1.726,7.046,5.752,82.111,-164.223,11.73
5.88,3.114,7.856,-1.15,17.595,-3.401,7.472,1.629,0.0,1.726,7.19,5.321,70.381,-158.358,11.73
5.885,3.305,7.808,-1.198,11.73,-3.401,7.472,1.677,0.0,2.013,7.19,5.033,64.516,-152.493,5.865
5.89,3.161,7.808,-1.15,5.865,-3.449,7.425,1.629,0.0,2.301,6.902,4.745,64.516,-152.493,0.0
5.8950000000000005,3.161,7.951,-1.245,5.865,-3.688,7.472,1.677,0.0,2.013,6.471,4.314,64.516,-146.628,-5.865
5.9,3.353,7.616,-1.102,-0.0,-3.736,7.52,1.916,-5.865,1.294,6.183,4.458,70.381,-146.628,-5.865
5.905,3.353,7.568,-1.293,-0.0,-3.593,7.76,1.916,0.0,1.294,5.896,4.745,76.246,-140.762,-11.73
5.91,3.449,7.999,-1.581,-0.0,-3.64,7.568,1.868,5.865,0.863,5.896,4.889,82.111,-140.762,-5.865
5.915,3.257,7.52,-1.341,5.865,-3.736,8.047,2.156,5.865,0.575,5.896,4.602,82.111,-134.897,-5.865
5.92,3.257,7.808,-1.533,5.865,-3.832,8.383,2.299,5.865,0.431,6.615,5.177,76.246,-129.032,0.0
5.925,3.593,8.478,-1.772,5.865,-3.928,8.718,2.443,5.865,0.575,6.471,5.464,82.111,-134.897,0.0
5.93,3.784,9.005,-1.916,5.865,-3.976,8.909,2.491,11.73,0.719,6.615,5.464,76.246,-140.762,0.0
5.9350000000000005,3.88,9.245,-1.916,5.865,-3.688,9.005,2.778,17.595,0.575,6.615,5.464,76.246,-140.762,0.0
5.94,3.832,9.724,-2.06,11.73,-3.593,9.58,3.066,17.595,0.431,7.046,5.464,76.246,-140.762,0.0
5.945,3.688,10.251,-2.395,23.46,-3.545,9.963,3.114,23.46,-0.144,7.478,5.608,82.111,-134.897,5.865
5.95,3.401,10.586,-2.587,29.326,-3.305,10.346,3.209,29.326,-0.575,7.621,5.896,76.246,-129.032,5.865
5.955,3.353,11.017,-2.635,41.056,-3.353,10.586,3.209,35.191,-1.15,7.765,6.327,76.246,-123.167,5.865
5.96,3.257,11.4,-2.778,46.921,-3.64,10.873,3.353,41.056,-1.726,8.053,6.615,70.381,-111.437,5.865
5.965,3.401,11.783,-2.874,58.651,-3.832,11.352,3.497,46.921,-1.438,8.197,6.902,64.516,-99.707,11.73
5.97,3.497,12.023,-3.066,64.516,-4.024,11.113,3.305,46.921,-1.582,8.34,7.046,64.516,-82.111,5.865
5.9750000000000005,3.449,11.927,-3.018,76.246,-4.215,10.921,3.209,52.786,-1.726,8.197,7.334,64.516,-64.516,5.865
5.98,3.88,12.215,-2.922,82.111,-4.551,10.778,2.922,64.516,-1.438,7.909,7.478,64.516,-52.786,11.73
5.985,3.976,12.215,-2.826,93.842,-4.311,10.442,2.922,76.246,-1.15,7.909,7.478,70.381,-46.921,11.73
5.99,3.928,11.64,-2.539,111.437,-4.072,9.82,2.682,87.977,-1.007,7.909,7.909,64.516,-35.191,17.595
5.995,3.545,10.873,-2.395,123.167,-3.449,9.053,2.73,99.707,-0.863,8.053,8.197,52.786,-23.46,23.46
6.0,3.066,9.963,-2.395,134.897,-3.114,8.526,2.922,111.437,-0.863,8.772,8.34,46.921,-17.595,29.326
6.005,2.778,9.293,-2.395,140.762,-2.73,8.574,2.682,117.302,-0.719,8.916,8.484,41.056,-11.73,23.46
6.01,2.347,9.149,-2.539,146.628,-2.395,8.526,2.203,117.302,-0.719,9.059,9.347,41.056,-17.595,23.46
6.015000000000001,1.868,9.341,-2.251,152.493,-2.539,8.574,1.724,123.167,-0.863,8.197,9.491,35.191,-17.595,17.595
6.0200000000000005,1.677,9.341,-1.82,152.493,-2.347,8.287,1.533,123.167,-0.719,8.053,9.635,23.46,-23.46,0.0
6.025,1.772,9.005,-1.389,146.628,-2.299,8.047,2.108,117.302,-1.15,7.478,9.347,17.595,-35.191,-11.73
6.03,1.82,9.149,-1.245,146.628,-2.012,8.766,1.485,117.302,-2.013,7.621,9.203,5.865,-46.921,-17.595
6.035,1.293,9.676,-1.724,140.762,-2.012,9.149,1.245,117.302,-2.445,7.909,9.635,17.595,-52.786,-11.73
6.04,1.198,8.67,-1.198,134.897,-1.868,9.053,1.054,117.302,-3.02,10.21,9.922,5.865,-46.921,-17.595
6.045,0.958,8.43,-0.958,129.032,-1.677,9.341,1.006,111.437,-3.451,10.066,9.203,5.865,-41.056,-41.056
6.05,1.245,9.58,-0.862,123.167,-1.485,10.49,0.719,105.572,-3.307,8.34,8.916,23.46,-35.191,-58.651
6.055,0.958,10.825,-0.671,111.437,-1.054,11.161,0.479,99.707,-2.876,7.478,9.203,41.056,-23.46,-70.381
6.0600000000000005,0.575,11.352,-0.527,111.437,-1.102,11.879,0.671,99.707,-2.301,7.046,8.916,58.651,-5.865,-70.381
6.065,-0.096,11.783,-0.335,105.572,-0.766,11.831,0.958,93.842,-2.301,8.197,8.197,70.381,5.865,-64.516
6.07,-0.575,12.071,-0.623,99.707,-0.766,12.023,1.054,93.842,-2.157,8.197,7.621,87.977,17.595,-58.651
6.075,-0.719,12.646,-0.862,99.707,-0.91,12.119,1.293,93.842,-3.307,7.765,6.615,99.707,35.191,-58.651
6.08,-0.766,12.933,-0.958,105.572,-0.766,11.831,1.437,99.707,-3.307,9.059,6.471,123.167,64.516,-58.651
6.085,-1.006,12.55,-1.293,117.302,-0.479,11.736,1.198,111.437,-3.164,9.059,6.04,146.628,87.977,-64.516
6.09,-1.006,12.502,-1.293,129.032,-0.144,11.975,0.958,123.167,-2.876,8.916,6.327,170.088,111.437,-70.381
6.095,-0.91,12.262,-1.102,140.762,0.0,11.544,0.671,129.032,-2.732,8.197,5.896,181.818,117.302,-82.111
6.1000000000000005,-0.958,11.592,-0.958,152.493,0.096,11.017,0.479,129.032,-1.438,7.909,5.896,170.088,105.572,-99.707
6.105,-1.102,11.065,-0.671,158.358,0.287,11.209,0.144,134.897,-0.863,8.484,6.615,164.223,99.707,-93.842
6.11,-1.006,10.873,-0.287,164.223,0.048,11.113,0.096,129.032,-1.15,8.484,6.183,164.223,111.437,-70.381
6.115,-1.15,10.299,-0.144,164.223,0.096,10.921,-0.096,134.897,-0.431,8.197,7.334,152.493,117.302,-58.651
6.12,-1.437,9.867,0.0,164.223,0.335,10.825,-0.287,134.897,-0.575,8.916,7.765,134.897,123.167,-41.056
6.125,-1.629,9.772,0.24,164.223,0.623,10.49,-0.431,134.897,-0.431,7.909,7.909,111.437,123.167,-17.595
6.13,-1.82,9.58,0.431,164.223,0.671,10.299,-0.575,134.897,-0.719,8.484,8.053,76.246,117.302,0.0
6.135,-2.443,9.676,0.671,164.223,1.198,10.251,-0.719,129.032,-0.575,7.621,7.909,41.056,105.572,23.46
6.140000000000001,-2.73,9.58,0.766,164.223,1.15,10.73,-1.245,123.167,0.431,7.621,7.19,17.595,93.842,46.921
6.1450000000000005,-3.353,9.484,1.102,158.358,1.533,10.49,-1.677,111.437,1.294,6.327,6.902,0.0,93.842,76.246
6.15,-3.736,9.388,1.533,152.493,1.964,10.299,-2.203,105.572,0.719,6.327,6.759,-17.595,105.572,93.842
6.155,-3.784,9.388,2.108,146.628,1.82,10.299,-2.73,93.842,0.863,5.896,7.334,-46.921,129.032,105.572
6.16,-3.593,9.58,2.682,134.897,1.724,10.203,-3.209,87.977,0.431,5.464,6.04,-70.381,170.088,117.302
6.165,-3.449,9.341,3.018,129.032,1.772,10.442,-3.401,87.977,-0.288,4.602,5.033,-111.437,217.009,129.032
6.17,-3.545,9.053,3.449,129.032,1.724,10.442,-3.593,87.977,-0.431,3.307,5.464,-152.493,275.66,152.493
6.175,-3.114,8.862,3.784,129.032,1.389,10.394,-3.784,87.977,-0.144,3.02,7.478,-181.818,334.311,164.223
6.18,-3.305,8.67,3.832,129.032,1.341,10.203,-3.784,87.977,0.863,5.464,14.236,-175.953,387.097,181.818
6.1850000000000005,-3.066,8.383,4.167,123.167,1.341,10.107,-3.88,87.977,2.157,10.354,21.282,-117.302,369.501,175.953
