time_aligned_sec,L_Acc_X_aligned,L_Acc_Y_aligned,L_Acc_Z_aligned,L_Gyro_Z_aligned,R_Acc_X_aligned,R_Acc_Y_aligned,R_Acc_Z_aligned,R_Gyro_Z_aligned,T_Acc_X_aligned,T_Acc_Y_aligned,T_Acc_Z_aligned,T_Gyro_X_aligned,T_Gyro_Y_aligned,T_Gyro_Z_aligned
0.0,1.15,10.49,0.958,-82.111,0.287,10.825,-0.527,-99.707,-0.719,11.073,0.863,-29.326,-46.921,-105.572
0.005,1.389,10.49,0.958,-93.842,0.192,10.873,-0.623,-105.572,-0.719,11.073,0.863,-23.46,-46.921,-105.572
0.01,1.629,10.49,1.054,-99.707,0.048,10.778,-0.575,-105.572,-0.863,11.073,0.863,-23.46,-41.056,-105.572
0.015,1.629,10.538,1.102,-99.707,0.096,10.682,-0.527,-99.707,-1.007,11.073,0.719,-17.595,-35.191,-105.572
0.02,1.533,10.49,1.054,-93.842,0.144,10.538,-0.575,-93.842,-0.719,10.929,0.863,-11.73,-35.191,-93.842
0.025,1.389,10.394,1.054,-87.977,0.24,10.394,-0.575,-87.977,-0.575,10.641,0.863,-11.73,-29.326,-87.977
0.03,1.293,10.251,1.054,-82.111,0.383,10.251,-0.527,-76.246,-0.431,10.497,0.719,-5.865,-29.326,-76.246
0.035,1.245,10.203,1.054,-82.111,0.575,10.107,-0.527,-64.516,-0.144,10.354,0.719,0.0,-23.46,-64.516
0.04,1.198,10.059,1.006,-70.381,0.766,9.963,-0.527,-52.786,0.0,10.066,0.719,0.0,-23.46,-52.786
0.045,1.102,9.963,1.006,-64.516,0.91,9.867,-0.479,-46.921,0.288,9.922,0.719,0.0,-23.46,-41.056
0.05,1.006,9.82,1.006,-52.786,1.006,9.724,-0.479,-41.056,0.431,9.635,0.719,0.0,-23.46,-35.191
0.055,0.958,9.724,0.958,-46.921,1.054,9.58,-0.431,-35.191,0.575,9.491,0.719,0.0,-23.46,-35.191
0.06,0.862,9.628,0.958,-41.056,1.054,9.436,-0.383,-29.326,0.719,9.347,0.575,0.0,-29.326,-29.326
0.065,0.814,9.484,0.91,-35.191,1.102,9.388,-0.287,-29.326,0.719,9.203,0.575,0.0,-29.326,-29.326
0.07,0.814,9.436,0.862,-35.191,1.102,9.341,-0.24,-29.326,0.719,9.203,0.431,0.0,-29.326,-29.326
0.075,0.814,9.388,0.766,-29.326,1.102,9.293,-0.144,-29.326,0.719,9.203,0.288,0.0,-35.191,-35.191
0.08,0.862,9.388,0.671,-35.191,1.102,9.245,-0.048,-35.191,0.575,9.059,0.288,-5.865,-41.056,-35.191
0.085,0.814,9.293,0.623,-35.191,1.054,9.245,0.048,-41.056,0.575,9.059,0.144,-5.865,-41.056,-41.056
0.09,0.814,9.245,0.527,-35.191,1.054,9.245,0.096,-46.921,0.575,8.916,0.144,-11.73,-46.921,-46.921
0.095,0.814,9.197,0.479,-46.921,1.006,9.101,0.144,-52.786,0.575,8.916,-0.0,-11.73,-46.921,-52.786
0.1,0.862,9.245,0.431,-46.921,0.91,9.053,0.192,-58.651,0.431,8.772,-0.0,-17.595,-52.786,-64.516
0.105,0.91,9.293,0.383,-52.786,0.862,9.149,0.287,-64.516,0.144,8.916,-0.144,-17.595,-52.786,-64.516
0.11,0.958,9.197,0.287,-58.651,0.766,9.101,0.383,-64.516,0.0,8.916,-0.144,-23.46,-52.786,-70.381
0.115,1.006,9.053,0.192,-64.516,0.623,9.053,0.383,-70.381,-0.144,9.059,-0.288,-23.46,-52.786,-70.381
0.12,1.102,9.005,0.144,-64.516,0.431,9.101,0.383,-70.381,-0.288,9.059,-0.288,-23.46,-52.786,-76.246
0.125,1.198,9.053,0.144,-64.516,0.287,9.005,0.431,-70.381,-0.575,9.059,-0.288,-23.46,-52.786,-76.246
0.13,1.389,8.957,0.096,-64.516,0.048,9.005,0.431,-70.381,-0.863,9.203,-0.288,-23.46,-52.786,-70.381
0.135,1.533,8.909,0.096,-64.516,-0.192,8.957,0.431,-64.516,-1.007,9.203,-0.288,-17.595,-52.786,-70.381
0.14,1.724,8.814,0.096,-58.651,-0.287,8.909,0.431,-64.516,-1.294,9.203,-0.288,-11.73,-52.786,-64.516
0.145,1.868,8.718,0.048,-58.651,-0.623,8.909,0.479,-58.651,-1.438,9.203,-0.288,-5.865,-46.921,-58.651
0.15,2.012,8.622,0.096,-52.786,-0.862,8.862,0.527,-52.786,-1.582,9.203,-0.431,-5.865,-46.921,-52.786
0.155,2.156,8.526,0.0,-41.056,-0.958,8.766,0.575,-41.056,-1.726,9.203,-0.431,0.0,-46.921,-41.056
0.16,2.299,8.478,0.0,-35.191,-1.054,8.718,0.575,-29.326,-1.726,9.059,-0.431,0.0,-46.921,-35.191
0.165,2.443,8.43,-0.096,-29.326,-1.102,8.574,0.623,-17.595,-1.869,8.916,-0.431,11.73,-46.921,-17.595
0.17,2.539,8.335,-0.096,-23.46,-1.198,8.43,0.623,-11.73,-1.869,8.772,-0.575,17.595,-46.921,-11.73
0.17500000000000002,2.539,8.143,-0.192,-11.73,-1.198,8.239,0.671,-5.865,-1.869,8.484,-0.575,23.46,-46.921,-5.865
0.18,2.587,7.999,-0.144,-5.865,-1.15,8.095,0.671,0.0,-1.869,8.197,-0.575,29.326,-46.921,0.0
0.185,2.635,7.904,-0.144,-0.0,-1.198,7.951,0.719,0.0,-1.869,8.053,-0.575,29.326,-46.921,0.0
0.19,2.635,7.76,-0.144,-0.0,-1.293,7.808,0.719,0.0,-2.013,7.909,-0.575,35.191,-46.921,0.0
0.195,2.635,7.616,-0.192,-0.0,-1.293,7.664,0.671,0.0,-1.869,7.765,-0.575,35.191,-46.921,0.0
0.2,2.73,7.425,-0.192,-0.0,-1.341,7.425,0.671,0.0,-2.013,7.478,-0.575,35.191,-46.921,0.0
0.20500000000000002,2.874,7.329,-0.144,-0.0,-1.437,7.377,0.719,-5.865,-2.013,7.19,-0.575,35.191,-46.921,-5.865
0.21,2.922,7.329,-0.144,-0.0,-1.533,7.185,0.719,-5.865,-2.013,7.046,-0.575,29.326,-52.786,-5.865
0.215,3.066,7.233,-0.144,-0.0,-1.724,7.185,0.766,-5.865,-2.301,6.902,-0.575,29.326,-52.786,-5.865
0.22,3.209,7.185,-0.192,-5.865,-1.964,6.993,0.814,-5.865,-2.588,6.759,-0.719,29.326,-58.651,-5.865
0.225,3.353,7.137,-0.24,-5.865,-2.203,7.137,0.862,-5.865,-2.876,6.759,-0.719,23.46,-58.651,-11.73
0.23,3.545,7.281,-0.287,-5.865,-2.443,7.185,0.958,-11.73,-3.307,6.902,-0.863,23.46,-58.651,-11.73
0.23500000000000001,3.736,7.281,-0.335,-5.865,-2.778,7.329,1.054,-11.73,-3.739,7.19,-0.863,17.595,-58.651,-11.73
0.24,4.024,7.425,-0.383,-5.865,-3.018,7.616,1.15,-5.865,-4.026,7.478,-1.007,17.595,-58.651,-5.865
0.245,4.263,7.664,-0.527,-5.865,-3.305,7.856,1.198,0.0,-4.458,7.909,-1.15,17.595,-52.786,-5.865
0.25,4.551,7.76,-0.623,-0.0,-3.545,7.999,1.245,0.0,-4.602,8.053,-1.007,11.73,-52.786,0.0
0.255,4.79,7.951,-0.671,5.865,-3.784,8.191,1.102,5.865,-4.889,8.34,-0.863,11.73,-46.921,5.865
0.26,4.886,8.047,-0.671,11.73,-4.024,8.287,0.958,11.73,-5.177,8.484,-0.863,17.595,-41.056,11.73
0.265,4.982,8.095,-0.527,23.46,-4.167,8.335,1.006,23.46,-5.321,8.484,-0.863,17.595,-41.056,17.595
0.27,5.173,8.191,-0.479,29.326,-4.263,8.526,1.102,29.326,-5.464,8.484,-1.007,17.595,-35.191,29.326
0.275,5.269,8.287,-0.479,35.191,-4.359,8.478,1.102,35.191,-5.464,8.628,-0.863,23.46,-29.326,35.191
0.28,5.221,8.383,-0.575,41.056,-4.311,8.478,0.91,46.921,-5.177,8.628,-0.719,23.46,-23.46,46.921
0.28500000000000003,5.03,8.383,-0.575,46.921,-4.024,8.383,0.766,52.786,-4.889,8.484,-0.575,23.46,-23.46,52.786
0.29,5.03,8.383,-0.383,52.786,-3.688,8.383,0.623,58.651,-4.602,8.34,-0.431,23.46,-17.595,58.651
0.295,5.03,8.239,-0.192,58.651,-3.401,8.335,0.623,64.516,-4.17,8.197,-0.431,29.326,-17.595,58.651
0.3,4.838,8.239,-0.096,58.651,-3.114,8.335,0.527,58.651,-3.739,8.197,-0.288,23.46,-11.73,58.651
0.305,4.598,8.191,-0.048,58.651,-2.922,8.335,0.431,58.651,-3.451,8.053,-0.288,23.46,-17.595,58.651
0.31,4.407,8.239,-0.048,58.651,-2.778,8.239,0.24,52.786,-3.307,8.053,-0.0,23.46,-17.595,52.786
0.315,4.263,8.239,0.096,52.786,-2.73,8.191,0.096,46.921,-3.307,8.053,0.144,23.46,-17.595,46.921
0.32,4.215,8.191,0.287,46.921,-2.682,8.191,0.048,41.056,-3.307,8.197,0.144,23.46,-23.46,41.056
0.325,4.215,8.191,0.431,41.056,-2.635,8.287,0.144,35.191,-3.307,8.197,-0.0,23.46,-23.46,35.191
0.33,4.215,8.335,0.431,35.191,-2.635,8.478,0.24,35.191,-3.307,8.484,-0.144,23.46,-23.46,29.326
0.335,4.167,8.478,0.335,29.326,-2.73,8.67,0.335,29.326,-3.451,8.772,-0.144,23.46,-23.46,29.326
0.34,4.167,8.622,0.24,29.326,-2.826,8.909,0.383,29.326,-3.595,9.059,-0.288,23.46,-29.326,23.46
0.34500000000000003,4.215,8.67,0.144,29.326,-2.922,9.005,0.383,29.326,-3.739,9.059,-0.144,23.46,-29.326,23.46
0.35000000000000003,4.263,8.814,0.096,29.326,-3.066,9.101,0.335,29.326,-3.883,9.203,-0.144,23.46,-29.326,29.326
0.355,4.359,8.862,0.096,29.326,-3.161,9.197,0.335,29.326,-4.026,9.203,-0.144,23.46,-29.326,29.326
0.36,4.455,8.957,0.144,29.326,-3.209,9.293,0.287,35.191,-4.17,9.347,-0.144,23.46,-23.46,29.326
0.365,4.503,9.053,0.192,29.326,-3.305,9.341,0.431,35.191,-4.314,9.347,-0.288,23.46,-23.46,35.191
0.37,4.551,9.245,0.192,35.191,-3.257,9.341,0.575,35.191,-3.883,8.916,-0.575,29.326,-23.46,35.191
0.375,4.694,9.341,0.0,35.191,-2.395,8.718,0.719,41.056,-2.876,8.772,-0.575,29.326,-29.326,35.191
0.38,4.742,9.532,-0.096,41.056,-2.922,9.436,0.623,35.191,-3.739,8.772,-0.288,23.46,-29.326,23.46
0.385,4.646,9.101,-0.096,46.921,-3.305,9.58,0.431,29.326,-3.739,8.916,-0.288,23.46,-23.46,23.46
0.39,4.215,9.484,-0.24,41.056,-3.018,9.676,0.431,29.326,-3.883,9.491,-0.288,17.595,-23.46,17.595
0.395,4.167,9.724,0.048,41.056,-2.73,9.293,0.335,29.326,-3.595,9.347,-0.0,17.595,-23.46,17.595
0.4,4.167,9.484,0.24,35.191,-2.587,9.772,0.287,23.46,-4.026,9.491,-0.0,11.73,-23.46,5.865
0.405,4.263,9.484,0.192,29.326,-2.395,9.724,0.383,11.73,-3.451,9.922,-0.144,11.73,-11.73,-5.865
0.41000000000000003,4.263,9.963,0.24,23.46,-2.73,10.203,0.335,0.0,-3.164,9.922,-0.0,11.73,-11.73,-17.595
0.41500000000000004,4.119,9.867,0.24,23.46,-2.539,10.299,0.144,-5.865,-3.02,10.354,0.144,11.73,-11.73,-17.595
0.42,3.784,10.107,0.096,11.73,-2.299,10.394,0.096,0.0,-3.02,10.354,-0.575,17.595,-17.595,-17.595
0.425,3.545,10.107,0.431,11.73,-1.677,9.341,0.623,0.0,-1.582,10.21,0.144,11.73,-23.46,-17.595
0.43,3.161,10.155,0.192,5.865,-1.15,10.634,-0.144,-5.865,-2.301,9.635,0.431,17.595,-23.46,-17.595
0.435,3.018,9.724,-0.144,-0.0,-1.437,10.155,-0.431,-11.73,-2.301,10.066,0.863,17.595,-23.46,-23.46
0.44,2.73,9.82,0.766,-5.865,-1.389,9.915,-0.814,-11.73,-2.588,10.641,1.15,17.595,-23.46,-17.595
0.445,2.587,10.059,1.102,-5.865,-1.341,9.867,-0.719,-5.865,-2.013,10.354,0.863,17.595,-17.595,-11.73
0.45,2.73,9.963,1.293,-11.73,-1.245,10.299,-0.575,-5.865,-1.869,10.21,0.863,17.595,-23.46,-11.73
0.455,2.778,9.867,1.15,-5.865,-1.15,10.203,-0.575,-5.865,-1.726,9.778,0.863,23.46,-23.46,-11.73
0.46,2.778,9.772,1.054,-5.865,-1.198,9.724,-0.623,0.0,-1.869,10.066,0.863,29.326,-23.46,-11.73
0.465,2.73,9.772,1.054,-0.0,-1.102,9.436,-0.671,0.0,-1.869,9.922,0.863,35.191,-29.326,-5.865
0.47000000000000003,2.635,9.532,1.102,-0.0,-1.245,9.484,-0.671,5.865,-2.013,9.635,0.863,35.191,-29.326,0.0
0.47500000000000003,2.587,9.293,1.102,5.865,-1.485,9.388,-0.671,5.865,-2.013,9.203,0.863,29.326,-35.191,5.865
0.48,2.778,9.388,1.102,5.865,-1.198,9.005,-0.719,11.73,-1.869,8.772,1.15,35.191,-35.191,5.865
0.485,3.114,9.341,1.15,5.865,-0.91,8.814,-1.054,11.73,-2.013,8.628,1.294,35.191,-35.191,5.865
0.49,2.299,8.862,1.389,11.73,-1.054,8.718,-1.15,5.865,-1.869,8.484,1.438,29.326,-35.191,5.865
0.495,2.156,8.862,1.581,5.865,-1.102,8.67,-1.198,5.865,-1.726,8.484,1.294,29.326,-29.326,0.0
0.5,2.443,8.814,1.629,-0.0,-0.814,8.526,-1.15,-5.865,-1.582,8.197,1.438,35.191,-29.326,-5.865
0.505,2.395,8.574,1.724,-0.0,-0.479,8.191,-1.293,-11.73,-1.438,7.909,1.582,29.326,-29.326,-5.865
0.51,2.06,8.478,1.629,-5.865,-0.479,8.239,-1.15,-11.73,-1.438,8.053,1.438,23.46,-29.326,-11.73
0.515,1.82,8.383,1.772,-11.73,-0.527,8.095,-1.437,-17.595,-1.438,7.909,1.726,23.46,-29.326,-17.595
0.52,1.677,8.239,1.772,-17.595,-0.527,8.047,-1.724,-23.46,-1.726,7.909,2.013,23.46,-29.326,-23.46
0.525,1.677,7.999,2.156,-23.46,-0.671,8.047,-1.868,-29.326,-1.726,8.197,2.013,17.595,-23.46,-23.46
0.53,1.916,8.143,2.395,-23.46,-0.383,8.43,-1.389,-29.326,-1.438,8.197,1.726,17.595,-23.46,-23.46
0.535,1.916,8.287,2.347,-29.326,-0.431,8.43,-1.533,-23.46,-1.15,8.197,1.726,17.595,-23.46,-23.46
0.54,1.677,8.383,1.82,-29.326,-0.096,8.383,-1.485,-17.595,-1.007,8.484,1.726,17.595,-17.595,-17.595
0.545,1.581,8.43,2.012,-23.46,-0.287,8.622,-1.581,-11.73,-1.438,9.059,1.726,17.595,-23.46,-11.73
0.55,1.581,8.383,1.916,-17.595,-0.335,8.814,-1.677,-5.865,-1.15,8.916,2.013,17.595,-17.595,-11.73
0.555,1.677,8.718,2.156,-17.595,-0.623,9.053,-1.724,0.0,-1.869,9.491,1.869,17.595,-17.595,-5.865
0.56,1.82,8.814,2.156,-11.73,-0.766,9.341,-1.868,0.0,-1.869,9.347,2.157,17.595,-11.73,5.865
0.5650000000000001,1.82,9.101,2.299,-5.865,-1.006,9.676,-1.772,11.73,-1.726,9.347,2.013,17.595,-17.595,23.46
0.5700000000000001,2.203,9.484,2.299,-0.0,-0.958,9.628,-1.82,23.46,-1.726,9.778,2.157,17.595,-17.595,29.326
0.5750000000000001,2.587,9.532,2.251,11.73,-1.006,9.915,-1.916,29.326,-1.582,9.922,2.157,17.595,-17.595,35.191
0.58,2.587,9.58,2.347,17.595,-0.671,9.915,-2.012,35.191,-1.438,9.778,2.445,17.595,-23.46,41.056
0.585,2.491,9.915,2.395,29.326,-0.527,9.724,-2.203,41.056,-1.294,9.635,2.588,23.46,-23.46,41.056
0.59,2.203,9.867,2.539,29.326,-0.431,9.724,-2.203,41.056,-1.007,9.491,2.445,23.46,-23.46,35.191
0.595,2.156,9.628,2.682,35.191,-0.383,9.484,-2.108,35.191,-1.007,9.347,2.301,23.46,-23.46,29.326
0.6,2.012,9.388,2.635,35.191,-0.623,9.532,-1.964,23.46,-1.438,9.491,2.157,23.46,-29.326,23.46
0.605,2.012,9.341,2.491,29.326,-1.198,9.58,-1.916,17.595,-1.869,9.491,2.157,23.46,-29.326,11.73
0.61,2.539,9.436,2.443,23.46,-1.437,9.628,-1.772,11.73,-2.445,9.347,2.013,17.595,-35.191,11.73
0.615,2.874,9.58,2.395,17.595,-1.868,9.532,-1.724,11.73,-2.876,9.491,2.013,17.595,-35.191,11.73
0.62,2.97,9.628,2.251,11.73,-2.156,9.436,-1.629,11.73,-3.307,9.635,1.869,23.46,-35.191,11.73
0.625,3.066,9.58,2.156,11.73,-2.443,9.484,-1.724,11.73,-3.595,9.491,2.013,23.46,-35.191,11.73
0.63,3.066,9.58,2.108,11.73,-2.587,9.436,-1.82,17.595,-3.739,9.203,2.013,29.326,-29.326,17.595
0.635,3.545,9.58,2.203,11.73,-2.826,9.197,-1.916,17.595,-4.026,9.059,2.013,23.46,-29.326,17.595
0.64,3.688,9.436,2.299,17.595,-3.209,9.053,-1.916,23.46,-4.602,8.772,2.157,23.46,-23.46,23.46
0.645,4.072,9.101,2.443,17.595,-3.401,9.005,-2.06,23.46,-4.602,8.628,2.157,23.46,-17.595,23.46
0.65,4.359,9.197,2.443,17.595,-3.305,8.766,-2.203,23.46,-4.314,8.34,2.301,23.46,-17.595,23.46
0.655,4.407,9.005,2.682,17.595,-3.018,8.335,-2.156,23.46,-3.739,7.909,2.157,17.595,-17.595,23.46
0.66,4.359,8.766,2.73,23.46,-2.682,8.143,-2.012,23.46,-3.451,7.909,2.157,11.73,-17.595,11.73
0.665,4.119,8.383,2.587,17.595,-2.539,8.047,-1.964,17.595,-3.451,7.765,2.013,11.73,-17.595,11.73
0.67,3.928,8.239,2.395,17.595,-2.539,7.999,-2.108,11.73,-3.451,7.765,2.157,0.0,-17.595,5.865
0.675,3.88,8.143,2.443,11.73,-2.347,7.951,-2.203,5.865,-3.451,7.765,2.157,0.0,-17.595,0.0
0.68,3.736,8.095,2.635,5.865,-2.06,7.904,-2.251,5.865,-3.02,7.765,2.157,0.0,-17.595,-5.865
0.685,3.353,7.951,2.73,5.865,-2.012,7.856,-2.06,0.0,-3.02,7.909,2.301,-5.865,-11.73,-11.73
0.6900000000000001,3.161,7.808,2.682,-0.0,-1.868,7.904,-2.156,0.0,-2.876,7.909,2.301,-5.865,-11.73,-11.73
0.6950000000000001,3.018,7.808,2.587,-0.0,-1.677,7.999,-2.203,0.0,-2.588,8.197,2.157,-5.865,-5.865,-11.73
0.7000000000000001,2.97,7.856,2.682,-5.865,-1.533,8.143,-1.868,0.0,-2.157,7.765,5.464,0.0,-5.865,-5.865
0.705,2.826,7.856,2.635,-0.0,-1.245,8.335,-2.156,0.0,-2.013,8.628,2.301,17.595,-5.865,-5.865
0.71,2.73,8.43,0.096,-0.0,-0.91,8.622,-2.156,5.865,-1.726,8.772,2.301,17.595,0.0,0.0
0.715,2.539,8.43,2.635,-0.0,-0.719,8.718,-2.347,5.865,-1.438,8.916,2.445,23.46,-5.865,0.0
0.72,2.299,8.622,2.682,-0.0,-0.719,8.814,-2.395,11.73,-1.438,9.059,2.445,23.46,-5.865,0.0
0.725,2.299,8.574,2.778,5.865,-0.575,9.053,-2.395,11.73,-1.582,9.347,2.445,23.46,-5.865,0.0
0.73,2.251,8.67,2.778,11.73,-0.719,9.293,-2.395,11.73,-1.869,9.491,2.445,29.326,-5.865,0.0
0.735,2.156,8.957,2.826,11.73,-1.006,9.388,-2.347,17.595,-2.013,9.491,2.301,35.191,-11.73,0.0
0.74,2.299,9.245,2.826,11.73,-1.198,9.388,-2.251,17.595,-2.301,9.347,2.301,35.191,-11.73,5.865
0.745,2.443,9.293,2.778,17.595,-1.293,9.293,-2.156,23.46,-2.157,9.203,2.301,35.191,-11.73,5.865
0.75,2.539,9.293,2.682,17.595,-1.15,9.149,-2.156,23.46,-2.301,9.203,2.301,35.191,-11.73,5.865
0.755,2.587,9.149,2.587,23.46,-1.485,9.197,-2.299,23.46,-2.301,9.059,2.445,35.191,-11.73,5.865
0.76,2.539,9.197,2.635,23.46,-1.437,9.149,-2.395,23.46,-2.445,9.059,2.445,35.191,-5.865,5.865
0.765,2.73,9.245,2.778,23.46,-1.389,9.053,-2.395,23.46,-2.445,8.916,2.588,35.191,-5.865,11.73
0.77,2.73,9.101,2.826,23.46,-0.719,9.053,-3.114,23.46,-1.869,8.34,3.164,35.191,-5.865,5.865
0.775,2.73,9.101,2.826,23.46,-1.054,8.862,-2.443,17.595,-1.869,8.772,2.301,29.326,-11.73,0.0
0.78,2.395,9.341,3.593,17.595,-1.102,9.005,-2.156,23.46,-1.726,8.916,2.157,29.326,-17.595,0.0
0.785,2.587,9.053,2.778,17.595,-0.862,8.909,-2.012,17.595,-1.869,8.772,2.013,29.326,-17.595,0.0
0.79,2.491,8.957,2.539,17.595,-0.719,8.814,-1.964,17.595,-1.869,8.772,2.013,29.326,-17.595,5.865
0.795,2.299,8.862,2.443,17.595,-0.91,8.814,-1.964,17.595,-1.582,8.772,2.157,29.326,-17.595,0.0
0.8,2.156,8.766,2.443,17.595,-0.623,8.766,-2.299,23.46,-1.869,8.772,2.445,29.326,-23.46,0.0
0.805,2.251,8.718,2.539,17.595,-0.623,8.718,-2.395,17.595,-1.869,8.628,2.445,29.326,-23.46,0.0
0.81,2.156,8.766,2.778,17.595,-0.192,8.718,-2.06,17.595,-2.301,9.059,2.445,29.326,-23.46,-11.73
0.8150000000000001,2.108,8.67,2.874,17.595,-1.054,8.622,-2.395,23.46,-1.726,8.628,2.588,29.326,-29.326,-23.46
0.8200000000000001,1.772,8.67,2.682,17.595,-0.623,8.67,-2.156,23.46,-1.582,8.916,2.301,35.191,-29.326,-23.46
0.8250000000000001,2.251,8.43,2.826,17.595,-0.91,8.67,-2.491,23.46,-1.869,8.628,2.588,35.191,-29.326,-23.46
0.8300000000000001,2.203,8.67,2.922,23.46,-0.766,8.574,-2.203,17.595,-1.869,8.484,2.301,35.191,-29.326,-17.595
0.835,2.156,8.526,2.826,17.595,-0.814,8.622,-2.251,23.46,-1.869,8.34,2.301,35.191,-23.46,-17.595
0.84,2.156,8.622,2.587,17.595,-0.719,8.478,-2.299,17.595,-2.157,8.34,2.445,41.056,-23.46,-11.73
0.845,2.06,8.526,2.778,17.595,-0.862,8.43,-2.395,23.46,-2.013,8.197,2.445,41.056,-23.46,-11.73
0.85,2.108,8.478,2.778,17.595,-0.671,8.478,-2.443,17.595,-2.157,8.197,2.588,35.191,-23.46,-11.73
0.855,2.108,8.478,2.922,17.595,-0.814,8.67,-2.587,17.595,-2.445,8.772,2.732,35.191,-23.46,-11.73
0.86,2.012,8.574,2.922,17.595,-0.623,9.149,-2.443,17.595,-2.013,9.059,2.301,35.191,-17.595,-11.73
0.865,1.868,8.766,3.353,17.595,-0.766,9.341,-2.156,17.595,-2.445,8.916,2.157,35.191,-23.46,-11.73
0.87,2.443,9.341,2.73,17.595,-1.198,9.053,-2.347,23.46,-3.02,8.34,2.445,35.191,-23.46,-5.865
0.875,2.108,9.388,2.73,17.595,-1.245,8.862,-2.347,23.46,-3.739,7.046,1.726,29.326,-17.595,-5.865
0.88,2.443,9.197,2.922,17.595,-0.575,9.197,-2.491,23.46,-1.726,9.203,2.876,23.46,-23.46,-17.595
0.885,2.826,9.724,2.06,23.46,-0.671,8.814,-3.161,23.46,-1.294,8.772,3.02,23.46,-17.595,-17.595
0.89,1.868,8.957,3.497,17.595,-0.814,8.766,-2.299,23.46,-1.438,8.628,2.301,23.46,-23.46,-5.865
0.895,2.203,8.574,3.305,23.46,-0.575,8.862,-2.156,23.46,-1.726,8.484,2.157,23.46,-23.46,0.0
0.9,2.299,8.909,2.635,23.46,-0.575,8.862,-2.06,17.595,-2.301,8.628,2.013,23.46,-23.46,5.865
0.905,2.012,9.005,2.587,17.595,-0.862,9.053,-2.012,17.595,-2.732,8.628,2.013,23.46,-23.46,5.865
0.91,2.012,8.957,2.539,17.595,-1.054,9.197,-2.012,17.595,-2.876,8.34,2.157,17.595,-23.46,5.865
0.915,2.251,9.101,2.491,11.73,-0.958,8.814,-2.012,23.46,-2.588,8.34,2.445,17.595,-23.46,11.73
0.92,2.395,9.388,2.539,17.595,-0.623,8.478,-2.682,23.46,-2.157,8.053,2.732,17.595,-23.46,11.73
0.925,2.156,8.862,2.73,23.46,-0.671,8.574,-2.539,23.46,-1.869,8.053,2.732,11.73,-23.46,11.73
0.93,2.012,8.335,3.114,23.46,-0.575,8.239,-2.635,23.46,-2.301,7.478,2.732,11.73,-23.46,11.73
0.935,2.203,8.43,2.922,23.46,-0.719,8.143,-2.587,17.595,-2.301,7.334,2.732,11.73,-29.326,17.595
0.9400000000000001,2.06,8.383,3.114,17.595,-0.623,7.999,-2.539,17.595,-2.013,7.621,2.588,11.73,-29.326,17.595
0.9450000000000001,2.108,8.239,3.018,17.595,-0.479,8.239,-2.299,11.73,-1.726,7.909,2.301,0.0,-29.326,17.595
0.9500000000000001,1.916,8.191,2.922,11.73,-0.335,8.526,-2.203,11.73,-1.869,7.621,2.301,0.0,-29.326,23.46
0.9550000000000001,1.916,8.335,2.73,11.73,-0.335,8.335,-2.491,11.73,-2.013,7.765,2.876,0.0,-29.326,23.46
0.96,1.772,8.383,2.682,11.73,-0.479,8.478,-2.826,5.865,-1.726,8.628,2.876,11.73,-29.326,29.326
0.965,1.677,8.287,3.018,5.865,-0.671,8.67,-2.682,5.865,-1.869,8.916,2.732,11.73,-35.191,29.326
0.97,1.82,8.383,3.209,5.865,-0.719,8.335,-2.539,5.865,-1.869,8.916,2.588,17.595,-29.326,23.46
0.975,1.964,8.526,3.114,-0.0,-0.479,8.287,-2.491,5.865,-1.869,8.628,2.588,17.595,-29.326,23.46
0.98,1.868,8.383,2.97,-0.0,-0.383,8.43,-2.491,11.73,-1.726,8.197,2.588,17.595,-29.326,23.46
0.985,1.724,8.335,2.922,5.865,-0.287,8.239,-2.539,11.73,-1.582,8.772,2.588,17.595,-29.326,23.46
0.99,1.724,8.43,2.97,5.865,-0.479,8.383,-2.443,11.73,-1.582,8.34,2.588,17.595,-29.326,23.46
0.995,1.724,8.43,2.97,11.73,-0.24,8.574,-2.491,11.73,-1.582,8.34,2.588,11.73,-29.326,23.46
1.0,1.82,8.67,2.97,11.73,-0.383,8.574,-2.395,11.73,-1.726,8.628,2.445,0.0,-29.326,23.46
1.0050000000000001,1.677,8.718,2.922,11.73,-0.383,8.718,-2.395,11.73,-1.582,8.484,2.588,0.0,-29.326,17.595
1.01,1.772,8.909,2.874,11.73,-0.335,8.574,-2.491,11.73,-1.726,8.484,2.588,0.0,-29.326,17.595
1.0150000000000001,1.82,8.862,2.874,11.73,-0.287,8.766,-2.539,11.73,-1.726,8.34,2.732,0.0,-29.326,11.73
1.02,1.724,8.718,2.97,11.73,-0.192,8.814,-2.635,11.73,-1.582,8.34,2.732,-5.865,-29.326,11.73
1.025,1.724,8.814,3.066,5.865,-0.335,8.622,-2.587,5.865,-1.726,8.484,2.588,-5.865,-29.326,11.73
1.03,1.629,8.766,3.066,5.865,-0.383,8.526,-2.635,5.865,-1.726,8.628,2.732,-5.865,-29.326,11.73
1.035,1.724,8.718,3.066,5.865,-0.287,8.574,-2.682,5.865,-1.582,8.484,2.732,-5.865,-29.326,5.865
1.04,1.724,8.67,3.114,5.865,-0.24,8.622,-2.682,5.865,-1.582,8.484,2.732,-11.73,-29.326,5.865
1.045,1.677,8.67,3.114,-0.0,-0.144,8.622,-2.73,5.865,-1.438,8.484,2.876,-11.73,-29.326,5.865
1.05,1.581,8.622,3.161,5.865,-0.096,8.622,-2.778,5.865,-1.438,8.484,2.876,-11.73,-29.326,5.865
1.055,1.581,8.67,3.209,-0.0,-0.096,8.622,-2.874,5.865,-1.438,8.484,2.876,-11.73,-29.326,5.865
1.06,1.485,8.622,3.257,-0.0,-0.048,8.622,-2.826,5.865,-1.438,8.484,2.876,-11.73,-29.326,5.865
1.065,1.485,8.622,3.305,-0.0,0.048,8.622,-2.682,5.865,-1.294,8.628,2.732,-11.73,-29.326,5.865
1.07,1.389,8.622,3.209,-0.0,0.096,8.622,-2.73,5.865,-1.15,8.628,2.876,-11.73,-29.326,5.865
1.075,1.389,8.574,3.161,5.865,0.192,8.622,-2.778,5.865,-1.007,8.628,2.876,-11.73,-29.326,11.73
1.08,1.341,8.622,3.161,5.865,0.287,8.718,-2.874,5.865,-1.007,8.628,2.876,-11.73,-35.191,11.73
1.085,1.245,8.67,3.257,5.865,0.24,8.814,-2.826,11.73,-1.007,8.772,2.876,-11.73,-35.191,5.865
1.09,1.245,8.814,3.305,5.865,0.144,8.862,-2.778,11.73,-1.15,8.772,2.876,-11.73,-35.191,5.865
1.095,1.245,8.862,3.305,5.865,0.144,8.909,-2.635,11.73,-0.719,8.772,2.732,-11.73,-35.191,5.865
1.1,1.341,8.909,3.209,5.865,0.0,8.718,-2.682,5.865,-1.582,8.916,2.732,-11.73,-35.191,5.865
1.105,1.293,9.149,2.922,5.865,-0.144,8.766,-2.635,5.865,-1.15,8.772,2.732,-11.73,-35.191,0.0
1.11,1.293,8.67,3.066,5.865,0.287,8.957,-2.682,5.865,-1.007,8.916,2.732,-11.73,-41.056,0.0
1.115,1.341,9.053,3.066,-0.0,0.335,9.053,-2.682,5.865,-1.007,8.916,2.732,-11.73,-41.056,0.0
1.12,1.198,8.862,3.114,-5.865,0.383,8.957,-2.778,0.0,-1.007,8.916,2.876,-11.73,-41.056,0.0
1.125,1.245,8.814,3.161,-5.865,0.383,9.005,-2.778,0.0,-1.007,9.059,2.876,-11.73,-41.056,0.0
1.1300000000000001,1.15,8.814,3.257,-5.865,0.383,9.101,-2.682,0.0,-1.007,9.203,2.732,-11.73,-41.056,0.0
1.135,1.15,8.862,3.209,-5.865,0.431,9.197,-2.635,0.0,-0.863,9.347,2.732,-11.73,-41.056,0.0
1.1400000000000001,1.102,8.957,3.114,-0.0,0.383,9.341,-2.635,5.865,-1.007,9.491,2.732,-5.865,-41.056,0.0
1.145,1.15,9.053,3.066,-0.0,0.24,9.436,-2.682,5.865,-1.15,9.491,2.732,-5.865,-46.921,0.0
1.1500000000000001,1.15,9.245,3.114,-0.0,0.144,9.388,-2.539,0.0,-1.15,9.347,2.588,-5.865,-46.921,0.0
1.155,1.293,9.341,3.114,-0.0,0.192,9.341,-2.443,0.0,-1.15,9.347,2.445,-5.865,-46.921,0.0
1.16,1.389,9.341,2.97,-0.0,0.096,9.341,-2.395,0.0,-1.294,9.203,2.445,-5.865,-46.921,-5.865
1.165,1.341,9.293,2.874,-0.0,0.096,9.293,-2.299,-5.865,-1.294,9.059,2.445,-5.865,-46.921,-5.865
1.17,1.389,9.293,2.826,-5.865,0.096,9.293,-2.299,-5.865,-1.294,9.203,2.301,-5.865,-46.921,-5.865
1.175,1.389,9.293,2.778,-5.865,0.144,9.341,-2.203,-5.865,-1.15,9.203,2.301,-5.865,-46.921,-5.865
1.18,1.389,9.293,2.73,-5.865,0.192,9.436,-2.251,-5.865,-1.15,9.347,2.301,-5.865,-52.786,-5.865
1.185,1.293,9.388,2.682,-5.865,0.144,9.484,-2.203,-5.865,-1.294,9.491,2.301,-5.865,-52.786,-5.865
1.19,1.341,9.436,2.682,-11.73,0.096,9.628,-2.251,-5.865,-1.294,9.635,2.301,-5.865,-52.786,-5.865
1.195,1.389,9.484,2.682,-5.865,0.096,9.724,-2.251,-5.865,-1.294,9.778,2.445,-5.865,-52.786,-5.865
1.2,1.437,9.58,2.73,-5.865,0.144,9.867,-2.299,-5.865,-1.15,9.922,2.445,-5.865,-52.786,-5.865
1.205,1.437,9.532,2.73,-5.865,0.048,9.867,-2.251,-5.865,-1.294,9.922,2.301,0.0,-52.786,-11.73
1.21,1.485,9.724,2.778,-5.865,-0.048,9.915,-2.156,-5.865,-1.438,9.922,2.301,0.0,-58.651,-11.73
1.215,1.485,9.82,2.682,-11.73,-0.096,9.772,-2.203,-5.865,-1.438,9.635,2.301,0.0,-58.651,-5.865
1.22,1.629,9.772,2.587,-5.865,-0.144,9.676,-2.203,-5.865,-1.582,9.635,2.301,0.0,-58.651,-5.865
1.225,1.677,9.676,2.635,-5.865,-0.144,9.58,-2.203,-5.865,-1.438,9.635,2.157,0.0,-58.651,-5.865
1.23,1.677,9.58,2.73,-5.865,-0.192,9.676,-2.012,0.0,-1.582,9.778,2.013,0.0,-58.651,-5.865
1.235,1.677,9.484,2.587,-5.865,-0.192,9.772,-1.964,-5.865,-1.438,9.778,2.013,0.0,-64.516,-5.865
1.24,1.677,9.58,2.491,-5.865,-0.192,9.867,-2.012,0.0,-1.726,9.778,2.013,0.0,-64.516,0.0
1.245,1.724,9.676,2.443,-5.865,-0.24,9.963,-1.82,5.865,-1.726,9.922,1.726,0.0,-64.516,0.0
1.25,1.724,9.82,2.443,-0.0,-0.431,10.059,-2.108,5.865,-2.013,10.21,2.157,0.0,-64.516,5.865
1.2550000000000001,1.677,10.011,2.251,-0.0,-0.479,10.059,-2.012,5.865,-1.869,9.922,2.013,11.73,-64.516,5.865
1.26,1.868,9.867,2.587,-0.0,-0.479,9.963,-1.82,5.865,-1.869,9.778,1.726,11.73,-64.516,5.865
1.2650000000000001,1.964,9.915,2.443,5.865,-0.479,9.963,-1.629,5.865,-2.013,9.778,1.582,11.73,-64.516,5.865
1.27,1.916,9.963,2.251,5.865,-0.575,9.915,-1.724,5.865,-2.013,9.491,1.726,11.73,-64.516,5.865
1.2750000000000001,2.012,10.011,2.108,-0.0,-0.623,9.676,-1.437,5.865,-2.013,9.347,1.582,0.0,-64.516,5.865
1.28,2.108,9.963,2.203,5.865,-0.575,9.628,-1.533,5.865,-2.013,9.347,1.438,0.0,-64.516,5.865
1.285,2.06,9.82,2.012,5.865,-0.527,9.676,-1.389,5.865,-2.013,9.491,1.294,0.0,-64.516,5.865
1.29,2.012,9.82,1.916,5.865,-0.575,9.676,-1.198,11.73,-2.013,9.347,1.294,0.0,-64.516,5.865
1.295,1.916,9.724,1.772,5.865,-0.575,9.724,-1.485,11.73,-1.869,9.491,1.438,0.0,-64.516,11.73
1.3,2.012,9.772,1.724,5.865,-0.527,9.867,-1.341,11.73,-1.869,9.635,1.438,0.0,-64.516,11.73
1.305,1.964,9.867,1.916,5.865,-0.527,9.867,-1.533,11.73,-1.869,9.635,1.582,-5.865,-64.516,11.73
1.31,2.012,9.867,1.916,11.73,-0.527,9.915,-1.724,11.73,-1.726,9.491,1.726,-5.865,-64.516,11.73
1.315,2.012,9.963,2.06,11.73,-0.479,9.915,-1.82,11.73,-1.582,9.347,2.013,-5.865,-70.381,11.73
1.32,2.012,10.011,2.203,11.73,-1.054,10.634,-2.299,11.73,-2.013,9.922,2.013,-11.73,-70.381,11.73
1.325,2.06,10.251,2.395,11.73,-0.096,9.484,-1.341,17.595,-1.869,9.778,1.15,-17.595,-76.246,11.73
1.33,2.108,10.346,2.97,11.73,-0.527,9.724,-1.437,11.73,-1.869,9.491,1.582,-17.595,-70.381,11.73
1.335,1.581,9.293,1.724,11.73,-0.383,9.676,-1.485,11.73,-1.869,9.491,1.294,-17.595,-76.246,11.73
1.34,1.964,9.772,2.012,11.73,-0.479,9.628,-0.91,11.73,-2.013,9.922,0.719,-17.595,-70.381,11.73
1.345,1.772,9.58,1.82,11.73,-0.383,9.58,-0.383,11.73,-2.157,10.066,0.431,-11.73,-70.381,5.865
1.35,1.82,9.245,1.293,5.865,-0.479,9.532,-0.335,11.73,-2.013,9.922,0.431,-5.865,-70.381,5.865
1.355,1.677,9.005,0.862,5.865,-0.527,9.532,-0.383,5.865,-2.013,9.922,0.431,0.0,-64.516,5.865
1.36,1.772,9.101,0.862,5.865,-0.575,9.436,-0.431,5.865,-2.013,9.635,0.431,0.0,-64.516,5.865
1.365,1.916,9.053,0.862,5.865,-0.527,9.436,-0.479,5.865,-2.013,9.491,0.575,11.73,-64.516,0.0
1.37,1.964,9.053,0.91,5.865,-0.623,9.388,-0.575,0.0,-2.013,9.491,0.575,17.595,-64.516,0.0
1.375,1.964,9.101,1.006,-0.0,-0.671,9.388,-0.766,0.0,-2.157,9.347,0.863,17.595,-64.516,-5.865
1.3800000000000001,2.06,9.197,1.102,-0.0,-0.766,9.341,-0.91,-5.865,-2.157,9.347,1.007,23.46,-64.516,-5.865
1.385,2.108,9.245,1.293,-5.865,-0.766,9.388,-1.006,-5.865,-2.157,9.347,1.007,23.46,-64.516,-5.865
1.3900000000000001,2.156,9.245,1.437,-5.865,-0.766,9.436,-0.958,-11.73,-2.157,9.203,1.007,23.46,-64.516,-11.73
1.395,2.203,9.341,1.485,-5.865,-0.719,9.436,-0.91,-11.73,-2.157,9.347,1.007,23.46,-58.651,-17.595
1.4000000000000001,2.156,9.388,1.437,-11.73,-0.671,9.532,-0.958,-11.73,-2.157,9.347,1.007,23.46,-58.651,-17.595
1.405,2.108,9.436,1.389,-11.73,-0.671,9.58,-0.91,-17.595,-2.157,9.491,1.007,23.46,-58.651,-17.595
1.41,2.06,9.484,1.437,-17.595,-0.623,9.676,-1.006,-17.595,-2.157,9.491,1.007,23.46,-58.651,-17.595
1.415,2.06,9.484,1.389,-17.595,-0.671,9.772,-1.102,-17.595,-2.157,9.635,1.15,23.46,-58.651,-17.595
1.42,2.012,9.676,1.533,-17.595,-0.671,9.772,-1.006,-17.595,-2.588,9.491,1.007,23.46,-58.651,-17.595
1.425,2.108,9.724,1.581,-17.595,0.048,9.772,-0.958,-11.73,-2.013,9.203,1.007,23.46,-58.651,0.0
1.43,2.012,9.724,1.485,-11.73,-0.575,9.436,-1.006,-17.595,-1.438,9.491,1.007,23.46,-64.516,11.73
1.435,1.724,9.58,1.533,-17.595,-0.91,9.628,-0.958,-17.595,-2.157,9.491,1.007,23.46,-64.516,5.865
1.44,2.156,9.58,1.485,-17.595,-1.006,9.963,-0.862,-17.595,-2.732,9.635,0.719,23.46,-64.516,5.865
1.445,2.299,9.724,1.437,-17.595,-1.293,9.628,-0.719,-11.73,-2.445,9.635,0.719,17.595,-64.516,5.865
1.45,2.491,10.538,1.198,-17.595,-1.102,9.197,-0.814,-11.73,-2.301,9.203,1.007,23.46,-58.651,5.865
1.455,2.443,9.149,1.245,-17.595,-1.15,9.293,-1.054,-11.73,-2.588,9.203,1.15,23.46,-58.651,0.0
1.46,2.395,9.149,1.389,-11.73,-1.102,9.293,-1.054,-11.73,-2.445,9.203,1.15,23.46,-58.651,0.0
1.465,2.587,9.245,1.581,-11.73,-1.102,9.341,-1.006,-11.73,-2.301,9.059,1.007,23.46,-58.651,0.0
1.47,2.395,9.293,1.581,-11.73,-0.766,9.436,-1.054,-11.73,-2.157,8.916,1.15,23.46,-52.786,0.0
1.475,2.395,9.388,1.533,-11.73,-1.006,9.197,-1.198,-11.73,-2.301,9.059,1.15,17.595,-52.786,0.0
1.48,2.251,9.484,1.629,-11.73,-1.006,9.341,-1.102,-11.73,-2.445,9.059,1.15,17.595,-52.786,-5.865
1.485,2.443,9.341,1.629,-11.73,-0.958,9.293,-1.054,-11.73,-2.157,9.203,1.007,17.595,-52.786,0.0
1.49,2.347,9.388,1.581,-17.595,-1.054,9.341,-1.054,-11.73,-2.301,9.203,1.15,17.595,-52.786,0.0
1.495,2.395,9.293,1.581,-11.73,-1.102,9.388,-1.198,-11.73,-2.301,9.203,1.294,17.595,-52.786,0.0
1.5,2.443,9.293,1.581,-11.73,-1.054,9.724,-1.198,-11.73,-2.157,9.347,1.294,11.73,-52.786,0.0
1.5050000000000001,2.491,9.388,1.677,-11.73,-0.862,9.484,-1.15,-11.73,-1.726,9.203,1.15,0.0,-52.786,0.0
1.51,2.251,8.622,1.677,-11.73,-1.102,8.718,-1.15,-5.865,-2.301,8.772,1.15,0.0,-52.786,0.0
1.5150000000000001,2.539,9.532,1.629,-5.865,-0.958,8.862,-1.102,-5.865,-2.157,8.916,1.15,0.0,-52.786,0.0
1.52,2.491,9.388,1.629,-5.865,-1.054,9.005,-1.006,0.0,-2.301,9.059,1.007,0.0,-52.786,0.0
1.5250000000000001,2.395,9.101,1.581,-0.0,-1.198,9.005,-0.91,0.0,-2.301,9.059,0.863,11.73,-52.786,5.865
1.53,2.443,9.005,1.485,-0.0,-1.245,9.197,-0.862,0.0,-2.445,9.203,0.863,11.73,-52.786,0.0
1.5350000000000001,2.491,9.101,1.389,-0.0,-1.198,9.293,-0.862,0.0,-2.445,9.203,0.863,17.595,-46.921,5.865
1.54,2.539,9.197,1.389,-0.0,-1.15,9.341,-0.862,5.865,-2.445,9.347,0.863,17.595,-46.921,0.0
1.545,2.491,9.245,1.389,-0.0,-1.15,9.436,-0.814,5.865,-2.445,9.347,0.863,17.595,-46.921,5.865
1.55,2.443,9.293,1.341,-0.0,-1.198,9.484,-0.766,5.865,-2.445,9.347,0.863,17.595,-46.921,5.865
1.555,2.491,9.436,1.293,5.865,-1.245,9.436,-0.766,5.865,-2.445,9.203,0.863,17.595,-46.921,5.865
1.56,2.539,9.484,1.245,5.865,-1.293,9.388,-0.766,5.865,-2.445,9.203,0.719,17.595,-46.921,5.865
1.565,2.587,9.484,1.245,5.865,-1.245,9.341,-0.719,5.865,-2.445,9.059,0.719,17.595,-46.921,5.865
1.57,2.635,9.436,1.245,5.865,-1.293,9.245,-0.623,11.73,-2.445,9.059,0.719,17.595,-46.921,5.865
1.575,2.635,9.341,1.198,5.865,-1.341,9.245,-0.623,11.73,-2.588,9.059,0.719,11.73,-41.056,11.73
1.58,2.635,9.293,1.15,5.865,-1.341,9.341,-0.623,11.73,-2.588,9.347,0.719,11.73,-41.056,11.73
1.585,2.682,9.245,1.102,11.73,-1.293,9.436,-0.766,11.73,-2.732,9.491,0.863,11.73,-41.056,11.73
1.59,2.635,9.341,1.15,11.73,-1.389,9.532,-0.862,17.595,-2.588,9.491,0.863,17.595,-41.056,11.73
1.595,2.635,9.436,1.293,11.73,-1.341,9.484,-0.862,17.595,-2.588,9.491,0.863,17.595,-41.056,17.595
1.6,2.682,9.436,1.341,11.73,-1.245,9.388,-0.958,17.595,-2.445,9.347,1.007,17.595,-41.056,17.595
1.605,2.682,9.341,1.341,11.73,-1.341,9.341,-1.006,23.46,-2.588,9.347,1.15,17.595,-41.056,17.595
1.61,2.635,9.245,1.437,17.595,-1.389,9.245,-1.054,23.46,-2.588,9.203,1.15,23.46,-35.191,23.46
1.615,2.73,9.197,1.533,23.46,-1.341,9.149,-1.102,23.46,-2.445,9.059,1.15,23.46,-35.191,23.46
1.62,2.73,9.101,1.581,23.46,-1.389,9.149,-1.198,23.46,-2.588,8.916,1.294,23.46,-35.191,23.46
1.625,2.73,9.101,1.629,23.46,-1.485,9.053,-1.198,23.46,-2.588,8.916,1.294,23.46,-35.191,23.46
1.6300000000000001,2.778,9.149,1.677,23.46,-1.485,8.957,-1.15,23.46,-2.588,8.772,1.15,23.46,-35.191,23.46
1.635,2.874,9.053,1.677,23.46,-1.485,8.862,-1.102,23.46,-2.588,8.628,1.15,23.46,-35.191,17.595
1.6400000000000001,2.778,8.957,1.629,23.46,-1.437,8.862,-1.054,17.595,-2.588,8.628,1.007,23.46,-35.191,17.595
1.645,2.874,8.909,1.581,17.595,-1.437,8.766,-0.958,17.595,-2.588,8.484,1.007,17.595,-35.191,11.73
1.6500000000000001,2.826,8.909,1.533,17.595,-1.485,8.622,-1.054,17.595,-2.588,8.34,1.15,17.595,-35.191,17.595
1.655,2.826,8.814,1.485,11.73,-1.437,8.526,-1.198,17.595,-2.588,8.34,1.294,17.595,-35.191,17.595
1.6600000000000001,2.826,8.622,1.533,17.595,-1.437,8.478,-1.341,23.46,-2.445,8.34,1.438,17.595,-41.056,17.595
1.665,2.874,8.526,1.677,17.595,-1.437,8.574,-1.341,23.46,-2.445,8.34,1.438,17.595,-41.056,23.46
1.67,2.826,8.526,1.82,17.595,-1.389,8.766,-1.293,23.46,-2.445,8.628,1.294,17.595,-41.056,23.46
1.675,2.826,8.67,1.82,23.46,-1.437,9.053,-1.293,29.326,-2.588,8.772,1.294,11.73,-41.056,29.326
1.68,2.826,8.957,1.772,23.46,-1.533,9.149,-1.245,29.326,-2.732,8.916,1.294,11.73,-41.056,29.326
1.685,2.874,9.197,1.772,29.326,-1.581,9.197,-1.15,35.191,-2.732,8.916,1.15,11.73,-41.056,29.326
1.69,2.97,9.341,1.724,29.326,-1.581,9.245,-1.054,35.191,-2.732,9.059,1.007,0.0,-41.056,35.191
1.695,2.97,9.293,1.629,35.191,-1.629,9.388,-0.91,35.191,-2.732,9.203,0.863,0.0,-41.056,29.326
1.7,2.922,9.388,1.533,35.191,-1.82,9.341,-0.719,35.191,-3.02,9.203,0.719,0.0,-46.921,29.326
1.705,3.114,9.388,1.341,35.191,-1.724,9.341,-0.623,29.326,-2.732,9.347,0.575,0.0,-41.056,29.326
1.71,3.114,9.293,1.198,29.326,-1.677,9.101,-0.671,29.326,-3.02,9.203,0.719,0.0,-41.056,23.46
1.715,2.97,9.101,1.102,29.326,-2.06,9.532,-0.671,23.46,-3.451,9.491,0.719,0.0,-41.056,23.46
1.72,3.353,9.149,1.15,23.46,-2.06,9.341,-0.623,23.46,-3.164,9.491,0.719,0.0,-41.056,17.595
1.725,3.401,9.436,1.15,17.595,-2.635,8.622,-0.814,17.595,-3.739,8.628,0.863,11.73,-41.056,11.73
1.73,2.778,9.436,1.198,17.595,-2.012,8.191,-0.91,17.595,-2.876,8.197,1.15,23.46,-41.056,17.595
1.735,4.167,7.856,1.198,11.73,-1.629,8.383,-1.389,23.46,-2.588,8.34,1.582,23.46,-41.056,23.46
1.74,3.018,8.191,1.533,17.595,-1.916,8.43,-1.485,23.46,-3.02,8.34,1.582,23.46,-41.056,23.46
1.745,3.257,8.383,1.868,23.46,-2.012,8.478,-1.485,29.326,-3.164,8.34,1.582,23.46,-46.921,23.46
1.75,3.353,8.43,1.964,23.46,-2.012,8.478,-1.629,29.326,-3.164,8.197,1.869,23.46,-46.921,29.326
1.7550000000000001,3.353,8.622,2.012,29.326,-2.012,8.383,-1.964,35.191,-3.02,8.053,2.013,23.46,-46.921,29.326
1.76,3.401,8.622,2.251,29.326,-1.916,8.287,-1.964,35.191,-3.02,7.909,2.013,23.46,-46.921,29.326
1.7650000000000001,3.305,8.478,2.443,29.326,-1.868,8.287,-2.012,29.326,-2.876,7.909,2.013,17.595,-46.921,29.326
1.77,3.257,8.43,2.443,29.326,-1.82,8.43,-1.964,29.326,-2.876,8.197,2.013,17.595,-46.921,23.46
1.7750000000000001,3.209,8.526,2.491,29.326,-1.82,8.574,-1.916,23.46,-2.732,8.34,1.869,11.73,-46.921,23.46
1.78,3.209,8.574,2.395,29.326,-1.724,8.622,-1.82,23.46,-2.732,8.34,1.869,11.73,-52.786,23.46
1.7850000000000001,3.161,8.718,2.347,23.46,-1.629,8.718,-1.724,23.46,-2.588,8.484,1.726,0.0,-52.786,23.46
1.79,3.114,8.718,2.251,23.46,-1.581,8.909,-1.724,17.595,-2.732,8.772,1.869,0.0,-52.786,17.595
1.795,3.018,8.862,2.203,23.46,-1.629,9.149,-1.724,23.46,-2.876,9.059,1.726,0.0,-52.786,17.595
1.8,2.97,9.053,2.203,17.595,-1.677,9.341,-1.581,23.46,-2.876,9.347,1.582,0.0,-52.786,17.595
1.805,3.066,9.149,2.156,23.46,-1.677,9.484,-1.341,17.595,-2.732,9.491,1.294,0.0,-52.786,17.595
1.81,3.066,9.293,2.012,17.595,-1.677,9.58,-1.15,23.46,-2.876,9.491,1.15,0.0,-52.786,17.595
1.815,3.066,9.388,1.724,17.595,-1.772,9.82,-0.958,23.46,-3.02,9.635,1.007,0.0,-52.786,23.46
1.82,3.066,9.436,1.581,23.46,-1.868,9.58,-0.91,23.46,-3.307,9.491,0.863,0.0,-52.786,17.595
1.825,3.066,9.293,1.437,23.46,-2.06,9.245,-0.91,23.46,-3.307,9.347,1.007,0.0,-52.786,23.46
1.83,3.305,9.532,1.341,29.326,-2.012,9.197,-1.15,23.46,-3.307,9.203,1.15,11.73,-52.786,23.46
1.835,3.353,9.388,1.485,29.326,-2.06,9.149,-1.245,23.46,-3.307,9.203,1.294,11.73,-52.786,23.46
1.84,3.305,9.197,1.629,29.326,-2.108,9.053,-1.198,23.46,-3.307,8.916,1.15,17.595,-52.786,23.46
1.845,3.353,9.053,1.724,23.46,-2.156,8.957,-1.15,23.46,-3.451,8.772,1.15,17.595,-46.921,23.46
1.85,3.401,8.957,1.677,23.46,-2.203,9.005,-1.054,23.46,-3.451,8.772,1.15,17.595,-46.921,17.595
1.855,3.449,9.005,1.581,23.46,-2.156,9.053,-1.054,23.46,-3.451,8.628,1.15,17.595,-46.921,17.595
1.86,3.497,9.149,1.581,17.595,-2.299,8.957,-1.15,17.595,-3.307,8.484,1.15,11.73,-46.921,17.595
1.865,3.497,9.149,1.629,17.595,-2.203,9.053,-1.293,17.595,-3.307,8.628,1.438,11.73,-46.921,11.73
1.87,3.688,9.245,1.629,17.595,-2.06,9.053,-1.437,17.595,-3.02,8.484,1.438,0.0,-46.921,11.73
1.875,3.497,9.245,1.868,11.73,-2.06,9.005,-1.389,17.595,-3.164,8.34,1.438,0.0,-52.786,11.73
1.8800000000000001,3.593,9.341,1.868,11.73,-2.012,8.862,-1.485,17.595,-3.02,8.34,1.582,-5.865,-52.786,11.73
1.885,3.497,9.293,1.868,11.73,-2.012,8.766,-1.629,17.595,-2.876,8.197,1.869,-5.865,-52.786,11.73
1.8900000000000001,3.449,9.149,2.012,11.73,-2.06,8.67,-1.916,11.73,-3.02,8.34,1.869,-11.73,-58.651,11.73
1.895,3.449,9.101,2.203,11.73,-1.82,8.574,-1.964,17.595,-2.445,7.621,3.02,-17.595,-58.651,11.73
1.9000000000000001,3.449,8.766,2.299,11.73,-1.868,9.101,-2.778,11.73,-2.445,8.484,2.445,-23.46,-58.651,5.865
1.905,2.682,9.915,3.353,11.73,-1.772,9.005,-1.82,5.865,-3.02,8.628,1.726,-35.191,-70.381,5.865
1.9100000000000001,3.784,9.341,2.874,5.865,-1.82,8.957,-1.533,5.865,-3.02,8.484,1.582,-35.191,-70.381,5.865
1.915,2.97,9.245,2.203,5.865,-1.82,8.622,-1.437,5.865,-2.876,8.484,1.438,-35.191,-70.381,5.865
1.92,3.209,9.053,2.012,5.865,-1.629,8.43,-1.341,5.865,-2.732,8.628,1.294,-41.056,-70.381,5.865
1.925,3.066,8.478,1.964,5.865,-1.629,8.67,-1.245,5.865,-2.732,8.916,1.15,-35.191,-70.381,5.865
1.93,2.922,8.239,1.82,5.865,-1.724,9.053,-1.054,11.73,-2.876,9.203,1.007,-35.191,-70.381,5.865
1.935,2.97,8.574,1.724,5.865,-1.916,9.388,-0.766,5.865,-3.164,9.347,0.719,-29.326,-70.381,5.865
1.94,3.066,9.053,1.485,5.865,-2.012,9.58,-0.527,5.865,-3.307,9.491,0.431,-29.326,-70.381,5.865
1.945,3.257,9.388,1.198,5.865,-2.06,9.628,-0.383,5.865,-3.451,9.635,0.431,-29.326,-70.381,5.865
1.95,3.305,9.532,0.958,5.865,-2.251,10.059,-0.527,5.865,-3.307,9.922,0.288,-29.326,-64.516,5.865
1.955,3.401,9.484,0.91,5.865,-1.916,9.963,0.24,5.865,-3.307,9.491,-0.288,-23.46,-64.516,5.865
1.96,3.64,10.059,0.766,5.865,-2.395,9.82,0.096,5.865,-3.883,9.922,-0.0,-23.46,-64.516,5.865
1.965,3.257,9.915,0.24,5.865,-2.73,9.963,-0.096,5.865,-4.026,9.922,-0.144,-23.46,-64.516,0.0
1.97,3.784,9.724,0.431,5.865,-2.539,9.963,0.575,0.0,-3.739,9.778,-0.719,-23.46,-64.516,0.0
1.975,4.024,9.772,0.431,-0.0,-2.491,9.963,0.575,0.0,-3.883,9.922,-0.575,-23.46,-64.516,0.0
1.98,3.736,9.963,-0.096,-0.0,-2.826,10.059,0.383,0.0,-4.314,10.21,-0.288,-17.595,-58.651,0.0
1.985,3.88,9.867,-0.048,-0.0,-3.066,10.155,0.431,0.0,-4.458,10.354,-0.575,-17.595,-58.651,0.0
1.99,4.215,9.772,0.144,-0.0,-3.018,10.251,0.862,-5.865,-4.314,10.354,-1.007,-11.73,-58.651,-5.865
1.995,4.311,9.772,-0.048,-0.0,-3.018,10.394,1.293,-5.865,-4.314,10.354,-1.438,-5.865,-58.651,-5.865
2.0,4.263,10.011,-0.479,-5.865,-2.97,10.107,1.581,-5.865,-4.314,10.066,-1.726,0.0,-58.651,-5.865
2.005,4.311,10.107,-0.862,-5.865,-2.922,8.526,1.772,0.0,-4.458,8.772,-1.582,0.0,-52.786,-5.865
2.0100000000000002,4.072,9.388,-1.15,-5.865,-3.066,6.85,1.245,5.865,-4.17,7.334,-1.15,17.595,-46.921,5.865
2.015,3.976,7.041,-1.054,-5.865,-2.778,7.808,0.719,17.595,-3.595,8.197,-0.575,29.326,-46.921,17.595
2.02,4.119,6.467,-0.575,5.865,-2.922,9.005,0.527,17.595,-4.17,9.203,-0.575,35.191,-46.921,17.595
2.025,4.215,7.951,-0.144,11.73,-3.161,9.915,0.575,17.595,-4.314,9.203,-0.575,35.191,-46.921,11.73
2.0300000000000002,4.311,9.245,-0.048,17.595,-2.97,10.011,0.479,17.595,-3.883,8.916,-0.431,29.326,-46.921,11.73
2.035,4.551,10.49,-0.096,17.595,-2.635,9.436,0.0,11.73,-3.739,8.772,0.288,23.46,-46.921,11.73
2.04,4.311,10.442,0.096,11.73,-2.491,9.053,-0.623,11.73,-3.451,8.628,0.863,17.595,-52.786,5.865
2.045,4.024,9.58,0.671,11.73,-2.395,9.005,-1.006,5.865,-3.451,8.916,1.15,11.73,-52.786,5.865
2.05,3.88,9.101,1.245,5.865,-2.156,9.245,-1.198,5.865,-3.164,9.203,1.15,11.73,-52.786,0.0
2.055,3.736,9.101,1.581,5.865,-2.012,9.388,-1.293,0.0,-3.164,9.203,1.438,11.73,-58.651,0.0
2.06,3.545,9.293,1.677,5.865,-1.916,9.388,-1.485,0.0,-3.02,9.203,1.582,11.73,-58.651,-5.865
2.065,3.353,9.436,1.82,-0.0,-1.82,9.293,-1.724,0.0,-2.876,9.203,1.726,11.73,-58.651,-5.865
2.07,3.305,9.388,2.012,-0.0,-1.629,9.149,-1.868,0.0,-2.732,9.059,2.013,11.73,-58.651,0.0
2.075,3.161,9.149,2.203,-5.865,-1.533,9.053,-2.012,0.0,-2.588,8.916,2.157,17.595,-58.651,0.0
2.08,3.018,9.005,2.347,-0.0,-1.533,8.862,-2.108,0.0,-2.588,8.772,2.157,17.595,-58.651,0.0
2.085,2.97,8.909,2.539,-0.0,-1.437,8.766,-2.06,5.865,-2.588,8.772,2.013,17.595,-58.651,0.0
2.09,2.922,8.718,2.587,-0.0,-1.437,8.766,-1.916,5.865,-2.588,8.628,1.869,23.46,-58.651,0.0
2.095,2.826,8.67,2.491,-0.0,-1.485,8.718,-1.772,5.865,-2.588,8.484,1.726,23.46,-58.651,5.865
2.1,2.826,8.766,2.395,-0.0,-1.437,8.67,-1.677,5.865,-2.588,8.484,1.726,23.46,-64.516,5.865
2.105,2.826,8.67,2.251,5.865,-1.533,8.814,-1.581,11.73,-2.588,8.628,1.582,23.46,-64.516,5.865
2.11,2.778,8.67,2.156,5.865,-1.629,9.053,-1.485,11.73,-2.732,8.772,1.438,23.46,-64.516,5.865
2.115,2.73,8.718,2.06,5.865,-1.485,8.766,-1.293,5.865,-2.732,8.484,1.294,17.595,-64.516,0.0
2.12,2.73,8.766,1.964,11.73,-1.485,8.718,-1.198,5.865,-2.588,8.484,1.294,17.595,-64.516,0.0
2.125,3.066,8.957,1.772,11.73,-1.581,8.814,-1.15,5.865,-2.732,8.628,1.15,17.595,-64.516,0.0
2.13,2.922,8.909,1.677,11.73,-1.581,9.005,-1.006,5.865,-2.732,8.916,1.007,17.595,-64.516,0.0
2.1350000000000002,2.826,8.766,1.629,11.73,-1.677,9.149,-1.006,0.0,-2.876,9.059,1.007,17.595,-64.516,0.0
2.14,2.922,8.957,1.485,5.865,-1.629,9.149,-1.102,0.0,-2.732,8.916,1.15,17.595,-64.516,-5.865
2.145,2.874,9.053,1.533,5.865,-1.629,9.053,-1.102,-5.865,-2.732,8.772,1.15,17.595,-64.516,-5.865
2.15,2.874,9.053,1.581,5.865,-1.581,8.957,-1.198,0.0,-2.732,8.772,1.294,17.595,-64.516,-5.865
2.1550000000000002,2.874,9.005,1.629,5.865,-1.533,9.005,-1.293,-5.865,-2.588,8.772,1.294,17.595,-64.516,-5.865
2.16,2.922,9.101,1.724,5.865,-1.485,8.909,-1.293,0.0,-2.732,8.772,1.294,11.73,-64.516,0.0
2.165,2.778,9.053,1.772,5.865,-1.533,9.053,-1.389,0.0,-2.732,9.059,1.438,17.595,-64.516,0.0
2.17,2.874,9.197,1.772,5.865,-1.485,9.197,-1.485,0.0,-2.588,9.203,1.582,17.595,-64.516,0.0
2.1750000000000003,2.778,9.149,1.916,5.865,-1.341,9.293,-1.581,5.865,-2.588,9.347,1.726,17.595,-64.516,0.0
2.18,2.73,9.197,1.964,5.865,-1.293,9.293,-1.629,5.865,-2.445,9.347,1.726,17.595,-64.516,5.865
2.185,2.635,9.245,2.108,5.865,-1.245,9.293,-1.677,5.865,-2.445,9.203,1.726,23.46,-64.516,5.865
2.19,2.587,9.245,2.156,5.865,-1.245,9.293,-1.724,5.865,-2.445,9.347,1.726,23.46,-64.516,5.865
2.195,2.539,9.245,2.203,5.865,-1.198,9.293,-1.677,5.865,-2.445,9.203,1.726,23.46,-64.516,5.865
2.2,2.491,9.197,2.203,5.865,-1.198,9.149,-1.677,11.73,-2.445,9.059,1.726,23.46,-64.516,5.865
2.205,2.443,9.197,2.156,5.865,-1.15,9.053,-1.677,11.73,-2.301,8.916,1.726,29.326,-64.516,11.73
2.21,2.443,9.053,2.156,5.865,-1.15,9.005,-1.677,11.73,-2.301,8.916,1.726,29.326,-58.651,11.73
2.215,2.395,8.957,2.156,5.865,-1.15,9.005,-1.677,11.73,-2.301,8.916,1.726,29.326,-58.651,11.73
2.22,2.395,9.005,2.156,5.865,-1.15,9.053,-1.677,11.73,-2.301,8.916,1.726,29.326,-58.651,11.73
2.225,2.395,9.005,2.156,11.73,-1.198,9.053,-1.677,11.73,-2.301,8.916,1.726,29.326,-58.651,11.73
2.23,2.395,9.101,2.203,11.73,-1.054,9.149,-1.677,11.73,-2.445,8.772,1.726,29.326,-58.651,11.73
2.235,2.443,9.101,2.156,11.73,-1.293,8.909,-1.677,17.595,-2.445,8.628,1.726,29.326,-58.651,11.73
2.24,2.299,9.101,2.203,11.73,-1.245,9.053,-1.677,11.73,-2.445,8.772,1.582,23.46,-58.651,11.73
2.245,2.635,9.053,2.156,11.73,-1.198,9.005,-1.581,11.73,-2.445,8.772,1.582,23.46,-58.651,11.73
2.25,2.443,9.245,2.108,11.73,-1.293,9.053,-1.677,11.73,-2.445,8.772,1.726,23.46,-58.651,11.73
2.255,2.491,9.149,2.06,11.73,-1.245,9.101,-1.629,17.595,-2.445,8.916,1.582,17.595,-58.651,11.73
2.2600000000000002,2.539,9.197,2.156,11.73,-1.245,9.149,-1.629,11.73,-2.445,9.059,1.582,17.595,-58.651,11.73
2.265,2.491,9.197,2.108,11.73,-1.245,9.293,-1.677,17.595,-2.445,9.203,1.726,17.595,-58.651,11.73
2.27,2.491,9.293,2.108,11.73,-1.198,9.388,-1.724,17.595,-2.445,9.347,1.726,17.595,-58.651,11.73
2.275,2.491,9.388,2.156,11.73,-1.15,9.484,-1.772,11.73,-2.301,9.347,1.869,17.595,-58.651,11.73
2.2800000000000002,2.491,9.436,2.203,11.73,-1.15,9.532,-1.772,17.595,-2.301,9.491,1.869,17.595,-58.651,11.73
2.285,2.443,9.532,2.251,11.73,-1.15,9.58,-1.724,17.595,-2.445,9.491,1.726,17.595,-58.651,11.73
2.29,2.443,9.532,2.251,11.73,-1.15,9.58,-1.677,11.73,-2.445,9.491,1.726,17.595,-58.651,11.73
2.295,2.395,9.532,2.203,11.73,-1.15,9.628,-1.677,11.73,-2.445,9.491,1.726,17.595,-58.651,11.73
2.3000000000000003,2.395,9.58,2.203,11.73,-1.198,9.628,-1.581,11.73,-2.445,9.491,1.582,17.595,-58.651,11.73
2.305,2.395,9.58,2.156,11.73,-1.198,9.676,-1.581,11.73,-2.445,9.635,1.582,17.595,-58.651,11.73
2.31,2.443,9.628,2.06,11.73,-1.15,9.724,-1.629,11.73,-2.301,9.635,1.726,17.595,-58.651,11.73
2.315,2.443,9.676,2.06,11.73,-1.054,9.724,-1.677,11.73,-2.157,9.491,1.726,17.595,-58.651,11.73
2.32,2.443,9.724,2.108,11.73,-1.054,9.724,-1.724,11.73,-2.301,9.491,1.726,17.595,-58.651,11.73
2.325,2.395,9.772,2.156,11.73,-1.102,9.724,-1.82,11.73,-2.301,9.491,1.869,17.595,-58.651,11.73
2.33,2.395,9.82,2.251,11.73,-1.102,9.772,-1.772,11.73,-2.301,9.491,1.869,17.595,-58.651,11.73
2.335,2.395,9.82,2.299,11.73,-1.102,9.772,-1.772,11.73,-2.301,9.491,1.869,17.595,-58.651,11.73
2.34,2.395,9.867,2.251,11.73,-1.102,9.82,-1.82,17.595,-2.301,9.491,1.869,11.73,-58.651,11.73
2.345,2.395,9.963,2.251,11.73,-1.102,9.724,-1.82,17.595,-2.301,9.347,1.869,11.73,-64.516,11.73
2.35,2.395,9.963,2.299,11.73,-1.102,9.58,-1.868,17.595,-2.301,9.203,1.869,0.0,-64.516,11.73
2.355,2.443,9.963,2.299,11.73,-1.102,9.436,-1.82,17.595,-2.301,9.059,1.869,0.0,-64.516,11.73
2.36,2.443,9.772,2.299,11.73,-1.102,9.341,-1.772,17.595,-2.301,8.916,1.869,0.0,-64.516,11.73
2.365,2.443,9.676,2.299,11.73,-1.102,9.245,-1.724,17.595,-2.301,8.916,1.726,-5.865,-64.516,17.595
2.37,2.395,9.58,2.251,11.73,-1.102,9.245,-1.916,17.595,-2.301,8.916,1.869,-5.865,-64.516,17.595
2.375,2.395,9.532,2.156,11.73,-1.245,9.341,-2.299,17.595,-2.157,9.203,1.869,-11.73,-64.516,17.595
2.38,2.347,9.58,2.395,17.595,-1.006,9.532,-1.677,17.595,-2.445,9.059,1.582,-11.73,-64.516,17.595
2.3850000000000002,2.73,9.532,2.251,17.595,-1.102,9.58,-1.437,17.595,-2.157,9.059,1.582,-17.595,-64.516,17.595
2.39,2.108,9.724,2.203,17.595,-0.814,9.58,-1.629,17.595,-1.869,9.203,1.582,-23.46,-64.516,17.595
2.395,2.347,9.915,1.916,17.595,-0.814,9.532,-1.581,23.46,-2.157,9.491,1.726,-23.46,-64.516,17.595
2.4,2.156,9.82,2.06,17.595,-0.91,9.676,-1.916,23.46,-2.013,9.635,1.869,-29.326,-70.381,17.595
2.4050000000000002,2.108,9.58,2.203,17.595,-0.862,9.724,-1.629,17.595,-2.013,9.635,1.582,-29.326,-70.381,17.595
2.41,2.251,9.724,2.347,17.595,-0.719,9.772,-1.485,17.595,-1.869,9.635,1.438,-29.326,-70.381,11.73
2.415,2.108,9.82,2.06,17.595,-0.623,9.724,-1.581,11.73,-1.869,9.778,1.726,-29.326,-70.381,11.73
2.42,1.964,9.772,1.964,11.73,-0.479,10.346,-1.341,11.73,-1.726,10.641,2.013,-29.326,-64.516,11.73
2.4250000000000003,1.868,9.628,2.156,11.73,-0.527,10.346,-2.251,11.73,-1.582,10.354,2.588,-29.326,-64.516,5.865
2.43,1.964,10.059,2.491,5.865,-0.24,9.341,-3.497,5.865,-1.15,10.066,4.17,-23.46,-70.381,5.865
2.435,2.06,9.82,2.778,5.865,0.192,8.814,-4.215,11.73,-0.575,9.347,4.17,-11.73,-70.381,11.73
2.44,1.389,8.239,4.407,5.865,0.431,8.957,-4.024,11.73,-0.288,9.203,4.17,-5.865,-70.381,11.73
2.445,1.341,8.43,4.598,11.73,0.719,8.862,-5.125,17.595,0.0,9.347,5.608,0.0,-76.246,11.73
2.45,1.15,8.957,4.455,11.73,0.91,9.245,-5.461,23.46,0.144,9.491,5.608,0.0,-82.111,23.46
2.455,1.006,8.191,5.796,17.595,0.862,9.82,-5.413,29.326,0.144,9.778,5.464,0.0,-87.977,23.46
2.46,0.814,9.388,5.844,23.46,1.198,10.251,-5.556,23.46,0.575,9.922,5.752,0.0,-93.842,23.46
2.465,0.814,10.203,5.844,23.46,1.245,10.394,-5.748,23.46,0.719,9.778,5.896,0.0,-99.707,23.46
2.47,0.575,10.73,6.035,23.46,1.485,10.346,-5.988,17.595,1.15,9.778,6.183,-5.865,-105.572,11.73
2.475,0.623,11.017,6.179,23.46,1.772,10.059,-6.275,11.73,1.438,9.778,6.471,-17.595,-117.302,11.73
2.48,0.431,10.778,6.467,17.595,2.06,9.724,-6.419,11.73,1.726,9.635,6.471,-23.46,-129.032,5.865
2.485,0.192,10.251,6.754,11.73,2.251,9.436,-6.179,5.865,1.869,9.635,6.183,-23.46,-140.762,5.865
2.49,-0.144,9.724,6.85,5.865,2.347,9.245,-5.748,5.865,1.869,9.635,5.608,-23.46,-146.628,5.865
2.495,-0.335,9.293,6.562,5.865,2.395,9.101,-5.317,5.865,1.726,9.778,5.177,-23.46,-158.358,5.865
2.5,-0.527,8.909,6.131,5.865,2.395,9.101,-4.886,5.865,1.726,9.635,4.745,-17.595,-164.223,5.865
2.505,-0.623,8.718,5.7,5.865,2.443,9.053,-4.263,5.865,1.726,9.491,4.026,-11.73,-170.088,5.865
2.5100000000000002,-0.719,8.718,5.269,5.865,2.347,9.005,-3.64,11.73,1.582,9.203,3.451,-5.865,-175.953,5.865
2.515,-0.766,8.909,4.646,5.865,2.395,8.718,-3.257,11.73,1.582,8.772,3.02,-5.865,-175.953,5.865
2.52,-0.719,8.862,4.119,5.865,2.203,8.43,-2.778,11.73,1.438,8.34,2.588,-5.865,-181.818,11.73
2.525,-0.814,8.526,3.784,5.865,2.012,8.239,-2.203,11.73,1.438,8.053,1.869,-5.865,-187.683,11.73
2.5300000000000002,-0.527,8.383,3.257,11.73,2.012,7.999,-1.485,11.73,1.438,7.909,1.15,-5.865,-193.548,11.73
2.535,-0.335,8.191,2.635,11.73,1.916,7.808,-0.671,11.73,1.294,7.765,0.288,-5.865,-199.413,11.73
2.54,-0.335,7.999,1.964,11.73,1.772,7.712,0.287,11.73,1.007,7.621,-0.863,-11.73,-199.413,11.73
2.545,-0.287,7.856,1.15,11.73,1.629,7.616,1.533,17.595,0.863,7.478,-2.157,-11.73,-205.279,11.73
2.5500000000000003,-0.192,7.76,0.144,11.73,1.437,7.472,3.114,17.595,0.575,7.19,-3.883,-11.73,-211.144,17.595
2.555,-0.048,7.616,-1.198,17.595,1.15,7.472,4.934,23.46,0.144,7.19,-5.896,-17.595,-211.144,23.46
2.56,0.048,7.52,-2.778,17.595,0.91,7.616,7.185,23.46,-0.288,7.334,-8.197,-23.46,-211.144,23.46
2.565,0.24,7.616,-4.694,23.46,0.623,7.904,9.724,29.326,-1.15,7.765,-10.785,-29.326,-211.144,29.326
2.57,0.24,7.76,-6.993,23.46,0.24,8.335,12.215,35.191,-2.013,8.484,-13.23,-29.326,-205.279,35.191
2.575,0.192,7.904,-9.532,29.326,-0.287,8.766,14.562,35.191,-3.164,9.203,-15.53,-29.326,-193.548,35.191
2.58,0.144,8.143,-11.927,35.191,-0.766,9.149,16.573,41.056,-3.883,9.922,-17.4,-29.326,-170.088,41.056
2.585,0.383,8.191,-14.274,41.056,-0.958,9.58,17.963,41.056,-4.314,10.641,-18.694,-17.595,-146.628,41.056
2.59,0.335,8.143,-16.142,41.056,-0.958,9.772,18.825,41.056,-4.314,10.929,-19.269,-5.865,-117.302,41.056
2.595,0.335,8.383,-17.436,41.056,-0.91,9.867,19.064,41.056,-4.314,10.929,-19.269,11.73,-87.977,41.056
2.6,0.144,8.239,-18.154,41.056,-0.814,9.772,18.825,41.056,-4.026,10.641,-18.838,29.326,-52.786,41.056
2.605,0.287,8.383,-18.298,41.056,-0.862,9.484,18.058,46.921,-3.739,10.066,-17.975,41.056,-23.46,46.921
2.61,0.24,8.43,-17.963,41.056,-0.623,9.388,17.244,52.786,-3.595,9.778,-17.112,52.786,5.865,46.921
2.615,0.383,8.383,-17.148,46.921,-0.766,9.58,16.382,52.786,-3.595,9.347,-16.249,64.516,29.326,52.786
2.62,0.383,8.67,-16.334,52.786,-0.527,9.724,15.328,58.651,-3.02,9.059,-15.243,64.516,58.651,52.786
2.625,0.479,9.197,-15.424,52.786,-0.144,9.341,13.939,58.651,-2.301,8.484,-13.517,64.516,76.246,52.786
2.63,0.431,9.628,-14.322,52.786,0.192,9.101,11.927,52.786,-1.582,8.197,-11.504,52.786,93.842,52.786
2.6350000000000002,0.383,9.532,-12.789,52.786,0.766,8.862,9.963,52.786,-0.719,8.197,-9.491,46.921,105.572,46.921
2.64,0.479,9.197,-10.825,46.921,1.054,8.478,8.191,52.786,-0.144,7.909,-7.909,41.056,111.437,46.921
2.645,0.192,8.957,-8.862,46.921,1.581,8.095,7.041,52.786,0.288,7.765,-7.046,35.191,117.302,52.786
2.65,-0.24,8.574,-7.233,46.921,1.485,8.239,6.227,64.516,0.144,8.053,-6.04,29.326,123.167,58.651
2.6550000000000002,-0.958,8.191,-6.275,52.786,1.389,8.526,4.982,70.381,-0.144,8.484,-4.745,23.46,129.032,64.516
2.66,-0.383,8.383,-5.269,58.651,1.533,8.526,3.497,70.381,0.288,8.484,-3.02,23.46,134.897,64.516
2.665,-0.527,8.43,-4.024,64.516,1.964,8.67,1.437,64.516,1.15,8.628,-0.863,23.46,134.897,52.786
2.67,-0.479,8.43,-2.443,64.516,2.539,9.58,-1.293,52.786,2.013,9.491,2.301,23.46,134.897,46.921
2.6750000000000003,-0.766,8.622,-0.287,52.786,3.018,10.538,-3.593,46.921,3.164,10.354,4.17,11.73,134.897,46.921
2.68,-0.814,10.778,2.587,46.921,3.545,10.155,-5.556,46.921,3.451,10.354,6.471,0.0,117.302,41.056
2.685,-0.91,10.634,4.359,46.921,4.263,10.682,-8.67,46.921,4.602,10.785,9.203,0.0,105.572,41.056
2.69,-1.629,10.299,6.61,41.056,3.497,12.119,-9.867,41.056,3.739,11.935,10.785,-5.865,87.977,35.191
2.695,-1.15,12.262,8.957,41.056,3.784,12.215,-11.783,41.056,3.883,12.942,12.511,-11.73,64.516,35.191
2.7,-0.766,12.55,10.73,35.191,4.167,12.262,-13.364,41.056,4.602,13.086,14.092,-5.865,46.921,41.056
2.705,-1.341,11.831,12.358,35.191,4.167,11.927,-14.562,41.056,4.745,12.654,15.099,0.0,23.46,41.056
2.71,-1.198,11.879,13.795,41.056,4.455,11.496,-15.089,41.056,4.889,12.367,15.674,0.0,0.0,35.191
2.715,-1.341,11.496,14.897,41.056,4.551,11.257,-15.424,41.056,5.033,12.223,15.818,17.595,-23.46,35.191
2.72,-1.629,10.969,15.376,41.056,4.598,11.161,-15.568,41.056,5.177,11.792,15.962,23.46,-46.921,35.191
2.725,-1.629,10.825,15.472,41.056,4.551,11.017,-15.424,41.056,5.177,11.216,15.53,35.191,-70.381,41.056
2.73,-1.533,10.682,15.663,35.191,4.359,11.352,-14.849,41.056,4.889,10.929,14.955,35.191,-93.842,41.056
2.735,-1.581,11.448,15.424,41.056,4.072,11.304,-14.466,41.056,4.458,10.641,14.524,23.46,-117.302,41.056
2.74,-1.198,12.023,14.897,41.056,3.88,10.969,-13.939,41.056,4.314,10.066,13.805,17.595,-146.628,35.191
2.745,-1.198,12.023,14.562,41.056,3.88,10.682,-13.22,35.191,4.17,9.922,12.942,0.0,-164.223,29.326
2.75,-1.102,11.783,14.035,41.056,3.832,10.969,-12.119,23.46,3.883,10.354,11.792,-11.73,-187.683,23.46
2.755,-1.198,11.64,13.316,35.191,3.401,11.496,-10.921,5.865,3.164,10.785,10.497,-29.326,-211.144,0.0
2.7600000000000002,-1.102,12.023,12.215,23.46,3.497,11.544,-9.676,-11.73,3.451,10.497,9.059,-46.921,-222.874,-17.595
2.765,-0.958,12.454,11.113,5.865,3.784,11.017,-8.287,-29.326,3.883,9.922,7.621,-58.651,-240.469,-29.326
2.77,-1.341,12.406,9.867,-11.73,4.167,10.346,-6.993,-35.191,4.17,9.635,6.327,-76.246,-258.064,-35.191
2.775,-1.533,11.783,8.574,-29.326,4.072,9.676,-5.652,-41.056,3.739,9.778,4.889,-82.111,-269.795,-41.056
2.7800000000000002,-1.868,10.73,7.329,-35.191,3.784,8.957,-3.976,-41.056,3.164,9.635,3.02,-87.977,-287.39,-46.921
2.785,-1.82,9.484,6.035,-41.056,3.545,8.383,-1.724,-46.921,2.876,9.491,0.431,-82.111,-293.255,-46.921
2.79,-1.964,8.143,4.359,-41.056,3.449,7.951,1.054,-46.921,2.157,9.059,-2.445,-64.516,-299.12,-46.921
2.795,-2.012,7.329,2.012,-41.056,2.922,7.904,4.024,-41.056,1.438,8.628,-5.464,-52.786,-293.255,-41.056
2.8000000000000003,-2.06,6.898,-0.814,-41.056,2.539,7.808,6.993,-35.191,0.431,8.34,-8.484,-41.056,-293.255,-29.326
2.805,-1.772,7.137,-3.784,-35.191,2.156,7.856,9.388,-23.46,-0.288,8.916,-10.497,-29.326,-281.525,-23.46
2.81,-1.724,6.946,-6.754,-29.326,1.341,8.095,11.688,-17.595,-1.438,8.772,-12.942,-17.595,-263.93,-11.73
2.815,-1.772,6.993,-8.957,-17.595,0.287,8.526,13.891,-5.865,-3.164,8.628,-14.955,-11.73,-240.469,0.0
2.82,-0.958,7.712,-11.257,-11.73,-0.479,8.766,15.52,5.865,-4.026,8.916,-16.106,-5.865,-217.009,5.865
2.825,-0.623,8.095,-13.46,-0.0,-1.293,8.957,15.903,5.865,-4.745,9.059,-16.106,0.0,-187.683,11.73
2.83,0.048,8.095,-14.753,5.865,-1.677,8.814,15.568,5.865,-4.889,9.059,-15.674,0.0,-158.358,5.865
2.835,0.91,8.287,-14.945,5.865,-1.581,8.67,14.945,11.73,-4.314,8.916,-14.955,0.0,-129.032,5.865
2.84,1.102,7.904,-14.61,5.865,-1.437,8.622,14.035,11.73,-3.883,8.916,-13.949,17.595,-105.572,5.865
2.845,1.341,7.951,-13.987,5.865,-1.437,8.814,13.22,11.73,-3.739,9.059,-13.23,23.46,-82.111,11.73
2.85,1.485,7.999,-13.125,11.73,-1.677,9.341,12.55,17.595,-3.883,9.347,-12.511,23.46,-64.516,17.595
2.855,1.677,8.43,-12.406,11.73,-1.916,9.772,11.831,17.595,-4.17,9.491,-11.648,29.326,-46.921,17.595
2.86,2.108,9.197,-11.736,17.595,-2.012,9.963,11.065,17.595,-4.026,9.347,-10.929,23.46,-35.191,17.595
2.865,2.299,9.772,-11.017,17.595,-2.012,9.915,10.394,11.73,-4.026,9.203,-10.354,23.46,-23.46,11.73
2.87,2.491,10.107,-10.299,11.73,-1.916,9.772,9.628,11.73,-4.026,8.916,-9.491,17.595,-11.73,11.73
2.875,2.395,10.107,-9.58,11.73,-1.868,9.724,8.67,11.73,-3.883,8.916,-8.484,0.0,5.865,11.73
2.88,2.251,10.059,-8.814,5.865,-1.677,9.532,7.425,11.73,-3.451,8.916,-7.046,0.0,17.595,11.73
2.8850000000000002,2.299,10.011,-7.76,5.865,-1.485,9.532,5.892,11.73,-3.164,9.203,-5.464,-5.865,29.326,11.73
2.89,2.203,9.724,-6.514,11.73,-1.245,9.58,4.167,11.73,-2.588,9.347,-3.739,-11.73,35.191,11.73
2.895,2.203,9.58,-4.934,11.73,-0.862,9.532,2.682,17.595,-2.013,9.491,-2.301,-11.73,41.056,17.595
2.9,2.156,9.58,-3.257,11.73,-0.431,9.724,1.293,17.595,-1.294,9.778,-0.863,-11.73,46.921,17.595
2.9050000000000002,2.012,9.484,-1.82,11.73,-0.096,9.963,0.096,23.46,-1.007,10.066,0.288,-11.73,41.056,17.595
2.91,1.724,9.676,-0.479,17.595,0.192,10.203,-0.814,23.46,-0.575,10.354,1.15,-11.73,41.056,23.46
2.915,1.533,9.963,0.623,17.595,0.575,10.442,-1.629,23.46,-0.144,10.785,1.869,-11.73,35.191,23.46
2.92,1.341,10.155,1.485,23.46,0.671,10.778,-2.108,23.46,-0.144,11.073,2.301,-5.865,29.326,23.46
2.9250000000000003,1.054,10.251,2.156,23.46,0.814,11.017,-2.443,23.46,0.144,11.073,2.588,-5.865,23.46,17.595
2.93,1.006,10.682,2.635,23.46,0.91,11.065,-2.539,17.595,0.288,10.929,2.732,-5.865,17.595,17.595
2.935,0.958,11.065,2.826,17.595,1.054,11.065,-2.587,17.595,0.288,10.641,2.732,-5.865,11.73,11.73
2.94,0.91,11.209,2.922,11.73,1.054,10.969,-2.443,11.73,0.144,10.497,2.588,-11.73,0.0,5.865
2.945,0.719,11.257,2.97,11.73,1.15,11.017,-2.203,5.865,0.288,10.354,2.301,-17.595,-5.865,5.865
2.95,0.671,11.4,2.826,5.865,1.293,10.969,-2.06,0.0,0.288,10.354,2.157,-23.46,-11.73,0.0
2.955,0.431,11.496,2.587,-0.0,1.293,10.778,-1.868,0.0,0.144,10.21,1.869,-35.191,-11.73,-5.865
2.96,0.287,11.4,2.443,-0.0,1.245,10.634,-1.677,0.0,0.0,10.21,1.582,-41.056,-17.595,-5.865
2.965,0.192,11.113,2.251,-5.865,1.198,10.586,-1.341,-5.865,0.0,10.21,1.294,-46.921,-17.595,-5.865
2.97,0.192,10.921,2.06,-5.865,1.293,10.682,-1.006,-5.865,0.144,10.354,1.007,-52.786,-17.595,-11.73
2.975,0.24,10.873,1.724,-5.865,1.245,10.921,-0.671,-11.73,0.0,10.785,0.575,-58.651,-23.46,-11.73
2.98,0.192,10.969,1.389,-11.73,1.581,11.209,-0.431,-11.73,0.575,11.216,0.431,-64.516,-23.46,-11.73
2.985,0.144,11.161,1.102,-11.73,1.485,11.257,-0.24,-11.73,0.144,11.504,0.288,-64.516,-23.46,-11.73
2.99,-0.144,11.161,0.862,-11.73,1.389,11.257,-0.192,-11.73,0.0,11.648,0.144,-64.516,-23.46,-17.595
2.995,-0.048,10.969,0.719,-11.73,1.389,10.969,0.048,-17.595,0.144,11.504,-0.144,-58.651,-23.46,-17.595
3.0,-0.048,10.778,0.623,-17.595,1.293,10.778,0.287,-17.595,0.0,11.216,-0.288,-52.786,-23.46,-17.595
3.005,0.0,10.394,0.383,-17.595,1.389,10.586,0.575,-17.595,0.144,10.929,-0.719,-46.921,-23.46,-17.595
3.0100000000000002,0.048,10.203,0.144,-17.595,1.437,10.299,0.862,-11.73,0.144,10.641,-0.863,-41.056,-23.46,-11.73
3.015,-0.144,10.059,-0.192,-17.595,1.437,10.203,1.15,-5.865,0.144,10.641,-1.15,-35.191,-23.46,-5.865
3.02,-0.048,9.82,-0.479,-11.73,1.437,10.299,1.245,0.0,0.144,10.785,-1.294,-29.326,-17.595,-5.865
3.025,-0.144,9.676,-0.671,-5.865,1.245,10.49,1.341,0.0,0.0,10.929,-1.294,-23.46,-23.46,0.0
3.0300000000000002,-0.048,9.867,-0.814,-5.865,1.102,10.73,1.389,0.0,-0.431,11.073,-1.438,-17.595,-17.595,0.0
3.035,0.048,10.059,-0.91,-5.865,1.054,10.969,1.341,0.0,-0.288,11.073,-1.438,-11.73,-17.595,-5.865
3.04,0.144,10.49,-0.862,-5.865,1.054,10.921,1.533,0.0,-0.288,10.929,-1.582,-11.73,-17.595,-5.865
3.045,0.192,10.73,-0.91,-5.865,1.15,10.825,1.677,-5.865,-0.144,10.641,-1.726,-11.73,-11.73,-5.865
3.0500000000000003,0.192,10.825,-1.102,-5.865,1.15,10.682,1.772,0.0,-0.144,10.21,-1.726,-11.73,-11.73,-5.865
3.055,0.144,10.825,-1.245,-5.865,1.054,10.538,1.772,-5.865,-0.144,10.066,-1.726,-17.595,-11.73,-5.865
3.06,0.24,10.825,-1.293,-5.865,1.054,10.442,1.724,-5.865,-0.144,10.066,-1.726,-23.46,-11.73,-5.865
3.065,0.287,10.73,-1.293,-5.865,1.006,10.346,1.772,-5.865,-0.144,9.922,-1.726,-23.46,-11.73,-5.865
3.0700000000000003,0.335,10.634,-1.245,-5.865,1.054,10.203,1.772,-5.865,-0.144,9.635,-1.726,-29.326,-11.73,-11.73
3.075,0.287,10.538,-1.293,-5.865,1.102,9.915,1.82,-5.865,-0.144,9.491,-1.869,-35.191,-11.73,-11.73
3.08,0.192,10.346,-1.293,-11.73,1.15,9.676,1.916,-5.865,0.0,9.347,-2.013,-41.056,-11.73,-5.865
3.085,0.192,10.059,-1.341,-11.73,1.198,9.628,2.06,-5.865,0.0,9.491,-2.013,-46.921,-11.73,-5.865
3.09,0.096,9.724,-1.437,-11.73,1.198,9.772,2.012,0.0,0.0,9.635,-2.013,-46.921,-11.73,-5.865
3.095,0.096,9.676,-1.533,-5.865,1.15,10.059,1.964,0.0,0.0,10.066,-2.013,-52.786,-11.73,0.0
3.1,0.096,9.915,-1.485,-5.865,1.245,10.346,2.06,0.0,0.144,10.497,-2.013,-52.786,-11.73,0.0
3.105,0.192,10.155,-1.485,-5.865,1.389,10.586,2.06,0.0,0.288,10.785,-2.013,-52.786,-11.73,0.0
3.11,0.048,10.299,-1.581,-5.865,1.245,10.634,2.108,0.0,0.431,10.641,-2.013,-52.786,-11.73,0.0
3.115,0.048,10.442,-1.629,-0.0,1.389,10.251,1.677,5.865,0.288,10.497,-1.438,-52.786,-17.595,0.0
3.12,0.335,10.394,-1.677,-0.0,1.102,8.957,0.862,5.865,0.0,9.922,-0.431,-46.921,-17.595,0.0
3.125,0.096,9.388,-1.006,-0.0,1.293,8.095,0.335,0.0,0.288,9.491,-0.288,-29.326,-17.595,0.0
3.13,0.24,7.329,-0.144,-0.0,1.677,9.484,1.293,0.0,0.863,10.066,-1.582,-17.595,-17.595,-5.865
3.1350000000000002,-0.096,7.425,0.096,-5.865,1.916,10.299,2.539,0.0,0.719,10.497,-2.732,-5.865,-17.595,0.0
3.14,-0.192,9.532,-1.15,-5.865,1.629,10.394,2.778,11.73,0.288,10.354,-2.588,-5.865,-23.46,11.73
3.145,-0.527,10.203,-2.251,-0.0,1.245,10.011,2.347,17.595,-0.288,10.21,-2.301,-5.865,-17.595,11.73
3.15,-0.24,10.155,-2.156,5.865,1.054,9.82,2.203,17.595,-0.288,10.066,-2.301,0.0,-17.595,11.73
3.1550000000000002,-0.048,9.628,-1.82,11.73,1.102,10.107,2.443,11.73,-0.144,10.066,-2.588,0.0,-17.595,5.865
3.16,0.144,9.676,-1.724,11.73,1.006,10.442,2.682,5.865,-0.144,10.21,-2.732,0.0,-11.73,0.0
3.165,0.24,10.107,-2.012,5.865,0.862,10.586,2.587,0.0,-0.431,10.21,-2.588,-5.865,-17.595,0.0
3.17,0.383,10.586,-2.203,-0.0,0.623,10.299,2.491,0.0,-0.719,9.922,-2.445,-5.865,-17.595,-5.865
3.1750000000000003,0.527,10.634,-2.108,-0.0,0.479,9.915,2.491,-5.865,-0.719,9.635,-2.445,-11.73,-17.595,-11.73
3.18,0.719,10.251,-2.012,-5.865,0.479,9.293,2.347,-11.73,-0.288,8.484,-2.157,-17.595,-17.595,-11.73
3.185,0.814,9.82,-1.964,-5.865,1.006,8.43,2.156,-11.73,0.288,7.909,-2.157,-23.46,-17.595,-17.595
3.19,0.862,9.436,-1.772,-17.595,0.527,8.622,2.443,-17.595,-1.15,8.916,-2.445,-29.326,-23.46,-17.595
3.1950000000000003,0.383,8.574,-1.677,-17.595,-0.144,9.484,2.539,-17.595,-1.438,9.635,-2.588,-29.326,-23.46,-17.595
3.2,0.91,8.766,-1.964,-17.595,0.192,9.58,2.73,-17.595,-1.007,9.491,-2.732,-29.326,-17.595,-23.46
3.205,1.15,9.388,-2.06,-23.46,0.527,8.766,2.635,-23.46,-0.144,8.34,-2.445,-29.326,-17.595,-23.46
3.21,1.006,9.293,-2.251,-23.46,0.91,8.574,2.299,-17.595,0.144,8.772,-2.301,-29.326,-17.595,-23.46
3.215,0.814,8.67,-2.06,-23.46,0.575,9.197,2.395,-11.73,-0.719,9.347,-2.445,-29.326,-23.46,-17.595
3.22,0.575,8.718,-1.82,-23.46,0.192,9.436,2.347,-11.73,-1.007,9.491,-2.301,-23.46,-23.46,-11.73
3.225,0.862,9.053,-1.916,-11.73,0.335,9.436,2.251,-11.73,-0.719,9.778,-2.301,-23.46,-23.46,-17.595
3.23,0.958,9.149,-1.772,-11.73,0.719,9.58,2.299,-17.595,-0.288,9.778,-2.301,-23.46,-23.46,-17.595
3.235,0.91,9.197,-1.772,-17.595,0.814,9.628,2.203,-17.595,-0.288,9.778,-2.013,-17.595,-23.46,-17.595
3.24,0.575,9.293,-1.82,-17.595,0.814,9.58,2.012,-17.595,-0.144,9.635,-2.013,-17.595,-29.326,-17.595
3.245,0.671,9.388,-1.677,-17.595,0.814,9.532,2.06,-11.73,-0.144,9.635,-2.013,-11.73,-29.326,-17.595
3.25,0.623,9.388,-1.533,-17.595,0.814,9.532,2.299,-11.73,-0.431,9.778,-2.301,-11.73,-29.326,-17.595
3.255,0.671,9.245,-1.629,-17.595,0.766,9.436,2.491,-11.73,-0.431,9.778,-2.588,-5.865,-29.326,-17.595
3.2600000000000002,0.479,9.101,-1.868,-17.595,0.671,9.388,2.73,-11.73,-0.575,9.491,-2.732,0.0,-29.326,-17.595
3.265,0.479,9.005,-2.012,-17.595,0.623,9.245,3.066,-17.595,-0.431,9.203,-3.164,0.0,-29.326,-17.595
3.27,0.623,9.053,-2.299,-17.595,0.719,9.245,3.257,-17.595,-0.431,9.203,-3.307,0.0,-29.326,-17.595
3.275,0.671,9.149,-2.635,-17.595,0.766,9.197,3.257,-11.73,-0.431,9.059,-3.307,0.0,-29.326,-17.595
3.2800000000000002,0.575,9.149,-2.778,-17.595,0.623,9.149,3.257,-11.73,-0.431,8.772,-3.307,0.0,-29.326,-17.595
3.285,0.575,9.149,-2.778,-17.595,0.671,9.053,3.401,-11.73,-0.288,8.628,-3.451,-5.865,-29.326,-17.595
3.29,0.671,9.197,-2.778,-17.595,0.719,8.957,3.545,-11.73,-0.288,8.484,-3.595,-5.865,-35.191,-17.595
3.295,0.671,9.245,-2.97,-17.595,0.814,8.957,3.545,-11.73,-0.288,8.34,-3.595,-11.73,-35.191,-17.595
3.3000000000000003,0.575,9.245,-3.018,-17.595,0.766,8.957,3.497,-11.73,-0.431,8.484,-3.451,-23.46,-35.191,-17.595
3.305,0.479,9.245,-3.066,-17.595,0.671,9.053,3.449,-11.73,-0.431,8.484,-3.451,-29.326,-35.191,-17.595
3.31,0.479,9.341,-2.97,-17.595,0.719,9.197,3.305,-17.595,-0.288,8.628,-3.307,-35.191,-35.191,-17.595
3.315,0.575,9.388,-2.922,-17.595,0.862,9.293,3.257,-17.595,-0.288,8.916,-3.307,-41.056,-35.191,-23.46
3.3200000000000003,0.479,9.532,-2.778,-17.595,0.814,9.245,3.114,-17.595,-0.288,8.916,-3.02,-46.921,-35.191,-23.46
3.325,0.431,9.436,-2.73,-23.46,0.862,9.245,2.922,-17.595,-0.288,9.059,-2.876,-52.786,-35.191,-23.46
3.33,0.431,9.341,-2.539,-23.46,0.958,9.101,2.73,-23.46,-0.144,9.059,-2.732,-52.786,-35.191,-23.46
3.335,0.383,9.197,-2.347,-23.46,0.958,8.862,2.539,-23.46,-0.144,8.916,-2.445,-52.786,-35.191,-23.46
3.34,0.335,8.862,-2.156,-23.46,0.958,8.622,2.491,-23.46,-0.144,8.772,-2.445,-52.786,-35.191,-23.46
3.345,0.287,8.574,-2.012,-23.46,1.102,8.478,2.395,-23.46,0.144,8.772,-2.301,-46.921,-35.191,-23.46
3.35,0.287,8.287,-1.964,-29.326,1.054,8.335,2.156,-17.595,0.0,8.772,-2.013,-46.921,-35.191,-23.46
3.355,0.24,8.047,-1.82,-23.46,0.958,8.143,1.916,-17.595,-0.144,8.772,-1.869,-41.056,-35.191,-23.46
3.36,0.383,7.808,-1.581,-23.46,0.958,7.951,1.724,-17.595,-0.144,8.628,-1.582,-29.326,-35.191,-17.595
3.365,0.383,7.52,-1.389,-17.595,0.862,7.808,1.533,-17.595,-0.144,8.484,-1.438,-23.46,-35.191,-17.595
3.37,0.383,7.233,-1.15,-17.595,0.766,7.76,1.437,-11.73,-0.288,8.34,-1.438,-11.73,-35.191,-11.73
3.375,0.479,7.089,-0.958,-17.595,0.91,7.712,1.389,-5.865,-0.144,8.197,-1.294,-5.865,-35.191,-11.73
3.38,0.575,7.233,-0.958,-11.73,0.623,7.76,1.677,-5.865,-0.431,7.909,-1.726,0.0,-35.191,-5.865
3.3850000000000002,0.383,7.281,-0.862,-11.73,0.623,7.808,2.108,0.0,-0.431,7.621,-2.157,0.0,-41.056,-5.865
3.39,0.766,7.616,-1.293,-5.865,0.527,7.808,2.299,0.0,-0.575,7.478,-2.301,0.0,-35.191,0.0
3.395,0.575,7.856,-1.629,-5.865,0.431,7.76,2.251,0.0,-0.719,7.478,-2.301,0.0,-35.191,0.0
3.4,0.719,7.904,-1.772,-0.0,0.335,7.76,2.347,0.0,-0.863,7.478,-2.445,0.0,-35.191,0.0
3.4050000000000002,0.766,7.951,-1.724,-0.0,0.335,7.808,2.347,0.0,-0.719,7.478,-2.301,-5.865,-35.191,0.0
3.41,0.814,7.951,-1.82,-0.0,0.383,7.951,2.299,5.865,-0.575,7.621,-2.301,-11.73,-35.191,0.0
3.415,0.814,8.095,-1.82,-0.0,0.479,7.999,2.203,5.865,-0.575,7.621,-2.157,-11.73,-35.191,0.0
3.42,0.862,8.191,-1.772,-0.0,0.431,8.095,2.156,5.865,-0.575,7.909,-2.157,-17.595,-35.191,5.865
3.4250000000000003,0.814,8.239,-1.677,-0.0,0.479,8.287,2.108,5.865,-0.575,8.34,-2.013,-23.46,-35.191,5.865
3.43,0.862,8.239,-1.677,5.865,0.431,8.526,2.012,5.865,-0.575,8.772,-2.013,-23.46,-35.191,5.865
3.435,0.862,8.287,-1.629,5.865,0.383,8.862,1.916,5.865,-0.719,9.203,-1.869,-23.46,-35.191,5.865
3.44,0.862,8.43,-1.485,5.865,0.335,9.197,1.868,5.865,-0.719,9.635,-1.869,-17.595,-35.191,5.865
3.4450000000000003,0.91,8.622,-1.389,5.865,0.431,9.628,1.916,5.865,-0.719,10.066,-2.013,-17.595,-35.191,0.0
3.45,0.958,8.957,-1.389,5.865,0.431,10.011,2.012,5.865,-0.719,10.354,-2.013,-11.73,-35.191,0.0
3.455,0.814,9.293,-1.533,-0.0,0.431,10.155,2.012,0.0,-0.719,10.497,-2.013,-5.865,-35.191,0.0
3.46,0.958,9.772,-1.533,-0.0,0.479,10.203,1.916,0.0,-0.719,10.641,-1.869,-5.865,-35.191,-5.865
3.465,0.862,9.82,-1.485,-0.0,0.527,10.299,1.868,0.0,-0.575,10.641,-1.869,0.0,-35.191,-5.865
3.47,0.91,9.772,-1.437,-0.0,0.527,10.394,2.012,0.0,-0.575,10.641,-2.013,0.0,-35.191,-5.865
3.475,0.862,9.915,-1.389,-5.865,0.479,10.442,2.203,0.0,-0.719,10.497,-2.301,11.73,-41.056,0.0
3.48,0.814,10.059,-1.581,-5.865,0.479,10.682,2.299,0.0,-0.719,10.497,-2.301,17.595,-41.056,0.0
3.485,0.862,10.299,-1.772,-5.865,0.335,10.442,2.347,0.0,-0.575,10.21,-2.157,17.595,-41.056,0.0
3.49,1.006,10.73,-1.82,-0.0,0.431,10.682,2.443,0.0,-0.863,10.497,-2.445,11.73,-41.056,0.0
3.495,1.006,10.825,-1.724,-0.0,0.144,10.778,2.395,0.0,-1.15,10.497,-2.445,0.0,-41.056,0.0
3.5,1.054,10.778,-1.964,-0.0,0.24,10.73,2.347,0.0,-1.007,10.354,-2.301,0.0,-41.056,0.0
3.505,1.15,10.921,-1.868,-0.0,0.048,10.49,2.203,0.0,-1.294,10.354,-2.301,0.0,-41.056,0.0
3.5100000000000002,1.102,10.73,-1.82,-0.0,-0.096,10.251,2.203,0.0,-1.294,10.21,-2.157,0.0,-41.056,-5.865
3.515,1.293,10.394,-1.724,-0.0,-0.048,10.011,2.108,0.0,-1.294,10.066,-2.157,0.0,-41.056,-5.865
3.52,1.293,10.011,-1.677,-0.0,-0.048,9.82,2.156,-5.865,-1.15,9.922,-2.157,0.0,-41.056,-5.865
3.525,1.293,9.724,-1.629,-5.865,-0.048,9.628,2.251,-5.865,-1.15,9.778,-2.301,0.0,-41.056,-5.865
3.5300000000000002,1.293,9.484,-1.724,-5.865,0.0,9.532,2.347,0.0,-1.15,9.778,-2.445,0.0,-41.056,-5.865
3.535,1.293,9.341,-1.772,-5.865,0.048,9.58,2.491,0.0,-1.15,9.922,-2.588,11.73,-41.056,0.0
3.54,1.245,9.197,-1.868,-5.865,0.048,9.82,2.587,0.0,-1.15,10.066,-2.588,17.595,-41.056,0.0
3.545,1.245,9.293,-2.012,-5.865,0.0,10.011,2.682,0.0,-1.15,10.066,-2.732,23.46,-35.191,0.0
3.5500000000000003,1.245,9.628,-2.108,-0.0,0.096,10.155,2.874,5.865,-1.15,10.21,-2.876,23.46,-35.191,0.0
3.555,1.245,9.867,-2.251,-0.0,0.048,10.251,2.922,5.865,-1.438,10.497,-3.02,23.46,-35.191,0.0
3.56,1.15,10.011,-2.395,-0.0,0.0,10.442,3.114,5.865,-1.007,10.354,-3.164,29.326,-35.191,0.0
3.565,1.198,10.059,-2.491,-0.0,0.431,10.346,3.257,0.0,-0.719,10.354,-3.307,29.326,-35.191,0.0
3.5700000000000003,1.245,10.299,-2.682,-0.0,0.431,10.299,3.449,5.865,-0.863,10.354,-3.451,29.326,-35.191,0.0
3.575,0.814,10.155,-2.826,-0.0,0.431,10.299,3.545,5.865,-0.863,10.354,-3.595,29.326,-35.191,5.865
3.58,0.862,10.107,-2.97,-0.0,0.527,10.346,3.688,5.865,-0.719,10.497,-3.739,29.326,-35.191,5.865
3.585,0.766,10.107,-3.066,5.865,0.527,10.394,3.784,11.73,-0.719,10.497,-3.883,35.191,-35.191,11.73
3.59,0.766,10.107,-3.209,5.865,0.527,10.394,3.832,11.73,-0.719,10.497,-3.883,35.191,-29.326,11.73
3.595,0.719,10.155,-3.305,5.865,0.575,10.442,3.88,17.595,-0.719,10.497,-3.883,35.191,-29.326,11.73
3.6,0.671,10.155,-3.353,11.73,0.575,10.538,3.88,17.595,-0.719,10.497,-3.883,41.056,-29.326,11.73
3.605,0.623,10.203,-3.401,11.73,0.527,10.682,3.784,17.595,-0.863,10.497,-3.883,41.056,-29.326,11.73
3.61,0.623,10.394,-3.353,17.595,0.527,10.778,3.88,17.595,-0.719,10.641,-3.883,41.056,-23.46,11.73
3.615,0.719,10.634,-3.305,17.595,0.623,10.873,3.976,17.595,-0.719,10.641,-4.026,35.191,-23.46,11.73
3.62,0.671,10.778,-3.401,11.73,0.575,10.825,3.928,11.73,-0.719,10.497,-3.883,35.191,-23.46,11.73
3.625,0.623,10.873,-3.449,11.73,0.479,10.825,3.88,11.73,-0.863,10.497,-3.883,29.326,-23.46,11.73
3.63,0.671,10.921,-3.401,11.73,0.479,10.682,3.832,11.73,-0.863,10.354,-3.739,29.326,-23.46,11.73
3.6350000000000002,0.766,10.825,-3.401,11.73,0.383,10.586,3.545,11.73,-0.863,10.354,-3.451,23.46,-17.595,5.865
3.64,0.766,10.682,-3.257,5.865,0.287,10.586,3.305,11.73,-1.007,10.354,-3.307,23.46,-17.595,5.865
3.645,0.91,10.538,-2.97,5.865,0.335,10.682,3.161,5.865,-0.863,10.497,-3.164,17.595,-17.595,0.0
3.65,1.054,10.634,-2.826,5.865,0.383,10.586,2.97,5.865,-0.719,10.354,-2.876,17.595,-17.595,0.0
3.6550000000000002,1.006,10.682,-2.682,5.865,0.383,10.49,2.635,5.865,-0.719,10.497,-2.588,11.73,-17.595,0.0
3.66,1.006,10.538,-2.395,-0.0,0.479,10.442,2.491,0.0,-0.575,10.497,-2.445,11.73,-23.46,0.0
3.665,1.006,10.346,-2.156,-0.0,0.719,10.442,2.587,0.0,-0.288,10.497,-2.588,17.595,-23.46,0.0
3.67,0.862,10.299,-2.012,-0.0,0.958,10.49,2.73,0.0,-0.144,10.497,-2.732,17.595,-23.46,0.0
3.6750000000000003,0.623,10.299,-2.156,-0.0,1.054,10.634,2.826,0.0,-0.144,10.641,-2.876,17.595,-23.46,0.0
3.68,0.431,10.394,-2.299,-0.0,1.054,10.921,2.97,5.865,-0.288,11.073,-3.02,11.73,-23.46,5.865
3.685,0.287,10.634,-2.347,-0.0,1.198,11.352,3.161,5.865,-0.144,11.504,-3.164,11.73,-23.46,5.865
3.69,0.24,10.921,-2.539,5.865,1.293,11.879,3.209,5.865,0.0,11.792,-3.164,11.73,-23.46,5.865
3.6950000000000003,0.048,11.352,-2.682,5.865,1.293,12.598,3.257,5.865,0.0,12.511,-3.307,11.73,-23.46,0.0
3.7,0.048,12.119,-2.73,5.865,1.437,12.837,3.257,0.0,0.144,13.23,-4.314,0.0,-23.46,0.0
3.705,0.048,12.837,-2.778,-0.0,1.677,-14.274,0.862,-11.73,-1.294,-13.805,2.732,70.381,-17.595,-23.46
3.71,-0.958,1.006,-3.832,-0.0,4.503,-7.904,-6.514,23.46,14.236,9.059,0.719,129.032,41.056,76.246
3.715,-4.646,-20.932,3.209,-23.46,5.03,14.562,4.311,193.548,0.575,21.282,-3.307,93.842,-5.865,193.548
3.72,1.964,10.825,-0.048,64.516,-2.108,13.077,1.006,146.628,-5.177,7.621,-1.007,117.302,-35.191,117.302
3.725,-2.635,11.975,-2.97,193.548,1.293,13.268,1.485,105.572,0.0,12.798,-2.157,123.167,-17.595,105.572
3.73,2.156,9.676,-0.096,123.167,4.072,11.592,5.461,99.707,5.896,6.902,-6.902,93.842,-11.73,82.111
3.735,-0.862,17.196,-1.389,105.572,0.719,11.496,7.137,58.651,-3.164,8.772,-6.615,52.786,-23.46,46.921
3.74,-2.491,11.352,-6.371,87.977,-0.671,11.544,5.94,35.191,-2.301,9.203,-6.327,17.595,-17.595,23.46
3.745,0.814,14.274,-5.94,52.786,1.341,9.82,6.035,5.865,0.575,7.765,-5.752,-17.595,-5.865,-5.865
3.75,0.91,12.358,-5.509,29.326,2.491,8.335,4.982,-23.46,1.582,6.615,-4.745,-46.921,-5.865,-35.191
3.755,-0.814,10.442,-5.221,-5.865,2.347,7.329,4.119,-35.191,1.438,6.327,-3.883,-64.516,0.0,-35.191
3.7600000000000002,-1.102,8.957,-4.263,-29.326,2.06,7.137,3.305,-29.326,1.438,6.902,-3.164,-76.246,-5.865,-23.46
3.765,-1.054,7.808,-3.305,-35.191,2.156,7.377,2.874,-17.595,1.582,7.765,-2.732,-82.111,-5.865,-17.595
3.77,-0.575,7.329,-2.682,-29.326,2.395,7.856,2.347,-11.73,1.869,8.628,-2.157,-82.111,-11.73,-11.73
3.775,-0.766,7.185,-2.203,-17.595,2.443,8.43,1.82,-5.865,1.869,9.347,-1.726,-76.246,-11.73,-11.73
3.7800000000000002,-0.814,7.472,-1.724,-17.595,2.539,8.957,1.581,-5.865,1.726,9.922,-1.438,-70.381,-17.595,-5.865
3.785,-0.814,7.951,-1.293,-11.73,2.443,9.293,1.389,0.0,1.438,10.21,-1.294,-58.651,-23.46,0.0
3.79,-1.006,8.335,-1.054,-5.865,2.491,9.436,1.389,0.0,1.582,10.354,-1.294,-52.786,-23.46,0.0
3.795,-1.006,8.526,-0.91,-5.865,2.778,9.532,1.389,0.0,1.726,10.354,-1.294,-41.056,-29.326,0.0
3.8000000000000003,-1.15,8.718,-0.862,-0.0,2.922,9.628,1.341,0.0,1.869,10.354,-1.15,-29.326,-29.326,0.0
3.805,-1.437,8.862,-0.91,-0.0,3.066,9.628,1.293,0.0,2.013,10.21,-1.15,-23.46,-29.326,-5.865
3.81,-1.581,9.053,-0.814,-5.865,3.161,9.532,1.293,0.0,2.301,10.066,-1.294,-17.595,-29.326,-5.865
3.815,-1.772,9.005,-0.766,-5.865,3.305,9.484,1.389,0.0,2.445,9.922,-1.294,-11.73,-29.326,0.0
3.8200000000000003,-1.82,9.005,-0.814,-5.865,3.401,9.484,1.533,0.0,2.445,9.922,-1.438,-5.865,-29.326,0.0
3.825,-1.964,9.053,-0.91,-5.865,3.497,9.436,1.533,0.0,2.588,9.778,-1.438,-5.865,-29.326,0.0
3.83,-1.964,9.101,-1.054,-5.865,3.545,9.341,1.677,0.0,2.732,9.635,-1.582,0.0,-29.326,0.0
3.835,-2.012,9.101,-1.102,-0.0,3.497,9.293,1.724,5.865,2.588,9.491,-1.726,0.0,-35.191,5.865
3.84,-2.012,9.005,-1.198,-0.0,3.401,9.245,1.868,5.865,2.445,9.491,-1.869,0.0,-35.191,5.865
3.845,-2.012,9.053,-1.293,5.865,3.257,9.149,2.012,5.865,2.301,9.347,-2.013,0.0,-35.191,5.865
3.85,-1.916,8.957,-1.437,5.865,3.257,8.909,2.012,5.865,2.301,9.059,-2.013,0.0,-35.191,5.865
3.855,-1.868,8.814,-1.533,5.865,3.209,8.574,2.012,5.865,2.301,8.916,-2.013,0.0,-41.056,0.0
3.86,-1.868,8.574,-1.533,5.865,3.209,8.335,2.06,5.865,2.301,8.628,-2.013,0.0,-41.056,0.0
3.865,-1.82,8.191,-1.533,-0.0,3.114,8.047,2.203,5.865,2.013,8.34,-2.301,11.73,-41.056,0.0
3.87,-1.82,7.856,-1.581,5.865,3.018,7.808,2.539,5.865,2.013,7.909,-2.588,17.595,-41.056,0.0
3.875,-1.724,7.664,-1.772,-0.0,2.922,7.664,2.826,5.865,1.869,7.621,-2.876,17.595,-41.056,0.0
3.88,-1.677,7.568,-2.06,-0.0,2.682,7.664,3.114,5.865,1.582,7.621,-3.164,17.595,-41.056,5.865
3.8850000000000002,-1.581,7.568,-2.395,-0.0,2.491,7.808,3.257,11.73,1.294,7.765,-3.307,11.73,-41.056,5.865
3.89,-1.389,7.664,-2.587,5.865,2.299,8.095,3.401,11.73,1.15,8.053,-3.451,11.73,-41.056,11.73
3.895,-1.245,7.856,-2.778,5.865,2.203,8.43,3.401,11.73,1.15,8.34,-3.451,0.0,-35.191,5.865
3.9,-1.102,8.143,-2.874,5.865,2.108,8.622,3.449,5.865,1.007,8.484,-3.451,0.0,-35.191,5.865
3.9050000000000002,-0.958,8.478,-2.874,5.865,1.916,8.718,3.497,5.865,0.719,8.628,-3.451,0.0,-35.191,0.0
3.91,-0.814,8.67,-2.97,5.865,1.724,8.814,3.353,5.865,0.575,8.772,-3.307,0.0,-35.191,0.0
3.915,-0.671,8.718,-2.922,5.865,1.677,9.005,3.161,0.0,0.575,9.059,-3.02,-5.865,-35.191,0.0
3.92,-0.527,8.766,-2.826,-0.0,1.677,9.197,2.922,0.0,0.575,9.203,-2.732,-5.865,-35.191,0.0
3.9250000000000003,-0.431,8.957,-2.587,-0.0,1.581,9.436,2.682,0.0,0.431,9.491,-2.588,-5.865,-35.191,-5.865
3.93,-0.335,9.149,-2.347,-5.865,1.581,9.628,2.395,-5.865,0.431,9.635,-2.301,-5.865,-29.326,-5.865
3.935,-0.287,9.388,-2.108,-5.865,1.533,9.82,2.203,-5.865,0.288,9.922,-2.157,-5.865,-35.191,-5.865
3.94,-0.24,9.628,-1.82,-5.865,1.485,10.011,1.964,-5.865,0.288,10.066,-1.869,-11.73,-35.191,-5.865
3.9450000000000003,-0.192,9.772,-1.677,-5.865,1.389,10.059,1.82,-5.865,0.144,10.066,-1.726,-11.73,-35.191,-11.73
3.95,-0.144,9.915,-1.389,-5.865,1.389,10.107,1.677,-11.73,0.288,10.066,-1.582,-11.73,-29.326,-11.73
3.955,-0.096,9.915,-1.293,-11.73,1.485,10.299,1.389,-11.73,0.288,10.21,-1.294,-11.73,-29.326,-11.73
3.96,-0.144,10.059,-1.102,-11.73,1.198,10.203,0.766,-11.73,0.0,9.491,-0.288,-11.73,-29.326,-17.595
3.9650000000000003,-0.096,10.299,-0.862,-17.595,1.533,9.915,0.479,-17.595,0.575,9.778,-0.144,-17.595,-35.191,-17.595
3.97,0.24,10.586,0.24,-17.595,1.677,9.388,0.048,-17.595,0.575,9.491,-0.144,-17.595,-35.191,-23.46
3.975,-0.096,9.628,0.096,-17.595,1.533,8.909,0.0,-23.46,0.288,9.059,0.144,-17.595,-35.191,-23.46
3.98,-0.383,8.909,0.431,-17.595,1.437,8.526,-0.192,-23.46,0.144,8.916,0.288,-11.73,-35.191,-23.46
3.985,-0.24,8.478,0.527,-23.46,1.533,8.095,-0.287,-23.46,0.575,8.772,0.431,-5.865,-35.191,-23.46
3.99,-0.24,7.904,0.719,-23.46,1.677,7.856,-0.383,-17.595,0.863,8.34,0.575,0.0,-29.326,-23.46
3.995,-0.335,7.425,0.814,-23.46,1.772,7.664,-0.671,-17.595,1.007,8.197,0.863,0.0,-29.326,-17.595
4.0,-0.335,7.233,0.958,-23.46,1.82,7.664,-0.814,-17.595,1.007,8.053,1.007,17.595,-35.191,-17.595
4.005,-0.383,7.281,1.198,-23.46,1.82,7.664,-0.91,-11.73,1.007,8.053,1.007,23.46,-35.191,-11.73
4.01,-0.383,7.329,1.341,-17.595,1.82,7.808,-0.958,-5.865,1.007,8.053,1.15,23.46,-35.191,-5.865
4.015,-0.383,7.472,1.437,-11.73,1.82,8.047,-1.102,-5.865,0.863,8.197,1.294,23.46,-41.056,-5.865
4.0200000000000005,-0.383,7.76,1.485,-5.865,1.772,8.335,-1.245,0.0,1.007,8.34,1.294,29.326,-41.056,0.0
4.025,-0.335,8.095,1.629,-5.865,1.868,8.574,-1.293,0.0,1.15,8.34,1.438,23.46,-46.921,0.0
4.03,-0.287,8.478,1.772,-5.865,2.012,8.718,-1.198,-5.865,1.294,8.34,1.294,23.46,-46.921,-5.865
4.035,-0.383,8.814,1.772,-5.865,2.06,8.814,-1.054,-5.865,1.294,8.484,1.15,17.595,-52.786,-5.865
4.04,-0.479,9.005,1.677,-5.865,2.203,8.862,-0.814,-5.865,1.438,8.484,0.863,11.73,-58.651,-5.865
4.045,-0.575,9.101,1.485,-5.865,2.299,9.005,-0.623,-5.865,1.438,8.772,0.575,0.0,-58.651,-11.73
4.05,-0.766,9.149,1.293,-5.865,2.251,9.197,-0.431,-11.73,1.438,9.059,0.431,0.0,-64.516,-11.73
4.055,-0.814,9.293,1.102,-11.73,2.299,9.388,-0.287,-11.73,1.438,9.347,0.288,-5.865,-64.516,-11.73
4.0600000000000005,-0.766,9.436,0.91,-11.73,2.203,9.484,-0.096,-11.73,1.438,9.635,-0.0,-11.73,-70.381,-17.595
4.065,-0.766,9.388,0.766,-11.73,2.251,9.436,0.335,-11.73,1.438,9.778,-0.431,-11.73,-70.381,-17.595
4.07,-0.671,9.341,0.527,-11.73,2.156,9.341,0.958,-11.73,1.294,9.778,-1.15,-5.865,-76.246,-17.595
4.075,-0.671,9.149,0.048,-17.595,1.964,9.293,1.916,-17.595,1.007,9.778,-2.301,-5.865,-82.111,-17.595
4.08,-0.575,8.957,-0.671,-17.595,1.677,9.149,3.161,-11.73,0.575,9.778,-3.595,0.0,-82.111,-11.73
4.085,-0.431,8.766,-1.677,-17.595,1.341,9.005,4.838,-11.73,0.0,9.778,-5.321,11.73,-82.111,-11.73
4.09,-0.24,8.43,-3.018,-11.73,1.102,8.862,6.706,-5.865,-0.575,9.635,-7.334,23.46,-82.111,-11.73
4.095,-0.048,8.191,-4.694,-11.73,0.862,8.814,8.718,-5.865,-1.15,9.635,-9.491,35.191,-76.246,-5.865
4.1,-0.096,7.999,-6.61,-5.865,0.527,8.862,10.682,0.0,-1.869,9.635,-11.36,41.056,-64.516,0.0
4.105,-0.192,7.856,-8.622,-5.865,0.24,9.149,12.31,5.865,-2.588,9.778,-12.798,52.786,-52.786,5.865
4.11,-0.24,7.951,-10.442,-0.0,-0.048,9.532,13.364,11.73,-3.02,9.922,-13.661,64.516,-29.326,11.73
4.115,-0.24,8.383,-11.927,5.865,-0.24,9.915,13.652,11.73,-3.164,9.778,-13.805,70.381,-5.865,11.73
4.12,-0.144,9.005,-12.789,11.73,-0.24,10.203,13.173,17.595,-2.876,9.778,-13.086,70.381,17.595,17.595
4.125,0.096,9.676,-12.885,11.73,-0.096,10.49,12.358,17.595,-2.445,9.778,-12.223,70.381,41.056,17.595
4.13,0.24,10.251,-12.31,17.595,-0.096,10.634,11.544,17.595,-2.445,9.922,-11.504,58.651,58.651,17.595
4.135,0.383,10.73,-11.496,17.595,-0.144,10.586,10.682,17.595,-2.301,9.778,-10.497,52.786,70.381,17.595
4.14,0.431,10.873,-10.73,17.595,0.048,10.346,9.58,17.595,-1.869,9.635,-9.347,46.921,87.977,11.73
4.1450000000000005,0.527,10.73,-9.82,17.595,0.383,10.011,8.335,11.73,-1.294,9.347,-8.053,35.191,93.842,11.73
4.15,0.527,10.442,-8.67,11.73,0.671,9.676,7.089,11.73,-0.863,9.203,-6.759,29.326,105.572,5.865
4.155,0.335,10.107,-7.377,11.73,0.958,9.532,5.844,11.73,-0.575,9.203,-5.608,23.46,111.437,5.865
4.16,0.144,9.772,-6.131,5.865,1.15,9.341,4.503,11.73,-0.288,8.916,-4.17,17.595,117.302,11.73
4.165,-0.096,9.58,-4.934,5.865,1.341,9.149,2.97,17.595,0.144,8.916,-2.588,17.595,123.167,11.73
4.17,-0.192,9.484,-3.545,5.865,1.629,9.149,1.15,17.595,0.719,9.203,-0.575,11.73,129.032,11.73
4.175,-0.192,9.101,-1.964,11.73,1.916,9.436,-0.814,17.595,1.294,9.491,1.438,0.0,129.032,11.73
4.18,-0.287,9.245,-0.096,11.73,2.251,9.82,-2.682,17.595,1.869,9.922,3.307,0.0,123.167,11.73
4.1850000000000005,-0.335,9.532,1.772,11.73,2.443,10.49,-4.359,11.73,2.301,10.641,5.033,0.0,117.302,5.865
4.19,-0.383,10.059,3.545,11.73,2.539,11.113,-5.94,11.73,2.588,11.216,6.615,0.0,105.572,5.865
4.195,-0.287,10.778,5.173,5.865,2.778,11.544,-7.281,5.865,2.876,11.504,7.765,0.0,87.977,0.0
4.2,-0.24,11.448,6.61,5.865,3.066,11.831,-8.335,0.0,3.164,11.792,8.916,-5.865,70.381,0.0
4.205,-0.335,11.831,7.808,-0.0,3.257,11.927,-9.149,0.0,3.451,11.935,9.635,-5.865,52.786,-5.865
4.21,-0.527,12.071,8.814,-5.865,3.353,12.023,-9.58,0.0,3.595,11.935,9.922,-11.73,35.191,-5.865
4.215,-0.719,12.215,9.484,-5.865,3.401,12.167,-9.58,-5.865,3.595,11.935,9.778,-11.73,17.595,-11.73
4.22,-0.766,12.406,9.772,-5.865,3.401,12.167,-9.341,-5.865,3.451,11.648,9.491,-23.46,-5.865,-11.73
4.225,-0.862,12.55,9.772,-11.73,3.353,12.167,-8.957,-5.865,3.164,11.648,8.916,-29.326,-23.46,-11.73
4.23,-0.91,12.646,9.532,-11.73,3.257,11.975,-8.335,-11.73,3.02,11.504,8.34,-35.191,-35.191,-11.73
4.235,-0.958,12.694,9.053,-11.73,3.305,11.783,-7.616,-11.73,3.02,11.216,7.478,-46.921,-52.786,-17.595
4.24,-1.054,12.454,8.478,-11.73,3.305,11.688,-6.61,-17.595,3.02,11.216,6.327,-52.786,-64.516,-17.595
4.245,-1.102,12.31,7.712,-17.595,3.114,11.544,-5.317,-17.595,2.876,11.36,5.033,-58.651,-76.246,-17.595
4.25,-1.054,12.119,6.658,-17.595,2.874,11.4,-3.64,-17.595,2.301,11.504,3.164,-64.516,-93.842,-17.595
4.255,-0.814,11.831,5.269,-17.595,2.539,11.209,-1.485,-17.595,1.726,11.504,0.863,-70.381,-105.572,-17.595
4.26,-0.719,11.352,3.545,-17.595,2.299,10.921,0.958,-17.595,1.294,11.648,-1.726,-64.516,-111.437,-17.595
4.265,-0.671,10.778,1.437,-17.595,2.06,10.538,3.593,-17.595,0.719,11.504,-4.458,-58.651,-117.302,-17.595
4.2700000000000005,-0.719,10.155,-1.054,-17.595,1.82,10.155,6.179,-17.595,0.0,11.216,-7.046,-46.921,-117.302,-17.595
4.275,-0.766,9.532,-3.64,-17.595,1.677,9.772,8.43,-11.73,-0.575,10.929,-9.203,-29.326,-111.437,-5.865
4.28,-0.91,8.909,-6.131,-17.595,1.054,9.197,10.586,0.0,-1.438,10.066,-11.216,-11.73,-99.707,0.0
4.285,-1.102,8.335,-8.335,-5.865,0.91,8.957,12.119,11.73,-1.726,9.778,-12.654,0.0,-82.111,11.73
4.29,-0.671,7.904,-10.299,-0.0,0.383,9.053,13.268,23.46,-2.445,9.635,-13.661,17.595,-64.516,23.46
4.295,-0.814,7.904,-11.736,11.73,0.0,9.484,13.987,29.326,-2.588,9.635,-14.236,23.46,-41.056,29.326
4.3,-0.287,8.335,-12.789,23.46,-0.096,10.011,14.178,35.191,-2.588,9.778,-14.236,29.326,-23.46,35.191
4.305,-0.048,9.101,-13.412,29.326,-0.144,10.394,13.987,35.191,-2.445,9.635,-13.949,29.326,0.0,35.191
4.3100000000000005,0.24,9.963,-13.556,29.326,-0.144,10.49,13.508,35.191,-2.157,9.491,-13.517,23.46,17.595,35.191
4.315,0.479,10.634,-13.268,35.191,0.0,10.107,12.981,35.191,-2.013,9.059,-12.942,11.73,29.326,35.191
4.32,0.527,10.825,-12.789,35.191,0.192,9.628,12.454,41.056,-1.869,8.916,-12.367,0.0,46.921,35.191
4.325,0.335,10.251,-12.262,35.191,0.192,9.149,11.64,41.056,-1.869,8.772,-11.36,-5.865,58.651,41.056
4.33,0.24,9.628,-11.688,35.191,0.24,9.005,10.49,41.056,-1.582,8.916,-10.21,-11.73,70.381,41.056
4.335,0.287,8.957,-10.73,41.056,0.335,9.101,9.293,46.921,-1.438,9.203,-9.059,-11.73,82.111,41.056
4.34,0.287,8.718,-9.58,41.056,0.431,9.293,8.047,41.056,-1.007,9.347,-7.765,-11.73,93.842,35.191
4.345,0.287,8.814,-8.383,41.056,0.862,9.293,6.754,41.056,-0.288,9.203,-6.471,-11.73,99.707,35.191
4.3500000000000005,0.383,9.053,-7.089,35.191,1.198,9.197,5.461,41.056,0.431,9.059,-5.033,-11.73,105.572,35.191
4.355,0.24,9.149,-5.844,35.191,1.437,9.149,4.215,35.191,0.719,9.203,-3.883,-11.73,105.572,35.191
4.36,0.192,9.053,-4.598,35.191,1.533,9.293,3.161,35.191,0.863,9.491,-2.876,-11.73,99.707,35.191
4.365,0.096,9.053,-3.449,35.191,1.581,9.341,2.347,41.056,1.007,9.635,-2.013,-11.73,93.842,35.191
4.37,0.048,9.101,-2.443,35.191,1.772,9.341,1.677,41.056,1.294,9.635,-1.438,-5.865,87.977,35.191
4.375,0.048,9.005,-1.724,35.191,2.012,9.484,1.245,41.056,1.438,9.778,-1.15,0.0,82.111,35.191
4.38,-0.096,9.053,-1.054,35.191,2.06,9.676,1.054,41.056,1.294,9.922,-1.007,0.0,76.246,35.191
4.385,-0.335,9.293,-0.719,35.191,2.06,9.82,0.91,41.056,1.15,10.066,-0.863,0.0,70.381,35.191
4.39,-0.431,9.484,-0.527,35.191,2.108,10.107,0.814,41.056,1.15,10.21,-0.719,0.0,64.516,35.191
4.3950000000000005,-0.527,9.724,-0.383,35.191,2.156,10.394,0.623,35.191,1.294,10.354,-0.431,0.0,64.516,29.326
4.4,-0.623,10.059,-0.287,35.191,2.443,10.682,0.335,29.326,1.582,10.641,-0.144,0.0,58.651,23.46
4.405,-0.719,10.49,-0.048,29.326,2.73,10.921,-0.144,29.326,1.869,10.785,0.431,0.0,58.651,23.46
4.41,-0.862,10.825,0.24,29.326,2.778,10.873,-0.671,23.46,2.157,10.929,0.863,-5.865,52.786,23.46
4.415,-0.958,11.017,0.719,23.46,2.826,10.921,-0.814,23.46,2.013,10.929,1.007,-5.865,46.921,17.595
4.42,-1.15,11.017,1.15,23.46,2.778,10.921,-0.958,17.595,2.013,11.073,1.007,-11.73,41.056,17.595
4.425,-1.054,10.825,1.293,17.595,2.682,10.873,-0.91,17.595,1.869,11.073,1.007,-5.865,35.191,11.73
4.43,-1.102,10.873,1.389,11.73,2.73,10.921,-0.814,17.595,1.869,11.216,0.863,-5.865,29.326,11.73
4.4350000000000005,-1.054,10.682,1.341,11.73,2.587,11.209,-0.766,11.73,1.582,11.36,0.863,-5.865,23.46,11.73
4.44,-1.054,10.778,1.245,11.73,2.443,11.448,-0.479,5.865,1.438,11.504,0.575,-5.865,23.46,0.0
4.445,-0.862,11.161,1.15,5.865,2.539,11.592,-0.144,0.0,1.726,11.648,0.144,-11.73,17.595,0.0
4.45,-0.814,11.448,0.862,-0.0,2.587,11.592,0.144,-5.865,1.582,11.648,-0.144,-11.73,11.73,-5.865
4.455,-0.958,11.496,0.479,-5.865,2.395,11.544,0.287,-5.865,1.294,11.504,-0.288,-11.73,5.865,-11.73
4.46,-0.958,11.496,0.24,-5.865,2.299,11.352,0.383,-11.73,1.15,11.36,-0.431,-11.73,5.865,-17.595
4.465,-0.862,11.4,0.144,-11.73,2.251,11.065,0.575,-17.595,1.15,11.073,-0.575,-11.73,0.0,-17.595
4.47,-0.766,11.209,0.048,-11.73,2.203,10.778,0.766,-17.595,1.15,10.785,-0.863,-11.73,0.0,-23.46
4.4750000000000005,-0.766,10.825,-0.192,-17.595,2.108,10.49,1.054,-23.46,1.007,10.497,-1.007,-11.73,0.0,-23.46
4.48,-0.719,10.538,-0.383,-23.46,2.108,10.203,1.341,-29.326,0.863,10.21,-1.438,-11.73,0.0,-29.326
4.485,-0.719,10.299,-0.623,-29.326,1.964,9.915,1.533,-29.326,0.719,9.778,-1.582,-11.73,0.0,-35.191
4.49,-0.719,9.963,-0.91,-29.326,1.82,9.628,1.724,-29.326,0.575,9.491,-1.726,-17.595,0.0,-35.191
4.495,-0.623,9.724,-1.102,-29.326,1.677,9.436,2.012,-29.326,0.431,9.491,-2.013,-17.595,0.0,-35.191
4.5,-0.527,9.436,-1.293,-35.191,1.677,9.341,2.299,-35.191,0.431,9.347,-2.301,-17.595,0.0,-35.191
4.505,-0.479,9.197,-1.581,-35.191,1.581,9.341,2.491,-35.191,0.144,9.491,-2.588,-17.595,0.0,-35.191
4.51,-0.479,9.149,-1.868,-35.191,1.389,9.245,2.587,-29.326,0.288,8.197,-2.732,-11.73,5.865,-35.191
4.515,-0.383,9.101,-2.012,-35.191,3.305,-1.868,-0.144,-29.326,2.876,2.732,0.863,-5.865,11.73,-41.056
4.5200000000000005,-0.335,7.281,-2.251,-29.326,0.383,6.035,0.479,-35.191,-0.288,5.177,-0.863,11.73,11.73,-35.191
4.525,-1.293,1.485,1.293,-35.191,2.73,5.7,1.341,5.865,2.157,7.334,-1.15,11.73,5.865,11.73
4.53,0.431,6.371,-0.287,-29.326,1.82,6.562,0.623,23.46,0.288,7.765,-0.431,23.46,5.865,17.595
4.535,-1.485,4.646,-0.766,11.73,0.862,7.856,1.15,11.73,-0.575,8.053,-1.582,35.191,5.865,5.865
4.54,-0.144,6.323,-0.048,11.73,1.437,8.143,2.108,0.0,0.431,7.909,-2.301,35.191,5.865,0.0
4.545,0.096,7.76,-0.91,5.865,1.724,8.287,2.443,0.0,0.719,7.334,-2.445,35.191,11.73,-5.865
4.55,-0.431,8.383,-1.724,-0.0,1.629,8.191,2.491,0.0,0.719,7.334,-2.445,23.46,11.73,-5.865
4.555,-0.431,8.862,-1.916,-5.865,1.677,8.047,2.395,-5.865,0.575,7.621,-2.301,11.73,11.73,-5.865
4.5600000000000005,-0.383,8.67,-1.964,-5.865,1.629,7.904,2.251,-5.865,0.575,7.765,-2.157,0.0,11.73,-5.865
4.565,-0.479,8.287,-1.82,-5.865,1.629,7.808,2.156,-11.73,0.719,7.909,-2.157,0.0,11.73,-11.73
4.57,-0.383,7.856,-1.724,-5.865,1.772,7.808,2.108,-11.73,1.007,7.909,-2.013,0.0,11.73,-11.73
4.575,-0.383,7.664,-1.629,-11.73,1.868,7.856,2.06,-11.73,1.007,7.909,-2.013,0.0,11.73,-11.73
4.58,-0.431,7.76,-1.629,-11.73,1.82,7.999,2.012,-5.865,0.863,7.909,-2.013,0.0,5.865,-5.865
4.585,-0.479,7.856,-1.533,-11.73,1.772,8.191,2.108,0.0,0.719,8.197,-2.157,-5.865,5.865,-5.865
4.59,-0.431,8.047,-1.533,-5.865,1.724,8.43,2.203,0.0,0.575,8.34,-2.157,-5.865,5.865,0.0
4.595,-0.479,8.239,-1.629,-5.865,1.581,8.67,2.203,0.0,0.575,8.628,-2.157,-11.73,5.865,0.0
4.6000000000000005,-0.383,8.526,-1.724,-0.0,1.581,8.862,2.156,0.0,0.575,8.772,-2.157,-11.73,5.865,0.0
4.605,-0.287,8.718,-1.677,-0.0,1.533,8.957,2.108,0.0,0.575,8.916,-2.013,-11.73,5.865,0.0
4.61,-0.192,8.862,-1.629,-0.0,1.533,9.005,2.012,5.865,0.431,9.059,-1.869,-11.73,5.865,0.0
4.615,-0.192,8.909,-1.581,-0.0,1.485,9.005,1.82,5.865,0.431,9.059,-1.726,-11.73,0.0,0.0
4.62,-0.144,8.909,-1.485,-0.0,1.389,8.957,1.677,5.865,0.288,9.203,-1.582,-11.73,0.0,0.0
4.625,-0.096,8.814,-1.293,-0.0,1.389,9.005,1.533,5.865,0.288,9.203,-1.438,-11.73,0.0,5.865
4.63,-0.048,8.766,-1.15,-0.0,1.485,9.053,1.533,5.865,0.431,9.347,-1.438,-11.73,0.0,5.865
4.635,-0.096,8.718,-1.054,-0.0,1.485,9.149,1.485,5.865,0.431,9.491,-1.438,-5.865,0.0,5.865
4.64,-0.144,8.766,-1.054,-0.0,1.485,9.245,1.389,5.865,0.431,9.491,-1.294,-5.865,0.0,5.865
4.6450000000000005,-0.144,8.909,-0.958,5.865,1.485,9.341,1.245,11.73,0.431,9.635,-1.15,0.0,0.0,5.865
4.65,-0.096,9.005,-0.862,5.865,1.533,9.388,1.198,11.73,0.431,9.778,-1.15,0.0,0.0,11.73
4.655,-0.144,9.053,-0.766,5.865,1.629,9.436,1.198,11.73,0.575,9.778,-1.15,0.0,0.0,11.73
4.66,-0.192,9.053,-0.719,11.73,1.724,9.58,1.245,11.73,0.719,9.778,-1.15,0.0,0.0,11.73
4.665,-0.287,9.149,-0.766,11.73,1.82,9.724,1.245,11.73,0.863,9.922,-1.15,11.73,0.0,11.73
4.67,-0.383,9.388,-0.766,11.73,1.916,9.82,1.293,11.73,0.863,10.066,-1.15,17.595,-5.865,11.73
4.675,-0.431,9.532,-0.814,11.73,1.964,9.867,1.293,17.595,1.007,10.066,-1.15,17.595,-5.865,11.73
4.68,-0.527,9.628,-0.814,11.73,2.012,9.915,1.293,17.595,1.007,10.066,-1.294,17.595,-5.865,11.73
4.6850000000000005,-0.575,9.676,-0.814,11.73,1.964,9.915,1.389,17.595,0.863,10.066,-1.294,17.595,-5.865,11.73
4.69,-0.575,9.724,-0.862,11.73,1.964,9.915,1.533,17.595,0.863,10.066,-1.582,23.46,-5.865,11.73
4.695,-0.575,9.676,-0.958,11.73,1.916,10.011,1.724,17.595,0.863,10.066,-1.726,23.46,-11.73,11.73
4.7,-0.527,9.724,-1.102,11.73,1.868,10.059,1.916,17.595,0.719,10.066,-1.869,23.46,-11.73,11.73
4.705,-0.479,9.867,-1.293,11.73,1.772,10.155,2.06,11.73,0.719,10.066,-2.013,23.46,-11.73,11.73
4.71,-0.431,9.963,-1.485,11.73,1.724,10.203,2.203,11.73,0.575,10.066,-2.301,23.46,-11.73,11.73
4.715,-0.335,10.107,-1.581,11.73,1.677,10.251,2.347,11.73,0.575,10.066,-2.445,17.595,-11.73,11.73
4.72,-0.287,10.203,-1.772,11.73,1.724,10.251,2.491,11.73,0.575,10.066,-2.588,17.595,-17.595,5.865
4.7250000000000005,-0.335,10.203,-1.916,5.865,1.724,10.299,2.682,11.73,0.575,10.21,-2.732,17.595,-17.595,5.865
4.73,-0.335,10.299,-2.06,5.865,1.724,10.394,2.778,5.865,0.575,10.21,-2.732,11.73,-17.595,5.865
4.735,-0.383,10.299,-2.203,5.865,1.82,10.49,2.826,5.865,0.719,10.354,-2.876,0.0,-17.595,5.865
4.74,-0.383,10.49,-2.251,5.865,1.964,10.586,2.874,5.865,0.863,10.497,-2.876,0.0,-17.595,5.865
4.745,-0.479,10.538,-2.347,5.865,2.012,10.682,2.922,5.865,0.863,10.497,-2.876,0.0,-17.595,0.0
4.75,-0.575,10.634,-2.443,-0.0,2.156,10.778,2.922,5.865,1.15,10.641,-2.876,0.0,-17.595,5.865
4.755,-0.623,10.778,-2.443,-0.0,2.443,10.921,2.826,5.865,1.582,10.354,-2.445,-5.865,-23.46,0.0
4.76,-0.766,10.825,-2.443,-0.0,2.874,11.161,2.539,5.865,2.301,11.073,-2.445,-5.865,-23.46,5.865
4.765,-1.006,11.304,-2.06,-0.0,3.401,11.209,2.443,0.0,2.157,11.36,-2.588,-11.73,-29.326,0.0
4.7700000000000005,-1.245,11.209,-2.108,-0.0,3.161,11.4,3.018,0.0,1.869,11.648,-3.164,-17.595,-35.191,0.0
4.775,-1.964,11.161,-2.06,-0.0,3.257,11.352,3.401,5.865,2.013,11.648,-3.451,-17.595,-29.326,5.865
4.78,-1.868,11.065,-2.682,-0.0,3.305,11.257,3.545,5.865,2.157,11.504,-3.595,-11.73,-29.326,5.865
4.785,-2.06,10.921,-3.018,5.865,3.353,11.257,3.545,5.865,2.157,11.504,-3.595,-11.73,-29.326,5.865
4.79,-1.964,10.921,-3.114,5.865,3.305,11.161,3.593,5.865,2.157,11.36,-3.451,-11.73,-29.326,5.865
4.795,-2.012,10.969,-3.114,5.865,3.209,11.065,3.545,5.865,2.013,11.073,-3.595,-11.73,-29.326,5.865
4.8,-1.868,10.873,-3.066,5.865,3.066,10.873,3.545,5.865,1.869,10.785,-3.451,-11.73,-29.326,0.0
4.805,-1.772,10.778,-3.018,5.865,2.922,10.538,3.545,5.865,1.726,10.497,-3.595,-11.73,-29.326,0.0
4.8100000000000005,-1.629,10.634,-3.066,-0.0,2.778,10.107,3.64,0.0,1.582,10.066,-3.595,-11.73,-29.326,0.0
4.815,-1.533,10.299,-3.066,-0.0,2.635,9.676,3.688,0.0,1.438,9.635,-3.739,-11.73,-29.326,-5.865
4.82,-1.437,9.867,-3.114,-5.865,2.587,9.197,3.688,-5.865,1.294,9.203,-3.739,-11.73,-29.326,-5.865
4.825,-1.389,9.388,-3.209,-5.865,2.491,8.766,3.64,-5.865,1.294,8.772,-3.595,-11.73,-23.46,-5.865
4.83,-1.341,8.909,-3.161,-5.865,2.443,8.43,3.545,-5.865,1.294,8.484,-3.451,-11.73,-23.46,-5.865
4.835,-1.245,8.43,-3.114,-5.865,2.443,8.191,3.449,0.0,1.294,8.34,-3.451,-11.73,-23.46,-5.865
4.84,-1.245,8.095,-3.018,-5.865,2.395,7.999,3.353,0.0,1.294,8.197,-3.307,-11.73,-23.46,0.0
4.845,-1.198,7.856,-2.922,-5.865,2.395,7.951,3.305,0.0,1.294,8.197,-3.307,-5.865,-17.595,0.0
4.8500000000000005,-1.15,7.712,-2.826,-5.865,2.395,7.999,3.305,5.865,1.294,8.197,-3.307,-5.865,-17.595,5.865
4.855,-1.15,7.712,-2.778,-0.0,2.443,8.095,3.353,5.865,1.438,8.34,-3.307,-5.865,-17.595,5.865
4.86,-1.198,7.712,-2.778,-0.0,2.539,8.287,3.353,11.73,1.582,8.484,-3.451,0.0,-17.595,5.865
4.865,-1.245,7.856,-2.826,5.865,2.635,8.478,3.353,11.73,1.582,8.628,-3.307,0.0,-11.73,11.73
4.87,-1.341,8.047,-2.874,5.865,2.682,8.622,3.305,11.73,1.582,8.772,-3.164,0.0,-11.73,11.73
4.875,-1.389,8.287,-2.874,11.73,2.778,8.766,3.209,17.595,1.726,8.916,-3.164,0.0,-11.73,11.73
4.88,-1.389,8.478,-2.778,11.73,2.874,9.101,3.209,17.595,1.726,9.203,-3.164,0.0,-11.73,11.73
4.885,-1.485,8.67,-2.73,11.73,2.874,9.388,3.161,17.595,1.869,9.491,-3.164,0.0,-11.73,17.595
4.89,-1.533,8.957,-2.682,11.73,2.874,9.58,3.114,17.595,1.869,9.635,-3.02,0.0,-11.73,11.73
4.8950000000000005,-1.533,9.293,-2.635,11.73,2.922,9.676,3.066,11.73,1.869,9.778,-3.02,0.0,-11.73,11.73
4.9,-1.533,9.484,-2.587,11.73,2.97,9.772,2.97,11.73,2.013,9.635,-2.876,0.0,-11.73,11.73
4.905,-1.581,9.628,-2.539,11.73,2.97,9.772,2.874,11.73,2.013,9.635,-2.732,-5.865,-17.595,5.865
4.91,-1.581,9.724,-2.443,5.865,2.97,9.724,2.778,5.865,2.013,9.491,-2.732,-5.865,-17.595,5.865
4.915,-1.533,9.772,-2.347,5.865,2.97,9.628,2.682,5.865,2.013,9.491,-2.588,-11.73,-17.595,0.0
4.92,-1.533,9.724,-2.251,-0.0,2.874,9.676,2.635,0.0,1.726,9.635,-2.588,-17.595,-23.46,0.0
4.925,-1.533,9.676,-2.203,-0.0,2.635,9.628,2.587,0.0,1.582,9.635,-2.588,-17.595,-23.46,0.0
4.93,-1.389,9.628,-2.156,-0.0,2.491,9.58,2.539,0.0,1.438,9.778,-2.445,-23.46,-23.46,0.0
4.9350000000000005,-1.245,9.484,-2.108,-0.0,2.443,9.58,2.443,0.0,1.294,9.778,-2.445,-23.46,-23.46,-5.865
4.94,-1.15,9.341,-2.012,-5.865,2.299,9.628,2.299,-5.865,1.15,9.635,-2.301,-23.46,-23.46,-5.865
4.945,-1.054,9.388,-1.916,-5.865,2.203,9.58,2.156,-5.865,1.15,9.635,-2.157,-23.46,-23.46,-11.73
4.95,-0.91,9.436,-1.772,-11.73,2.06,9.532,2.108,-11.73,1.007,9.491,-2.013,-23.46,-23.46,-11.73
4.955,-0.814,9.436,-1.677,-11.73,1.964,9.532,2.108,-11.73,0.863,9.491,-2.157,-23.46,-23.46,-11.73
4.96,-0.671,9.436,-1.581,-11.73,1.868,9.532,2.156,-11.73,0.719,9.635,-2.157,-23.46,-23.46,-11.73
4.965,-0.575,9.436,-1.629,-11.73,1.772,9.58,2.108,-11.73,0.575,9.778,-2.013,-23.46,-23.46,-11.73
4.97,-0.527,9.341,-1.677,-11.73,1.581,9.628,2.012,-11.73,0.288,9.922,-2.013,-23.46,-23.46,-17.595
4.9750000000000005,-0.431,9.341,-1.581,-17.595,1.485,9.628,2.012,-17.595,0.288,9.922,-2.013,-17.595,-23.46,-17.595
4.98,-0.287,9.341,-1.533,-17.595,1.485,9.724,2.012,-17.595,0.288,9.922,-2.013,-17.595,-23.46,-17.595
4.985,-0.192,9.341,-1.533,-17.595,1.485,9.772,2.012,-17.595,0.288,9.922,-2.013,-11.73,-23.46,-17.595
4.99,-0.192,9.436,-1.533,-17.595,1.437,9.82,2.012,-17.595,0.288,9.922,-2.013,-11.73,-23.46,-17.595
4.995,-0.192,9.532,-1.533,-17.595,1.389,9.915,2.06,-17.595,0.144,10.066,-2.013,-11.73,-23.46,-23.46
5.0,-0.096,9.676,-1.533,-17.595,1.389,10.107,2.156,-17.595,0.144,10.21,-2.157,-11.73,-23.46,-23.46
5.005,-0.096,9.772,-1.581,-23.46,1.389,10.299,2.251,-23.46,0.144,10.354,-2.301,-11.73,-17.595,-23.46
5.01,-0.144,9.963,-1.677,-23.46,1.293,10.634,2.299,-23.46,0.0,10.641,-2.301,-11.73,-17.595,-23.46
5.015,-0.096,10.299,-1.772,-23.46,1.198,10.825,2.299,-23.46,-0.144,10.785,-2.301,-11.73,-17.595,-23.46
5.0200000000000005,0.0,10.634,-1.82,-23.46,1.245,10.969,2.251,-29.326,-0.144,10.929,-2.301,-11.73,-17.595,-29.326
5.025,0.096,10.825,-1.82,-29.326,1.15,11.017,2.251,-35.191,-0.288,10.929,-2.301,-11.73,-17.595,-35.191
5.03,0.096,10.921,-1.772,-29.326,1.054,11.017,2.203,-35.191,-0.288,10.929,-2.157,-17.595,-17.595,-41.056
5.035,0.144,10.969,-1.772,-35.191,1.054,11.017,2.203,-41.056,-0.288,10.929,-2.157,-17.595,-11.73,-41.056
5.04,0.24,10.969,-1.724,-35.191,1.054,10.921,2.108,-46.921,-0.288,10.785,-2.013,-23.46,-11.73,-46.921
5.045,0.24,10.969,-1.677,-41.056,1.054,10.682,2.06,-46.921,-0.288,10.929,-2.301,-23.46,-11.73,-46.921
5.05,0.287,10.825,-1.581,-46.921,6.419,-23.615,-0.766,-41.056,17.4,-52.918,7.909,41.056,0.0,-29.326
5.055,0.192,7.999,-1.772,-46.921,1.533,6.562,-3.353,52.786,-2.588,6.327,1.438,58.651,-11.73,87.977
5.0600000000000005,-8.862,-18.633,7.329,-29.326,-0.383,-0.814,2.251,117.302,-2.445,7.909,-2.157,46.921,-29.326,111.437
5.065,3.161,6.083,2.778,82.111,1.054,2.635,-1.054,105.572,-1.294,2.445,2.157,123.167,-5.865,93.842
5.07,-1.15,-9.149,-1.198,111.437,-0.862,7.233,1.198,82.111,-0.863,4.314,-3.451,140.762,17.595,76.246
5.075,-0.431,6.035,2.874,99.707,1.916,6.179,5.461,76.246,1.438,3.451,-5.608,117.302,11.73,70.381
5.08,2.587,8.478,-2.635,76.246,1.772,7.951,5.365,82.111,0.288,3.883,-5.608,76.246,5.865,82.111
5.085,-1.629,9.484,-4.742,76.246,-0.096,8.191,5.652,82.111,-1.582,5.177,-5.608,23.46,5.865,70.381
5.09,0.431,11.113,-4.982,82.111,-0.144,8.718,4.79,58.651,-1.726,6.183,-4.745,-23.46,5.865,46.921
5.095,1.006,10.873,-4.886,76.246,0.287,8.335,4.072,23.46,-0.719,6.615,-4.026,-64.516,5.865,11.73
5.1000000000000005,0.91,10.49,-4.024,46.921,1.15,8.095,3.449,0.0,0.431,6.759,-3.307,-93.842,11.73,-11.73
5.105,0.575,9.388,-3.353,11.73,1.772,8.047,2.922,-17.595,1.007,7.334,-2.876,-111.437,11.73,-23.46
5.11,0.0,8.957,-2.73,-11.73,2.108,7.999,2.443,-23.46,1.294,8.053,-2.301,-123.167,5.865,-23.46
5.115,-0.527,8.574,-2.251,-23.46,2.203,8.239,1.82,-23.46,1.294,9.059,-1.726,-129.032,5.865,-23.46
5.12,-0.814,7.999,-1.724,-29.326,2.299,8.622,1.245,-23.46,1.438,10.066,-1.007,-123.167,5.865,-23.46
5.125,-0.814,7.664,-1.102,-23.46,2.443,9.197,0.91,-17.595,1.582,11.073,-0.719,-111.437,5.865,-17.595
5.13,-0.91,7.664,-0.575,-23.46,2.682,9.867,0.814,-11.73,1.726,11.792,-0.719,-93.842,0.0,-11.73
5.135,-1.054,7.999,-0.335,-17.595,2.778,10.538,0.862,-5.865,1.869,12.367,-0.719,-70.381,0.0,-5.865
5.14,-1.15,8.622,-0.335,-17.595,2.682,11.209,1.006,0.0,1.582,12.654,-0.863,-46.921,0.0,0.0
5.1450000000000005,-1.15,9.484,-0.431,-5.865,2.539,11.831,1.15,5.865,1.294,12.942,-1.007,-35.191,-5.865,5.865
5.15,-1.102,10.251,-0.575,-0.0,2.347,12.31,1.198,11.73,1.15,12.942,-1.15,-23.46,-5.865,11.73
5.155,-1.006,11.113,-0.719,5.865,2.156,12.55,1.198,11.73,0.863,12.798,-1.15,-11.73,-5.865,11.73
5.16,-0.862,11.831,-0.814,11.73,2.06,12.598,1.198,11.73,0.719,12.654,-1.15,-5.865,-5.865,11.73
5.165,-0.719,12.215,-0.766,11.73,1.916,12.55,1.245,11.73,0.575,12.367,-1.294,-5.865,-5.865,5.865
5.17,-0.575,12.358,-0.719,5.865,1.724,12.358,1.437,5.865,0.288,12.079,-1.438,-5.865,-5.865,5.865
5.175,-0.479,12.406,-0.814,5.865,1.629,12.071,1.581,5.865,0.288,11.792,-1.582,-11.73,-5.865,0.0
5.18,-0.383,12.262,-0.958,5.865,1.485,11.736,1.724,0.0,0.144,11.504,-1.726,-11.73,-5.865,-5.865
5.1850000000000005,-0.287,11.927,-1.15,-0.0,1.533,11.304,1.868,0.0,0.144,11.216,-1.869,-11.73,0.0,-5.865
5.19,-0.192,11.592,-1.341,-5.865,1.485,10.825,1.916,-5.865,0.144,10.785,-1.869,-11.73,0.0,-5.865
5.195,-0.24,11.065,-1.389,-5.865,1.389,10.442,1.964,-5.865,0.144,10.497,-2.013,-11.73,0.0,-5.865
5.2,-0.144,10.49,-1.437,-11.73,1.389,9.963,2.06,-5.865,0.144,10.066,-2.013,-11.73,0.0,-5.865
5.205,-0.096,10.011,-1.533,-11.73,1.293,9.676,2.203,0.0,0.144,9.922,-2.301,-5.865,0.0,-5.865
5.21,-0.048,9.58,-1.581,-5.865,1.341,9.532,2.395,0.0,0.144,9.778,-2.445,-5.865,0.0,0.0
5.215,-0.048,9.341,-1.772,-5.865,1.389,9.436,2.539,0.0,0.288,9.635,-2.588,0.0,0.0,0.0
5.22,-0.048,9.245,-1.916,-5.865,1.389,9.436,2.682,0.0,0.144,9.635,-2.732,0.0,5.865,0.0
5.2250000000000005,-0.096,9.197,-2.108,-0.0,1.341,9.628,2.778,5.865,0.144,9.778,-2.732,0.0,5.865,0.0
5.23,-0.096,9.245,-2.203,-0.0,1.485,9.82,2.874,5.865,0.288,9.922,-2.876,0.0,5.865,0.0
5.235,-0.144,9.484,-2.299,-0.0,1.581,10.011,2.97,0.0,0.431,10.066,-3.02,0.0,5.865,0.0
5.24,-0.24,9.724,-2.395,-0.0,1.724,10.251,3.114,0.0,0.575,10.21,-3.164,0.0,5.865,0.0
5.245,-0.335,10.011,-2.539,-5.865,1.868,10.49,3.161,0.0,0.719,10.497,-3.164,0.0,5.865,-5.865
5.25,-0.479,10.299,-2.635,-5.865,1.964,10.682,3.161,-5.865,0.719,10.641,-3.164,-5.865,5.865,-11.73
5.255,-0.623,10.538,-2.682,-5.865,2.156,10.921,3.114,-11.73,1.007,10.929,-3.02,-5.865,5.865,-11.73
5.26,-0.671,10.634,-2.682,-11.73,2.251,11.113,3.018,-11.73,1.15,11.216,-3.02,-5.865,5.865,-11.73
5.265,-0.862,10.873,-2.635,-11.73,2.347,11.161,2.874,-11.73,1.15,11.216,-2.876,-5.865,5.865,-17.595
5.2700000000000005,-0.91,10.969,-2.491,-17.595,2.443,11.113,2.826,-17.595,1.294,11.073,-2.732,-5.865,11.73,-17.595
5.275,-1.006,11.017,-2.395,-17.595,2.443,10.969,2.778,-17.595,1.294,10.929,-2.732,-11.73,11.73,-23.46
5.28,-1.054,10.921,-2.347,-23.46,2.539,10.778,2.874,-23.46,1.438,10.785,-2.876,-11.73,5.865,-23.46
5.285,-1.102,10.778,-2.347,-23.46,2.682,10.586,3.066,-23.46,1.438,10.641,-3.02,-11.73,5.865,-23.46
5.29,-1.245,10.586,-2.395,-23.46,2.539,10.49,2.97,-23.46,1.438,10.497,-3.02,-11.73,11.73,-23.46
5.295,-1.341,10.155,-2.587,-23.46,2.826,10.346,3.257,-23.46,1.726,10.497,-3.307,-11.73,11.73,-23.46
5.3,-1.341,10.346,-2.539,-23.46,2.922,10.299,3.449,-23.46,1.726,10.354,-3.451,-11.73,11.73,-23.46
5.305,-1.629,10.107,-2.826,-23.46,2.922,10.346,3.593,-17.595,1.582,10.354,-3.595,-11.73,17.595,-23.46
5.3100000000000005,-1.724,10.107,-2.97,-23.46,2.97,10.346,3.736,-17.595,1.869,10.354,-3.883,-11.73,17.595,-17.595
5.315,-1.772,10.155,-3.161,-23.46,2.922,10.299,3.736,-11.73,1.438,10.354,-3.739,-11.73,23.46,-17.595
5.32,-1.916,10.011,-3.401,-17.595,2.922,10.299,3.353,-11.73,2.013,10.066,-2.876,-11.73,23.46,-11.73
5.325,-1.677,10.203,-3.209,-17.595,3.018,10.299,2.97,-11.73,1.726,10.354,-2.876,-11.73,29.326,-11.73
5.33,-1.868,10.442,-2.539,-11.73,2.97,10.346,2.635,-11.73,1.726,10.354,-2.445,-17.595,29.326,-11.73
5.335,-1.629,10.107,-2.443,-11.73,2.922,10.346,2.06,-11.73,1.869,10.354,-1.869,-17.595,29.326,-11.73
5.34,-1.724,10.203,-2.012,-17.595,2.97,10.155,1.389,-11.73,2.013,10.066,-1.15,-17.595,29.326,-17.595
5.345,-1.533,10.155,-1.437,-11.73,2.922,9.867,0.766,-11.73,2.013,9.922,-0.575,-17.595,29.326,-17.595
5.3500000000000005,-1.533,9.963,-0.766,-17.595,2.922,9.628,0.096,-17.595,2.013,9.778,0.288,-23.46,23.46,-17.595
5.355,-1.437,9.724,-0.144,-17.595,2.922,9.484,-0.719,-17.595,2.013,9.635,1.15,-23.46,23.46,-23.46
5.36,-1.389,9.436,0.575,-17.595,2.874,9.341,-1.581,-17.595,2.157,9.491,2.013,-23.46,17.595,-23.46
5.365,-1.341,9.341,1.389,-23.46,2.922,9.149,-2.347,-23.46,2.301,9.347,2.732,-23.46,11.73,-23.46
5.37,-1.198,9.197,2.203,-23.46,3.114,8.862,-2.922,-23.46,2.588,9.203,3.307,-17.595,5.865,-23.46
5.375,-1.293,8.862,2.922,-23.46,3.353,8.526,-3.401,-29.326,3.02,8.772,3.739,-17.595,0.0,-23.46
5.38,-1.389,8.478,3.497,-23.46,3.593,8.239,-3.736,-29.326,3.451,8.484,3.883,-11.73,-5.865,-23.46
5.385,-1.533,8.239,3.88,-29.326,3.784,8.095,-3.832,-23.46,3.595,8.34,4.026,-11.73,-17.595,-23.46
5.39,-1.677,8.047,4.167,-29.326,3.88,8.191,-3.928,-17.595,3.739,8.484,4.17,-11.73,-29.326,-17.595
5.3950000000000005,-1.82,7.999,4.263,-23.46,3.832,8.383,-3.88,-11.73,3.595,8.628,4.026,-11.73,-41.056,-11.73
5.4,-1.868,8.143,4.311,-17.595,3.688,8.766,-3.64,-5.865,3.307,8.916,3.739,-5.865,-52.786,-5.865
5.405,-1.772,8.478,4.215,-11.73,3.545,9.245,-3.401,0.0,3.164,9.347,3.451,-11.73,-58.651,0.0
5.41,-1.629,8.957,3.976,-5.865,3.353,9.484,-3.018,0.0,2.876,9.491,3.02,-11.73,-70.381,0.0
5.415,-1.581,9.341,3.688,-5.865,3.305,9.628,-2.635,0.0,2.876,9.491,2.588,-11.73,-82.111,-5.865
5.42,-1.437,9.58,3.401,-0.0,3.401,9.772,-2.06,-5.865,2.876,9.778,2.013,-17.595,-87.977,-11.73
5.425,-1.437,9.772,2.922,-5.865,3.449,9.915,-1.533,-11.73,2.876,9.922,1.438,-23.46,-99.707,-11.73
5.43,-1.581,9.963,2.395,-11.73,3.449,10.107,-0.958,-11.73,2.876,10.066,0.863,-23.46,-105.572,-17.595
5.4350000000000005,-1.629,10.107,1.868,-11.73,3.401,10.251,-0.431,-17.595,2.732,10.354,0.431,-29.326,-111.437,-17.595
5.44,-1.629,10.203,1.341,-11.73,3.353,10.299,0.096,-17.595,2.588,10.497,-0.288,-29.326,-117.302,-23.46
5.445,-1.677,10.251,0.814,-17.595,3.305,10.251,0.575,-23.46,2.445,10.497,-0.719,-29.326,-123.167,-23.46
5.45,-1.677,10.107,0.287,-23.46,3.257,10.107,1.15,-29.326,2.445,10.354,-1.294,-29.326,-129.032,-23.46
5.455,-1.677,9.915,-0.192,-23.46,3.257,9.82,1.82,-29.326,2.445,10.066,-2.013,-29.326,-129.032,-29.326
5.46,-1.629,9.676,-0.719,-29.326,3.305,9.436,2.539,-29.326,2.445,9.778,-2.876,-23.46,-134.897,-35.191
5.465,-1.677,9.341,-1.437,-29.326,3.209,9.101,3.401,-35.191,2.301,9.491,-3.739,-23.46,-140.762,-35.191
5.47,-1.772,8.909,-2.156,-29.326,3.209,8.814,4.455,-29.326,2.157,9.491,-4.889,-11.73,-140.762,-29.326
5.4750000000000005,-1.772,8.478,-3.114,-29.326,3.161,8.766,5.652,-29.326,2.013,9.491,-6.183,-5.865,-140.762,-23.46
5.48,-1.916,8.143,-4.119,-29.326,3.114,8.862,6.993,-23.46,1.869,9.491,-7.478,0.0,-134.897,-23.46
5.485,-1.916,8.143,-5.365,-29.326,2.97,8.862,8.43,-17.595,1.726,9.347,-8.916,0.0,-134.897,-17.595
5.49,-1.916,8.239,-6.658,-23.46,2.826,8.862,10.107,-17.595,1.438,9.347,-10.785,17.595,-134.897,-11.73
5.495,-1.82,8.239,-8.143,-17.595,2.73,8.814,11.927,-5.865,1.007,9.347,-12.511,23.46,-129.032,-5.865
5.5,-1.772,8.191,-9.915,-11.73,2.395,8.909,13.652,-5.865,0.0,9.347,-14.236,23.46,-123.167,-5.865
5.505,-1.868,8.191,-11.688,-11.73,1.964,8.814,15.089,0.0,-0.575,9.059,-15.53,29.326,-105.572,0.0
5.51,-1.916,8.191,-13.364,-5.865,1.82,8.622,16.238,5.865,-0.719,8.772,-16.681,35.191,-87.977,0.0
5.515,-1.82,8.143,-14.705,-0.0,1.724,8.574,17.005,5.865,-0.863,8.916,-17.256,41.056,-70.381,5.865
5.5200000000000005,-1.772,7.951,-15.759,-0.0,1.677,8.622,17.484,11.73,-1.007,9.059,-17.687,46.921,-46.921,5.865
5.525,-1.82,7.856,-16.43,5.865,1.772,8.622,17.771,11.73,-0.863,9.059,-17.975,46.921,-23.46,11.73
5.53,-1.868,7.808,-16.861,5.865,1.916,8.526,17.771,17.595,-0.719,8.772,-17.831,58.651,0.0,17.595
5.535,-1.964,7.76,-17.052,11.73,2.06,8.478,17.484,23.46,-0.575,8.772,-17.544,58.651,23.46,23.46
5.54,-2.012,7.76,-17.005,11.73,1.964,8.43,17.196,23.46,-0.719,8.628,-17.256,64.516,46.921,23.46
5.545,-2.108,7.808,-16.669,17.595,1.916,8.239,16.813,29.326,-0.863,8.197,-16.825,70.381,64.516,23.46
5.55,-2.108,7.712,-16.43,23.46,1.868,7.951,16.094,29.326,-0.719,7.909,-15.962,70.381,87.977,29.326
5.555,-2.06,7.664,-15.903,29.326,1.964,7.712,14.993,35.191,-0.575,7.334,-14.811,70.381,111.437,29.326
5.5600000000000005,-1.868,7.52,-15.089,29.326,2.06,7.281,13.795,29.326,-0.144,6.759,-13.661,70.381,129.032,29.326
5.565,-1.868,7.329,-13.939,29.326,2.251,6.85,12.837,29.326,0.288,6.327,-12.942,64.516,152.493,29.326
5.57,-1.964,7.137,-12.694,23.46,2.491,6.275,12.119,35.191,0.144,5.752,-12.223,58.651,170.088,29.326
5.575,-2.06,6.706,-11.783,29.326,2.06,5.748,11.065,41.056,0.288,5.177,-10.929,58.651,187.683,35.191
5.58,-2.635,6.179,-11.113,29.326,2.491,5.173,9.676,41.056,0.719,4.889,-9.635,52.786,199.413,41.056
5.585,-1.724,5.652,-9.867,35.191,2.443,4.838,8.143,46.921,1.15,4.889,-7.909,46.921,211.144,41.056
5.59,-2.251,4.886,-8.43,35.191,2.682,4.79,6.467,46.921,1.582,4.889,-6.327,46.921,222.874,41.056
5.595,-1.772,4.598,-6.802,41.056,2.778,4.934,4.455,41.056,2.301,4.889,-4.17,46.921,228.739,35.191
5.6000000000000005,-1.82,4.598,-5.125,41.056,3.209,5.125,2.443,41.056,3.02,5.033,-2.013,46.921,228.739,35.191
5.605,-1.581,5.03,-3.161,35.191,3.401,5.413,0.383,41.056,3.595,5.177,0.144,46.921,222.874,35.191
5.61,-1.724,5.365,-1.198,35.191,3.688,5.7,-1.916,41.056,4.026,5.608,2.588,35.191,211.144,41.056
5.615,-1.389,5.844,0.862,35.191,4.119,6.035,-4.119,41.056,4.602,6.327,4.745,35.191,199.413,41.056
5.62,-1.677,6.035,3.066,35.191,4.503,6.371,-5.94,46.921,4.745,6.902,6.615,35.191,181.818,41.056
5.625,-1.916,6.131,5.125,41.056,4.455,7.041,-7.568,52.786,4.745,7.765,8.197,35.191,170.088,46.921
5.63,-2.299,6.371,6.85,41.056,4.551,7.999,-8.957,52.786,5.033,8.484,9.635,35.191,152.493,52.786
5.635,-2.108,7.185,8.335,46.921,4.646,8.909,-10.251,52.786,5.033,9.347,10.785,35.191,134.897,52.786
5.64,-1.964,8.239,9.676,52.786,4.503,9.676,-11.4,52.786,5.177,9.922,12.079,35.191,111.437,46.921
5.6450000000000005,-1.964,9.293,10.778,52.786,4.646,10.346,-12.598,52.786,5.321,10.354,13.23,35.191,87.977,46.921
5.65,-1.677,10.203,11.927,46.921,4.551,10.921,-13.46,46.921,5.321,10.929,13.949,29.326,64.516,46.921
5.655,-1.772,10.969,12.981,46.921,4.551,11.4,-13.843,46.921,5.177,11.36,14.236,23.46,41.056,41.056
5.66,-1.389,11.544,13.747,46.921,4.407,11.927,-13.987,35.191,5.033,11.648,14.236,17.595,11.73,29.326
5.665,-1.485,12.023,13.987,41.056,4.119,12.406,-13.939,23.46,4.602,11.935,14.092,0.0,-17.595,17.595
5.67,-1.293,12.789,14.035,29.326,4.024,12.358,-13.556,11.73,4.458,11.935,13.661,-5.865,-41.056,5.865
5.675,-1.102,13.173,13.939,17.595,4.119,11.975,-13.173,0.0,4.602,11.504,13.23,-17.595,-64.516,-5.865
5.68,-1.198,12.885,13.604,5.865,4.167,11.544,-12.55,-11.73,4.458,10.929,12.511,-23.46,-87.977,-17.595
5.6850000000000005,-1.341,12.502,13.22,-5.865,4.167,11.017,-11.736,-23.46,4.458,10.21,11.648,-35.191,-111.437,-23.46
5.69,-1.389,12.119,12.598,-17.595,4.311,10.394,-10.634,-35.191,4.314,9.778,10.354,-46.921,-129.032,-35.191
5.695,-1.677,11.544,11.783,-29.326,4.263,9.82,-9.341,-35.191,4.026,9.347,8.916,-58.651,-146.628,-41.056
5.7,-1.916,10.778,10.634,-35.191,4.119,9.293,-7.951,-46.921,3.883,9.059,7.478,-64.516,-164.223,-46.921
5.705,-2.06,10.059,9.388,-41.056,4.263,8.766,-6.562,-46.921,4.17,8.772,6.04,-70.381,-175.953,-46.921
5.71,-2.012,9.436,8.047,-46.921,4.503,8.478,-5.221,-46.921,4.314,9.059,4.745,-70.381,-187.683,-46.921
5.715,-2.251,8.718,6.754,-46.921,4.359,8.526,-3.688,-46.921,3.883,9.491,3.164,-64.516,-199.413,-46.921
5.72,-2.491,8.191,5.461,-46.921,4.072,8.766,-1.868,-41.056,3.307,9.778,1.15,-58.651,-205.279,-41.056
5.7250000000000005,-2.347,7.999,3.88,-41.056,3.88,8.909,0.287,-41.056,2.876,9.778,-1.15,-46.921,-211.144,-41.056
5.73,-2.395,8.095,2.06,-41.056,3.64,9.532,3.257,-35.191,2.588,9.922,-4.458,-41.056,-217.009,-35.191
5.735,-2.491,8.67,-0.192,-35.191,3.736,10.155,5.988,-35.191,2.157,10.354,-7.19,-41.056,-211.144,-41.056
5.74,-1.964,9.867,-3.353,-35.191,3.688,10.394,8.622,-35.191,2.157,11.073,-9.635,-41.056,-211.144,-35.191
5.745,-2.491,10.059,-5.988,-35.191,3.353,10.586,10.778,-23.46,1.294,11.073,-11.792,-35.191,-205.279,-23.46
5.75,-2.826,10.059,-8.478,-35.191,2.922,10.394,13.125,-11.73,0.431,11.216,-13.949,-29.326,-199.413,-11.73
5.755,-2.203,9.628,-10.634,-23.46,2.203,10.442,14.945,-11.73,-0.575,11.216,-15.818,-23.46,-181.818,-11.73
5.76,-2.443,9.628,-12.837,-11.73,1.916,9.724,17.1,-11.73,-1.007,10.497,-17.544,-11.73,-164.223,-11.73
5.765,-1.868,8.909,-14.705,-11.73,2.203,9.101,17.915,-5.865,-0.863,9.491,-18.406,0.0,-134.897,-5.865
5.7700000000000005,-2.539,8.239,-16.478,-11.73,1.772,8.718,18.394,0.0,-1.294,8.772,-18.694,11.73,-111.437,0.0
5.775,-2.251,8.239,-17.292,-5.865,1.581,8.095,18.585,5.865,-1.294,8.053,-18.694,17.595,-87.977,5.865
5.78,-1.964,7.856,-17.723,-0.0,1.581,8.191,18.25,17.595,-1.294,8.197,-18.406,23.46,-58.651,17.595
5.785,-2.156,7.568,-17.723,5.865,1.102,8.526,17.723,23.46,-2.013,8.484,-17.544,23.46,-35.191,23.46
5.79,-1.724,7.904,-17.436,17.595,0.766,8.718,16.813,23.46,-2.157,8.628,-16.681,23.46,-5.865,23.46
5.795,-1.293,8.047,-16.765,23.46,0.814,8.814,16.19,29.326,-1.869,8.628,-16.106,23.46,23.46,23.46
5.8,-1.102,8.383,-15.951,23.46,0.814,8.526,15.28,29.326,-1.726,8.053,-14.955,23.46,46.921,23.46
5.805,-0.862,8.383,-15.28,29.326,1.054,7.999,13.939,23.46,-0.863,7.19,-13.661,17.595,64.516,23.46
5.8100000000000005,-0.814,8.191,-14.274,23.46,1.533,7.425,12.406,29.326,0.0,6.759,-11.935,11.73,82.111,29.326
5.815,-0.862,7.951,-12.933,23.46,1.772,6.993,10.49,35.191,0.575,6.759,-9.922,0.0,93.842,35.191
5.82,-1.006,7.329,-11.304,29.326,1.964,7.089,8.383,46.921,1.15,7.19,-7.765,0.0,99.707,46.921
5.825,-0.958,6.946,-9.388,35.191,2.299,7.568,6.419,52.786,1.582,8.053,-5.896,0.0,99.707,52.786
5.83,-0.719,7.041,-7.233,41.056,2.682,7.951,4.79,58.651,2.445,8.34,-4.458,0.0,99.707,58.651
5.835,-1.054,7.329,-5.413,52.786,3.353,8.526,3.497,64.516,3.02,8.916,-3.02,11.73,99.707,64.516
5.84,-1.341,7.856,-3.928,52.786,3.64,9.293,2.443,76.246,3.164,9.922,-2.301,11.73,93.842,70.381
5.845,-1.581,8.383,-2.73,64.516,3.88,10.059,2.012,76.246,3.307,10.354,-1.869,17.595,82.111,76.246
5.8500000000000005,-2.012,9.293,-1.868,70.381,4.79,10.682,1.868,87.977,4.314,9.778,-1.869,17.595,82.111,82.111
5.855,-2.443,9.915,-1.485,76.246,4.024,11.113,0.958,99.707,2.876,11.935,-0.719,17.595,70.381,99.707
5.86,-3.018,10.969,-1.437,82.111,3.64,12.55,0.671,105.572,2.013,13.517,-0.431,11.73,70.381,93.842
5.865,-2.156,11.209,-0.431,93.842,3.114,13.939,0.192,87.977,2.445,14.092,-0.0,11.73,64.516,76.246
5.87,-1.82,12.358,-0.144,99.707,4.215,14.657,-0.048,70.381,3.739,14.524,0.144,0.0,58.651,58.651
5.875,-1.533,14.274,0.335,76.246,4.934,14.993,-0.096,52.786,4.602,14.524,0.288,0.0,52.786,46.921
5.88,-2.539,14.945,0.431,58.651,5.173,15.28,-0.431,46.921,4.889,14.38,0.719,-5.865,41.056,46.921
5.885,-2.73,15.615,0.479,46.921,5.03,14.993,-0.671,46.921,4.17,14.668,1.007,-17.595,29.326,41.056
5.89,-2.778,15.759,0.862,46.921,4.167,14.801,-0.814,41.056,3.02,14.668,1.007,-29.326,17.595,35.191
5.8950000000000005,-2.682,15.184,1.054,41.056,3.736,14.322,-0.91,29.326,2.588,14.38,1.007,-35.191,5.865,23.46
5.9,-2.06,14.705,1.245,35.191,3.64,13.747,-0.862,17.595,2.588,13.805,1.007,-35.191,0.0,5.865
5.905,-2.108,13.987,1.341,23.46,4.311,12.789,-0.719,0.0,3.307,12.654,0.863,-35.191,-5.865,-5.865
5.91,-2.06,13.316,1.245,5.865,4.359,11.975,-0.91,-11.73,3.739,11.792,1.15,-35.191,-5.865,-11.73
5.915,-2.587,12.406,1.198,-5.865,4.455,11.113,-1.341,-11.73,3.595,11.36,1.726,-41.056,-11.73,-17.595
5.92,-2.682,11.64,1.389,-11.73,4.455,10.394,-1.868,-11.73,3.883,10.929,2.157,-35.191,-17.595,-11.73
5.925,-2.73,10.538,1.916,-17.595,4.407,9.82,-2.108,-11.73,3.739,10.354,2.301,-29.326,-23.46,-17.595
5.93,-2.587,9.676,2.395,-11.73,4.551,9.58,-2.06,-11.73,4.026,9.922,2.157,-23.46,-29.326,-11.73
5.9350000000000005,-2.682,9.293,2.539,-17.595,4.646,9.245,-1.724,-5.865,4.17,9.635,1.869,-23.46,-35.191,-5.865
5.94,-2.778,9.101,2.395,-11.73,4.694,9.101,-1.437,0.0,4.17,9.491,1.438,-17.595,-41.056,0.0
5.945,-2.922,8.814,2.108,-5.865,4.886,9.293,-0.958,0.0,4.17,9.922,0.863,-11.73,-46.921,0.0
5.95,-3.018,8.814,1.772,-5.865,5.03,9.867,-0.431,5.865,4.17,10.497,0.431,-11.73,-52.786,5.865
5.955,-3.209,9.053,1.293,-0.0,4.886,10.538,0.048,5.865,4.026,11.073,-0.144,-5.865,-58.651,5.865
5.96,-3.353,9.724,0.766,5.865,4.838,11.065,0.527,5.865,3.883,11.36,-0.575,-5.865,-58.651,0.0
5.965,-3.161,10.442,0.287,5.865,4.886,11.4,0.91,0.0,3.883,11.648,-1.007,-5.865,-64.516,-5.865
5.97,-3.209,10.969,-0.144,-0.0,4.934,11.4,1.245,-5.865,3.883,11.504,-1.294,-5.865,-70.381,-11.73
5.9750000000000005,-3.353,11.257,-0.527,-5.865,4.934,11.304,1.677,-11.73,4.026,11.36,-1.726,-11.73,-70.381,-17.595
5.98,-3.353,11.209,-0.862,-11.73,4.838,11.257,2.156,-17.595,3.739,11.36,-2.301,-11.73,-76.246,-23.46
5.985,-3.353,11.065,-1.341,-17.595,4.838,11.257,2.635,-29.326,3.739,11.504,-2.732,-11.73,-76.246,-35.191
5.99,-3.353,11.017,-1.772,-23.46,4.982,11.209,3.114,-41.056,3.883,11.36,-3.164,-17.595,-76.246,-46.921
5.995,-3.497,10.969,-2.251,-35.191,4.982,11.017,3.401,-46.921,3.883,11.073,-3.451,-17.595,-76.246,-46.921
6.0,-3.545,10.921,-2.682,-41.056,4.934,10.778,3.784,-46.921,3.883,10.929,-3.883,-17.595,-76.246,-46.921
6.005,-3.545,10.682,-2.97,-46.921,4.79,10.634,4.215,-46.921,3.595,10.641,-4.314,-17.595,-76.246,-46.921
6.01,-3.497,10.49,-3.353,-46.921,4.551,10.394,4.694,-46.921,3.164,10.497,-4.889,-17.595,-76.246,-46.921
6.015000000000001,-3.353,10.394,-3.784,-46.921,4.311,10.059,4.982,-46.921,2.876,10.354,-5.177,-17.595,-76.246,-46.921
6.0200000000000005,-3.257,10.011,-4.263,-46.921,4.072,9.82,5.173,-46.921,2.445,10.066,-5.177,-11.73,-70.381,-46.921
6.025,-3.161,9.58,-4.503,-46.921,3.688,9.58,4.982,-46.921,2.157,9.922,-4.889,-11.73,-64.516,-46.921
6.03,-3.018,9.293,-4.551,-46.921,3.449,9.388,4.742,-41.056,2.013,9.778,-4.745,-5.865,-58.651,-46.921
6.035,-2.587,9.101,-4.359,-41.056,3.305,9.245,4.455,-41.056,2.013,9.635,-4.314,-5.865,-52.786,-46.921
6.04,-2.347,8.862,-4.119,-41.056,3.928,5.892,3.066,-41.056,3.307,6.183,-1.726,0.0,-46.921,-41.056
6.045,-2.203,8.718,-3.832,-41.056,4.79,4.167,1.581,-29.326,4.026,5.752,-1.582,29.326,-41.056,-17.595
6.05,-3.497,0.623,-1.533,-41.056,2.922,5.892,2.156,-5.865,2.013,7.19,-2.445,46.921,-41.056,-5.865
6.055,-2.826,3.88,-1.102,-23.46,3.018,7.329,2.73,-5.865,1.438,8.772,-2.732,58.651,-46.921,0.0
6.0600000000000005,-1.389,5.748,-1.82,-11.73,2.922,7.76,2.635,5.865,1.582,8.34,-2.588,70.381,-41.056,0.0
6.065,-2.299,6.371,-2.108,-5.865,2.73,7.377,2.156,0.0,1.582,7.046,-1.869,82.111,-35.191,-5.865
6.07,-1.724,7.233,-1.964,-0.0,3.209,6.179,1.629,-5.865,2.732,5.464,-1.294,82.111,-35.191,-11.73
6.075,-1.629,6.993,-1.389,-5.865,3.736,6.083,1.341,-5.865,3.164,5.752,-1.438,76.246,-35.191,-11.73
6.08,-2.108,6.227,-0.862,-11.73,3.353,7.664,1.964,-5.865,1.869,7.334,-2.013,64.516,-35.191,-5.865
6.085,-2.156,7.185,-0.958,-5.865,2.73,7.856,1.581,0.0,1.726,6.615,-1.438,58.651,-35.191,-5.865
6.09,-2.06,8.191,-1.389,-5.865,3.114,7.472,1.102,-5.865,2.157,6.615,-1.15,41.056,-35.191,-11.73
6.095,-1.533,8.478,-0.862,-5.865,3.114,7.664,1.198,-11.73,2.157,6.902,-1.15,29.326,-35.191,-17.595
6.1000000000000005,-1.82,8.239,-0.623,-11.73,3.209,7.472,0.766,-23.46,2.445,6.327,-0.719,11.73,-35.191,-23.46
6.105,-1.868,8.191,-0.623,-17.595,3.449,7.233,0.671,-29.326,2.732,6.327,-0.575,-5.865,-41.056,-29.326
6.11,-1.868,8.239,-0.192,-23.46,3.401,6.993,0.431,-29.326,2.588,6.471,-0.288,-17.595,-41.056,-29.326
6.115,-2.012,7.808,-0.048,-29.326,3.305,6.898,0.24,-29.326,2.301,6.615,-0.144,-29.326,-41.056,-29.326
6.12,-2.012,7.377,0.144,-29.326,3.161,6.85,0.287,-29.326,2.013,6.902,-0.288,-35.191,-41.056,-29.326
