time_aligned_sec,L_Acc_X_aligned,L_Acc_Y_aligned,L_Acc_Z_aligned,L_Gyro_Z_aligned,R_Acc_X_aligned,R_Acc_Y_aligned,R_Acc_Z_aligned,R_Gyro_Z_aligned,T_Acc_X_aligned,T_Acc_Y_aligned,T_Acc_Z_aligned,T_Gyro_X_aligned,T_Gyro_Y_aligned,T_Gyro_Z_aligned
0.0,-2.06,8.67,7.185,-11.73,-1.533,8.909,6.946,17.595,2.588,8.628,6.327,-29.326,41.056,-11.73
0.005,-1.629,8.478,7.137,-5.865,-1.102,8.526,7.041,5.865,1.726,8.484,6.615,-29.326,41.056,-11.73
0.01,-1.341,8.383,6.946,-0.0,-1.15,8.766,6.898,5.865,1.582,8.34,6.471,-29.326,46.921,-5.865
0.015,-1.245,8.43,6.754,-0.0,-0.958,8.718,6.706,5.865,1.582,8.916,6.183,-29.326,52.786,0.0
0.02,-1.245,8.335,6.658,-0.0,-0.958,8.478,6.61,5.865,1.438,8.484,6.04,-23.46,52.786,0.0
0.025,-1.389,8.239,6.323,-0.0,-1.198,8.43,6.323,5.865,1.726,8.197,5.896,-23.46,58.651,0.0
0.03,-1.389,8.047,6.179,-0.0,-1.198,8.239,6.083,5.865,1.726,8.197,5.608,-23.46,58.651,0.0
0.035,-1.198,7.856,6.131,-0.0,-1.054,8.047,6.131,5.865,1.726,7.909,5.464,-23.46,58.651,0.0
0.04,-1.15,7.76,5.94,-0.0,-0.958,7.999,5.94,5.865,1.726,7.909,5.464,-23.46,58.651,0.0
0.045,-1.054,7.664,5.892,-0.0,-0.91,7.856,5.796,5.865,1.582,7.765,5.177,-23.46,64.516,0.0
0.05,-1.198,7.616,5.748,-5.865,-1.054,7.808,5.7,5.865,1.726,7.621,5.177,-23.46,64.516,0.0
0.055,-1.293,7.76,5.652,-5.865,-1.102,7.808,5.604,11.73,1.869,7.621,5.033,-23.46,64.516,-5.865
0.06,-1.341,7.712,5.604,-11.73,-1.15,7.76,5.509,11.73,1.726,7.478,4.889,-23.46,58.651,-5.865
0.065,-1.245,7.712,5.556,-11.73,-1.15,7.856,5.556,11.73,1.726,7.621,4.889,-23.46,64.516,-11.73
0.07,-1.198,7.712,5.7,-11.73,-1.006,7.904,5.604,11.73,1.869,7.765,4.889,-23.46,64.516,-11.73
0.075,-1.15,7.664,5.7,-11.73,-1.054,7.951,5.604,11.73,1.582,7.765,5.033,-23.46,64.516,-11.73
0.08,-1.293,7.616,5.556,-11.73,-1.15,7.999,5.556,17.595,1.869,7.909,5.033,-23.46,64.516,-11.73
0.085,-1.341,7.616,5.461,-11.73,-1.198,7.904,5.413,17.595,1.869,7.909,4.889,-23.46,64.516,-11.73
0.09,-1.293,7.616,5.413,-11.73,-1.198,7.808,5.365,17.595,1.869,7.765,4.745,-17.595,64.516,-11.73
0.095,-1.341,7.712,5.269,-17.595,-1.198,7.856,5.221,17.595,1.869,7.621,4.602,-17.595,64.516,-11.73
0.1,-1.341,7.712,5.269,-17.595,-1.198,7.904,5.221,17.595,1.869,7.621,4.602,-17.595,64.516,-11.73
0.105,-1.245,7.76,5.317,-17.595,-1.198,8.047,5.269,17.595,1.869,7.909,4.602,-17.595,64.516,-11.73
0.11,-1.245,7.856,5.317,-11.73,-1.198,8.239,5.221,17.595,2.013,8.197,4.602,-17.595,64.516,-11.73
0.115,-1.198,7.999,5.221,-11.73,-1.15,8.335,5.173,17.595,2.013,8.34,4.602,-17.595,64.516,-11.73
0.12,-0.958,8.287,4.838,-11.73,-1.054,8.526,4.79,17.595,2.013,8.484,4.458,-11.73,64.516,-11.73
0.125,-1.198,8.383,4.503,-11.73,-1.15,8.574,4.455,11.73,2.013,8.484,4.026,-5.865,58.651,-11.73
0.13,-1.341,8.335,4.263,-11.73,-1.437,8.478,4.215,11.73,2.157,8.34,3.739,-5.865,58.651,-11.73
0.135,-1.245,8.191,4.167,-5.865,-1.389,8.383,4.119,11.73,2.301,8.197,3.451,-5.865,52.786,-11.73
0.14,-1.198,8.143,4.119,-5.865,-1.437,8.383,4.072,5.865,2.445,8.34,3.451,-5.865,52.786,-5.865
0.145,-1.054,8.191,3.976,-5.865,-1.293,8.43,3.976,5.865,2.445,8.34,3.451,-5.865,46.921,0.0
0.15,-1.006,8.335,3.832,-0.0,-1.245,8.478,3.784,5.865,2.301,8.34,3.307,-5.865,41.056,0.0
0.155,-1.15,8.287,3.784,-0.0,-1.341,8.383,3.736,5.865,2.301,8.197,3.164,0.0,41.056,0.0
0.16,-1.389,8.239,3.736,-0.0,-1.485,8.335,3.688,5.865,2.445,8.197,3.02,0.0,35.191,0.0
0.165,-1.485,8.143,3.832,-0.0,-1.581,8.239,3.688,5.865,2.445,8.053,3.02,0.0,29.326,0.0
0.17,-1.437,8.095,3.88,-0.0,-1.485,8.191,3.784,5.865,2.445,8.053,3.164,-5.865,23.46,0.0
0.17500000000000002,-1.389,7.999,3.832,-0.0,-1.437,8.095,3.736,5.865,2.301,7.909,3.164,-5.865,23.46,0.0
0.18,-1.533,7.904,3.784,-0.0,-1.533,8.047,3.688,5.865,2.301,7.909,3.02,-5.865,17.595,0.0
0.185,-1.581,7.904,3.736,-5.865,-1.533,8.047,3.64,5.865,2.445,7.909,3.164,-5.865,17.595,0.0
0.19,-1.581,7.904,3.688,-5.865,-1.581,7.951,3.64,5.865,2.301,7.765,3.02,-5.865,17.595,-5.865
0.195,-1.533,7.951,3.64,-5.865,-1.533,7.951,3.593,5.865,2.301,7.621,2.876,-5.865,17.595,-5.865
0.2,-1.389,8.095,3.497,-5.865,-1.485,8.095,3.497,5.865,2.301,7.765,2.876,-5.865,17.595,-5.865
0.20500000000000002,-1.341,8.095,3.353,-5.865,-1.485,8.143,3.305,11.73,2.301,7.909,2.732,-11.73,11.73,-5.865
0.21,-1.341,8.191,3.209,-11.73,-1.485,8.191,3.161,11.73,2.445,7.909,2.588,-11.73,5.865,-5.865
0.215,-1.341,8.335,3.209,-11.73,-1.485,8.335,3.161,11.73,2.445,8.053,2.445,-11.73,5.865,-11.73
0.22,-1.341,8.43,3.209,-11.73,-1.485,8.43,3.114,11.73,2.445,8.053,2.445,-17.595,0.0,-11.73
0.225,-1.389,8.478,3.161,-11.73,-1.485,8.574,3.114,11.73,2.445,8.197,2.445,-17.595,0.0,-11.73
0.23,-1.341,8.574,3.161,-11.73,-1.485,8.67,3.114,11.73,2.445,8.484,2.445,-17.595,-5.865,-11.73
0.23500000000000001,-1.437,8.622,3.305,-11.73,-1.485,8.766,3.209,11.73,2.445,8.484,2.445,-17.595,-11.73,-11.73
0.24,-1.533,8.67,3.449,-11.73,-1.533,8.862,3.353,11.73,2.445,8.628,2.588,-17.595,-11.73,-11.73
0.245,-1.629,8.67,3.64,-5.865,-1.581,8.909,3.545,11.73,2.445,8.772,2.732,-17.595,-17.595,-11.73
0.25,-1.677,8.718,3.88,-5.865,-1.581,9.005,3.784,5.865,2.445,8.916,3.02,-17.595,-17.595,-5.865
0.255,-1.724,8.67,4.024,-5.865,-1.629,9.053,3.928,5.865,2.301,9.059,3.307,-17.595,-17.595,-5.865
0.26,-1.341,8.67,4.359,-0.0,-1.341,9.245,4.215,5.865,2.732,11.216,3.451,-17.595,-17.595,0.0
0.265,-2.012,8.718,4.119,-0.0,-1.341,8.383,4.072,5.865,2.301,9.635,3.739,-5.865,-23.46,0.0
0.27,-2.108,8.478,3.784,5.865,-1.964,8.287,3.688,0.0,2.157,7.621,3.307,-5.865,-23.46,0.0
0.275,-1.772,8.383,4.024,5.865,-1.724,8.43,3.832,-5.865,2.588,8.053,3.02,-5.865,-23.46,5.865
0.28,-1.485,8.335,4.407,5.865,-1.341,8.191,4.311,-5.865,2.157,8.053,3.451,-11.73,-17.595,5.865
0.28500000000000003,-1.533,8.239,4.455,-0.0,-1.341,8.239,4.359,0.0,2.013,7.621,3.739,-17.595,-17.595,5.865
0.29,-1.772,8.287,4.551,-0.0,-1.581,8.383,4.455,0.0,2.157,8.053,3.739,-17.595,-17.595,0.0
0.295,-1.916,8.43,4.742,-5.865,-1.629,8.383,4.646,5.865,2.301,8.053,4.026,-23.46,-17.595,0.0
0.3,-1.964,8.43,4.838,-5.865,-1.677,8.43,4.742,5.865,2.157,8.053,4.026,-23.46,-11.73,0.0
0.305,-1.964,8.43,4.934,-5.865,-1.677,8.478,4.838,5.865,2.301,8.197,4.17,-23.46,-11.73,-5.865
0.31,-1.82,8.383,5.125,-5.865,-1.629,8.574,4.886,5.865,2.301,8.197,4.314,-29.326,-11.73,-5.865
0.315,-1.533,8.957,5.317,-5.865,-1.868,9.963,5.365,5.865,2.157,11.504,4.602,-29.326,-5.865,-5.865
0.32,-1.772,9.245,5.125,-0.0,-1.581,9.676,5.125,5.865,2.876,10.066,4.745,-23.46,-5.865,0.0
0.325,-1.82,9.245,4.838,-0.0,-1.772,9.532,4.79,0.0,2.301,9.922,4.458,-17.595,-5.865,0.0
0.33,-2.156,9.149,5.221,-0.0,-1.964,9.772,4.886,0.0,3.02,9.347,4.026,-5.865,-5.865,0.0
0.335,-1.964,8.909,4.215,5.865,-1.868,8.67,4.072,-5.865,3.02,8.197,3.164,0.0,-23.46,5.865
0.34,-1.533,8.67,3.928,11.73,-1.581,8.43,4.024,-5.865,2.445,7.909,3.307,0.0,-17.595,11.73
0.34500000000000003,-1.581,7.472,3.928,11.73,-1.389,6.61,3.784,-5.865,2.301,6.471,3.307,-17.595,-5.865,11.73
0.35000000000000003,-1.341,7.233,4.359,5.865,-1.245,6.946,4.167,-5.865,1.726,5.608,3.307,-17.595,-23.46,5.865
0.355,-1.485,7.281,5.077,-0.0,-1.293,7.281,4.838,5.865,2.013,6.759,3.883,-35.191,-11.73,5.865
0.36,-1.581,7.568,5.365,-11.73,-1.293,7.76,5.269,11.73,1.726,7.19,4.458,-41.056,-11.73,-5.865
0.365,-1.868,7.904,5.461,-11.73,-1.533,8.287,5.365,17.595,2.013,8.053,4.745,-41.056,-11.73,-11.73
0.37,-1.916,8.191,5.365,-11.73,-1.581,8.622,5.317,17.595,2.157,8.484,4.745,-41.056,-11.73,-11.73
0.375,-1.82,8.383,5.221,-11.73,-1.629,8.814,5.173,17.595,2.157,8.916,4.745,-35.191,-5.865,-11.73
0.38,-1.724,8.383,4.982,-5.865,-1.533,8.766,4.934,11.73,2.301,8.916,4.458,-29.326,-5.865,-11.73
0.385,-1.581,8.287,4.742,-5.865,-1.485,8.622,4.694,11.73,2.301,8.772,4.17,-29.326,0.0,-11.73
0.39,-1.485,8.239,4.551,-5.865,-1.437,8.43,4.503,11.73,2.157,8.484,4.026,-23.46,0.0,-5.865
0.395,-1.485,8.191,4.455,-5.865,-1.389,8.239,4.407,5.865,2.157,8.197,3.883,-23.46,0.0,-5.865
0.4,-1.581,8.191,4.503,-5.865,-1.389,8.191,4.407,5.865,2.157,7.909,3.739,-23.46,0.0,-5.865
0.405,-1.629,8.239,4.598,-5.865,-1.389,8.143,4.503,5.865,2.013,7.765,3.739,-23.46,0.0,-5.865
0.41000000000000003,-1.581,8.287,4.79,-5.865,-1.389,8.287,4.694,11.73,2.013,7.909,4.026,-23.46,0.0,-5.865
0.41500000000000004,-1.629,8.239,4.838,-5.865,-1.389,8.43,4.79,11.73,2.013,8.197,4.17,-29.326,0.0,-5.865
0.42,-1.629,8.191,4.886,-5.865,-1.389,8.574,4.79,11.73,2.013,8.34,4.17,-29.326,0.0,-5.865
0.425,-1.629,8.095,5.03,-5.865,-1.437,8.67,4.934,5.865,2.157,8.772,4.314,-29.326,0.0,-5.865
0.43,-1.629,8.095,5.173,-5.865,-1.437,8.718,5.077,5.865,2.157,8.916,4.458,-23.46,5.865,-5.865
0.435,-1.581,8.095,5.125,-5.865,-1.437,8.67,5.077,5.865,2.157,8.916,4.602,-17.595,5.865,-5.865
0.44,-1.533,8.095,4.982,-5.865,-1.437,8.526,4.934,5.865,2.157,8.772,4.458,-17.595,5.865,-5.865
0.445,-1.533,8.143,4.886,-5.865,-1.389,8.43,4.838,5.865,2.157,8.484,4.314,-11.73,5.865,-5.865
0.45,-1.533,8.143,4.79,-5.865,-1.389,8.287,4.742,5.865,2.157,8.197,4.17,-5.865,5.865,-5.865
0.455,-1.581,8.191,4.79,-5.865,-1.437,8.287,4.694,5.865,2.157,8.053,4.17,-5.865,5.865,-5.865
0.46,-1.629,8.143,4.742,-5.865,-1.437,8.143,4.694,11.73,2.157,7.909,4.026,-5.865,5.865,-5.865
0.465,-1.629,8.095,4.79,-5.865,-1.437,8.095,4.742,11.73,2.157,7.765,4.026,-5.865,5.865,-5.865
0.47000000000000003,-1.677,8.047,4.934,-5.865,-1.485,8.047,4.838,11.73,2.157,7.765,4.17,-5.865,5.865,-5.865
0.47500000000000003,-1.629,7.951,5.077,-11.73,-1.485,8.095,4.982,11.73,2.157,7.909,4.314,-5.865,5.865,-11.73
0.48,-1.677,7.951,5.221,-11.73,-1.485,8.191,5.125,11.73,2.157,8.053,4.458,-11.73,5.865,-11.73
0.485,-1.772,7.999,5.365,-11.73,-1.533,8.335,5.269,11.73,2.157,8.197,4.602,-11.73,5.865,-11.73
0.49,-1.82,8.095,5.461,-11.73,-1.581,8.478,5.413,11.73,2.157,8.34,4.745,-11.73,5.865,-11.73
0.495,-1.82,8.191,5.556,-11.73,-1.629,8.574,5.461,17.595,2.301,8.484,4.889,-5.865,5.865,-11.73
0.5,-1.868,8.287,5.509,-11.73,-1.677,8.622,5.413,11.73,2.301,8.628,4.889,-5.865,11.73,-11.73
0.505,-1.916,8.43,5.461,-11.73,-1.677,8.718,5.413,11.73,2.301,8.628,4.889,0.0,11.73,-11.73
0.51,-1.868,8.526,5.461,-11.73,-1.724,8.67,5.365,11.73,2.445,8.628,4.745,5.865,11.73,-11.73
0.515,-1.868,8.526,5.461,-11.73,-1.677,8.67,5.365,11.73,2.445,8.484,4.745,5.865,11.73,-11.73
0.52,-1.868,8.526,5.509,-11.73,-1.677,8.67,5.413,11.73,2.445,8.484,4.745,5.865,17.595,-11.73
0.525,-1.868,8.526,5.652,-5.865,-1.724,8.718,5.556,11.73,2.445,8.484,4.889,5.865,17.595,-5.865
0.53,-1.964,8.622,5.844,-5.865,-1.677,8.814,5.748,11.73,2.445,8.484,5.033,5.865,17.595,-11.73
0.535,-2.012,8.622,6.035,-11.73,-1.772,8.862,5.94,11.73,2.445,8.628,5.321,5.865,17.595,-11.73
0.54,-2.156,8.718,6.275,-5.865,-1.82,8.957,6.131,11.73,2.445,8.772,5.464,5.865,17.595,-5.865
0.545,-2.156,8.766,6.467,-5.865,-1.82,9.005,6.371,11.73,2.301,8.916,5.752,5.865,23.46,-11.73
0.55,-2.156,8.814,6.514,-5.865,-1.868,9.149,6.467,11.73,2.445,8.916,5.896,5.865,23.46,-5.865
0.555,-2.203,8.957,6.754,-5.865,-1.82,9.341,6.61,11.73,2.445,9.203,5.896,5.865,29.326,-5.865
0.56,-2.203,8.957,6.946,-5.865,-1.916,9.388,6.85,5.865,2.445,9.347,6.183,5.865,29.326,-5.865
0.5650000000000001,-2.395,8.957,7.233,-5.865,-1.916,9.388,7.137,5.865,2.588,9.347,6.327,17.595,35.191,-5.865
0.5700000000000001,-2.299,8.957,7.233,-5.865,-2.012,9.388,7.137,5.865,2.445,9.347,6.615,17.595,35.191,-5.865
0.5750000000000001,-2.299,9.005,6.993,-5.865,-2.06,9.341,6.946,5.865,2.732,9.347,6.471,23.46,41.056,-5.865
0.58,-2.299,8.957,6.61,-0.0,-2.06,9.101,6.562,5.865,2.732,9.203,6.183,29.326,41.056,-5.865
0.585,-2.203,8.909,6.275,-0.0,-1.964,8.957,6.275,5.865,2.732,8.772,5.896,29.326,46.921,0.0
0.59,-2.108,8.766,6.035,-0.0,-2.012,8.718,5.988,5.865,2.588,8.484,5.608,29.326,46.921,0.0
0.595,-2.347,8.718,6.514,-5.865,-1.868,8.766,6.227,5.865,2.588,8.197,5.321,23.46,46.921,0.0
0.6,-1.964,8.67,6.514,-5.865,-1.916,8.909,6.514,5.865,2.301,8.628,5.896,23.46,52.786,0.0
0.605,-2.347,8.622,6.323,-5.865,-2.108,8.814,6.275,11.73,3.02,8.628,5.752,17.595,52.786,-5.865
0.61,-2.251,8.622,5.796,-11.73,-2.108,8.67,5.844,11.73,2.588,8.628,5.608,17.595,52.786,-5.865
0.615,-2.443,8.526,5.748,-11.73,-2.06,8.43,5.604,11.73,2.876,8.053,5.033,17.595,52.786,-11.73
0.62,-2.06,8.43,5.7,-5.865,-1.868,8.478,5.604,11.73,2.301,8.053,5.033,17.595,58.651,-5.865
0.625,-2.203,8.335,5.748,-11.73,-1.964,8.478,5.652,11.73,2.732,8.197,5.033,5.865,58.651,-11.73
0.63,-2.203,8.335,5.7,-11.73,-1.868,8.43,5.652,11.73,2.445,8.197,5.033,5.865,58.651,-11.73
0.635,-2.108,8.239,5.461,-11.73,-1.916,8.383,5.413,11.73,2.588,8.197,5.033,5.865,64.516,-11.73
0.64,-2.108,8.143,5.221,-11.73,-1.868,8.287,5.173,11.73,2.588,8.053,4.745,5.865,64.516,-11.73
0.645,-1.964,8.047,4.982,-5.865,-1.82,8.239,4.886,11.73,2.445,8.053,4.458,5.865,70.381,-5.865
0.65,-1.916,8.047,4.79,-11.73,-1.724,8.239,4.742,11.73,2.588,8.053,4.17,5.865,70.381,-5.865
0.655,-1.868,8.143,4.646,-11.73,-1.677,8.335,4.598,11.73,2.301,8.053,4.026,5.865,70.381,-5.865
0.66,-1.868,8.287,4.359,-11.73,-1.724,8.43,4.311,11.73,2.445,8.197,3.883,5.865,70.381,-11.73
0.665,-1.724,8.383,4.024,-11.73,-1.629,8.478,3.976,11.73,2.301,8.197,3.595,5.865,70.381,-11.73
0.67,-1.533,8.43,3.593,-11.73,-1.533,8.526,3.593,11.73,2.301,8.34,3.164,5.865,70.381,-11.73
0.675,-1.341,8.574,3.066,-11.73,-1.485,8.67,3.066,11.73,2.445,8.484,2.732,5.865,70.381,-11.73
0.68,-1.198,8.814,2.491,-11.73,-1.437,8.814,2.491,11.73,2.445,8.484,2.157,5.865,70.381,-11.73
0.685,-1.102,9.053,1.772,-11.73,-1.389,9.005,1.82,11.73,2.445,8.628,1.582,5.865,70.381,-11.73
0.6900000000000001,-1.054,9.341,1.102,-11.73,-1.389,9.197,1.15,17.595,2.588,8.772,0.863,5.865,64.516,-11.73
0.6950000000000001,-0.958,9.58,0.527,-11.73,-1.389,9.388,0.575,17.595,2.732,9.059,0.144,5.865,58.651,-11.73
0.7000000000000001,-0.862,9.915,0.0,-11.73,-1.245,9.676,0.096,17.595,2.732,9.203,-0.431,0.0,52.786,-11.73
0.705,-0.671,10.299,-0.575,-11.73,-1.102,9.963,-0.527,11.73,2.588,9.491,-1.007,0.0,46.921,-11.73
0.71,-0.479,10.538,-1.293,-5.865,-0.958,10.203,-1.198,11.73,2.445,9.635,-1.582,-5.865,35.191,-11.73
0.715,-0.24,10.634,-2.012,-5.865,-0.862,10.299,-1.916,5.865,2.301,9.778,-2.301,-11.73,29.326,-5.865
0.72,0.0,10.73,-2.73,-0.0,-0.814,10.394,-2.682,5.865,2.445,9.922,-3.02,-17.595,17.595,-5.865
0.725,0.096,10.921,-3.257,-0.0,-0.719,10.586,-3.257,5.865,2.445,10.066,-3.739,-23.46,5.865,0.0
0.73,0.192,11.113,-3.593,5.865,-0.719,10.825,-3.593,0.0,2.588,10.21,-4.17,-29.326,-5.865,0.0
0.735,0.192,11.257,-3.688,5.865,-0.814,11.113,-3.784,-5.865,2.732,10.641,-4.458,-35.191,-17.595,0.0
0.74,0.096,11.304,-3.593,11.73,-0.862,11.352,-3.736,-11.73,2.876,11.073,-4.602,-41.056,-35.191,5.865
0.745,0.096,11.209,-3.209,23.46,-0.91,11.496,-3.401,-17.595,2.876,11.504,-4.458,-41.056,-46.921,11.73
0.75,0.096,10.969,-2.443,29.326,-0.862,11.592,-2.73,-23.46,2.876,11.792,-4.026,-41.056,-64.516,23.46
0.755,-0.096,10.634,-1.533,35.191,-1.006,11.544,-1.82,-35.191,2.876,12.079,-3.164,-41.056,-82.111,29.326
0.76,-0.479,10.155,-0.479,46.921,-1.198,11.257,-0.814,-46.921,3.02,12.079,-2.157,-35.191,-99.707,35.191
0.765,-0.814,9.58,0.527,52.786,-1.437,10.873,0.192,-52.786,3.164,11.792,-1.15,-29.326,-111.437,46.921
0.77,-0.958,8.957,1.724,58.651,-1.677,10.299,1.293,-58.651,3.164,11.36,-0.144,-17.595,-123.167,52.786
0.775,-1.15,8.383,3.209,64.516,-1.772,9.724,2.778,-64.516,3.307,10.785,1.15,-5.865,-134.897,58.651
0.78,-1.485,7.904,5.077,70.381,-1.916,9.149,4.503,-70.381,3.307,10.21,2.732,5.865,-146.628,64.516
0.785,-1.868,7.472,7.233,76.246,-1.964,8.526,6.61,-76.246,3.164,9.491,4.602,23.46,-158.358,70.381
0.79,-2.491,7.089,9.484,76.246,-2.203,7.904,8.862,-76.246,2.876,8.628,6.902,41.056,-170.088,70.381
0.795,-3.401,6.562,11.688,76.246,-2.491,7.137,11.065,-76.246,2.732,7.621,9.203,46.921,-175.953,76.246
0.8,-4.167,6.131,13.795,76.246,-2.874,6.514,13.22,-76.246,2.445,6.759,11.504,52.786,-170.088,70.381
0.805,-4.934,5.7,15.615,70.381,-3.161,5.844,15.136,-70.381,2.301,5.896,13.517,52.786,-164.223,70.381
0.81,-5.317,5.461,16.909,64.516,-3.401,5.269,16.573,-64.516,2.157,5.033,15.387,52.786,-146.628,70.381
0.8150000000000001,-5.7,5.269,17.723,58.651,-3.401,4.886,17.484,-58.651,2.013,4.314,16.681,52.786,-123.167,58.651
0.8200000000000001,-5.796,5.221,18.058,46.921,-3.497,4.551,17.963,-46.921,1.869,3.595,17.4,46.921,-99.707,52.786
0.8250000000000001,-5.748,4.982,18.106,35.191,-3.497,4.167,18.01,-35.191,1.869,3.164,17.831,41.056,-64.516,46.921
0.8300000000000001,-5.461,4.934,17.723,29.326,-3.449,4.119,17.723,-29.326,1.869,2.732,17.687,29.326,-35.191,35.191
0.835,-4.886,4.694,17.052,11.73,-3.066,4.024,17.1,-11.73,1.726,2.732,17.256,5.865,0.0,23.46
0.84,-4.503,4.79,16.238,-0.0,-2.874,4.167,16.334,0.0,1.726,2.876,16.393,0.0,29.326,11.73
0.845,-4.311,4.934,15.52,-5.865,-2.778,4.598,15.568,5.865,1.869,3.307,15.674,-17.595,58.651,0.0
0.85,-4.072,5.125,14.753,-11.73,-2.635,5.221,14.753,17.595,1.869,4.17,14.811,-23.46,82.111,-5.865
0.855,-3.593,5.413,13.891,-17.595,-2.347,5.844,13.891,17.595,1.726,5.177,13.949,-29.326,99.707,-11.73
0.86,-3.114,5.7,12.741,-17.595,-2.06,6.371,12.789,23.46,1.726,6.183,12.942,-29.326,123.167,-17.595
0.865,-2.587,5.988,11.209,-17.595,-1.82,6.706,11.352,23.46,1.582,6.759,11.648,-29.326,140.762,-17.595
0.87,-1.868,6.275,9.245,-17.595,-1.437,6.898,9.436,17.595,1.582,7.046,9.922,-23.46,152.493,-17.595
0.875,-1.198,6.61,7.089,-11.73,-1.054,7.041,7.281,17.595,1.582,7.19,7.765,-11.73,164.223,-11.73
0.88,-0.335,7.089,5.077,-11.73,-0.527,7.089,5.221,17.595,1.438,6.902,5.608,-5.865,170.088,-11.73
0.885,0.192,7.233,3.114,-17.595,-0.144,7.137,3.257,17.595,1.15,6.759,3.595,-5.865,175.953,-11.73
0.89,0.431,7.616,1.341,-17.595,0.096,7.377,1.485,23.46,1.007,6.759,1.582,-5.865,170.088,-17.595
0.895,0.766,7.904,-0.287,-23.46,0.192,7.712,-0.192,29.326,1.007,7.046,-0.144,-5.865,164.223,-17.595
0.9,0.958,8.478,-1.82,-35.191,0.335,8.191,-1.724,35.191,1.007,7.478,-1.726,-11.73,158.358,-23.46
0.905,1.006,9.149,-3.353,-41.056,0.335,8.718,-3.257,46.921,1.007,7.909,-3.307,-17.595,152.493,-35.191
0.91,1.102,9.867,-4.742,-41.056,0.335,9.388,-4.646,46.921,1.294,8.484,-4.745,-23.46,140.762,-41.056
0.915,1.198,10.586,-5.892,-46.921,0.287,10.346,-5.796,46.921,1.438,9.491,-6.04,-29.326,129.032,-46.921
0.92,1.389,11.257,-7.041,-46.921,0.383,10.921,-6.993,52.786,1.582,10.497,-7.19,-35.191,117.302,-46.921
0.925,1.389,11.688,-7.999,-41.056,0.096,11.448,-7.951,46.921,1.869,10.929,-8.34,-41.056,99.707,-46.921
0.93,1.389,11.879,-8.67,-29.326,-0.048,12.023,-8.67,35.191,2.301,11.792,-9.203,-41.056,82.111,-41.056
0.935,1.485,11.879,-8.862,-23.46,0.048,12.358,-8.909,29.326,2.588,12.511,-9.635,-46.921,64.516,-29.326
0.9400000000000001,1.341,11.879,-8.862,-11.73,-0.096,12.454,-8.957,17.595,2.445,12.942,-9.778,-41.056,41.056,-17.595
0.9450000000000001,1.054,11.736,-8.622,-5.865,-0.335,12.502,-8.766,5.865,2.732,13.086,-9.778,-41.056,17.595,-11.73
0.9500000000000001,0.814,11.4,-8.095,5.865,-0.431,12.406,-8.287,-5.865,2.876,13.23,-9.347,-29.326,-5.865,0.0
0.9550000000000001,0.671,10.969,-7.377,23.46,-0.479,12.071,-7.616,-17.595,2.876,13.086,-8.772,-23.46,-29.326,11.73
0.96,0.479,10.442,-6.562,29.326,-0.575,11.592,-6.802,-29.326,2.732,12.654,-8.053,-11.73,-52.786,23.46
0.965,0.335,10.011,-5.748,41.056,-0.671,11.161,-6.035,-35.191,2.732,12.223,-7.334,0.0,-70.381,29.326
0.97,0.287,9.628,-4.838,46.921,-0.623,10.634,-5.173,-46.921,2.588,11.648,-6.471,5.865,-87.977,41.056
0.975,0.144,9.388,-3.784,52.786,-0.575,10.059,-4.119,-52.786,2.445,10.929,-5.608,23.46,-105.572,46.921
0.98,-0.144,9.341,-2.539,52.786,-0.575,9.532,-2.97,-52.786,2.157,10.066,-4.458,35.191,-117.302,52.786
0.985,-0.623,9.197,-1.102,58.651,-0.671,9.053,-1.629,-52.786,1.869,9.203,-3.307,41.056,-134.897,52.786
0.99,-0.958,8.862,0.527,52.786,-0.91,8.526,0.0,-58.651,1.726,8.34,-1.726,41.056,-140.762,52.786
0.995,-1.293,8.622,2.203,52.786,-1.102,8.143,1.677,-52.786,1.869,7.621,-0.0,35.191,-146.628,52.786
1.0,-1.677,8.43,3.976,52.786,-1.341,7.904,3.401,-52.786,1.869,7.334,1.726,29.326,-146.628,52.786
1.0050000000000001,-2.203,8.239,5.892,46.921,-1.677,7.856,5.317,-46.921,2.013,7.046,3.451,17.595,-152.493,46.921
1.01,-2.73,8.143,7.856,41.056,-2.06,7.951,7.281,-41.056,2.157,7.334,5.608,5.865,-146.628,41.056
1.0150000000000001,-3.114,8.143,9.58,41.056,-2.299,8.191,9.101,-41.056,2.445,7.621,7.478,0.0,-140.762,35.191
1.02,-3.736,8.191,11.113,35.191,-2.73,8.287,10.73,-35.191,2.445,7.909,9.347,-5.865,-134.897,35.191
1.025,-4.215,7.999,12.55,35.191,-3.066,8.287,12.167,-35.191,2.732,8.053,10.929,-5.865,-123.167,35.191
1.03,-4.359,7.76,13.795,29.326,-3.209,8.239,13.46,-35.191,2.876,8.053,12.367,-11.73,-111.437,29.326
1.035,-4.646,7.52,14.705,29.326,-3.305,8.047,14.466,-29.326,2.876,8.053,13.517,-11.73,-99.707,29.326
1.04,-4.886,7.185,15.136,23.46,-3.545,7.712,14.993,-23.46,2.876,7.765,14.38,-5.865,-82.111,29.326
1.045,-4.838,6.658,15.089,23.46,-3.64,7.137,15.041,-23.46,3.164,7.334,14.668,-5.865,-64.516,23.46
1.05,-4.646,6.179,14.945,17.595,-3.401,6.514,14.897,-17.595,3.02,6.615,14.668,0.0,-46.921,17.595
1.055,-4.694,6.083,14.657,11.73,-3.353,6.035,14.657,-11.73,2.876,5.752,14.38,0.0,-29.326,11.73
1.06,-5.077,6.467,14.226,5.865,-3.593,5.988,14.274,-5.865,2.732,5.321,14.092,5.865,-17.595,5.865
1.065,-4.982,6.658,13.699,5.865,-3.688,6.131,13.699,0.0,3.02,5.177,13.661,0.0,5.865,5.865
1.07,-4.359,6.61,13.173,5.865,-3.257,6.227,13.173,0.0,2.876,5.321,13.086,-5.865,23.46,5.865
1.075,-3.976,6.323,12.454,-0.0,-2.97,6.419,12.502,0.0,2.588,5.608,12.511,-17.595,46.921,5.865
1.08,-3.497,5.844,11.736,-0.0,-2.778,6.419,11.736,0.0,2.732,6.04,11.648,-23.46,58.651,5.865
1.085,-3.114,5.652,10.969,-5.865,-2.347,6.275,11.017,11.73,2.445,6.327,10.929,-23.46,76.246,0.0
1.09,-3.114,5.748,10.011,-11.73,-2.443,6.275,10.059,17.595,2.301,6.327,10.066,-23.46,87.977,-11.73
1.095,-3.066,6.035,8.814,-17.595,-2.443,6.467,8.957,17.595,2.588,6.471,9.059,-17.595,93.842,-17.595
1.1,-2.587,6.371,7.472,-17.595,-2.203,6.61,7.568,17.595,2.588,6.471,7.765,-11.73,105.572,-11.73
1.105,-1.82,6.706,6.083,-11.73,-1.677,6.706,6.227,17.595,2.301,6.471,6.327,-5.865,111.437,-17.595
1.11,-1.15,7.089,4.79,-11.73,-1.245,6.993,4.886,17.595,2.013,6.615,4.889,-5.865,117.302,-11.73
1.115,-0.671,7.329,3.497,-17.595,-1.006,7.281,3.593,23.46,1.869,6.759,3.595,-5.865,117.302,-11.73
1.12,-0.383,7.568,2.443,-17.595,-0.814,7.616,2.539,23.46,2.013,7.19,2.301,-5.865,117.302,-17.595
1.125,-0.383,7.76,1.533,-29.326,-0.814,7.904,1.581,29.326,2.013,7.621,1.294,-11.73,111.437,-23.46
1.1300000000000001,-0.623,8.047,0.719,-29.326,-1.054,8.191,0.766,35.191,2.157,7.909,0.431,-11.73,105.572,-23.46
1.135,-0.862,8.383,0.096,-29.326,-1.293,8.526,0.096,35.191,2.445,8.34,-0.288,-11.73,99.707,-29.326
1.1400000000000001,-1.006,8.622,-0.383,-29.326,-1.437,8.909,-0.383,29.326,2.588,8.772,-0.863,-11.73,87.977,-23.46
1.145,-0.91,8.766,-0.719,-23.46,-1.437,9.197,-0.766,23.46,2.732,9.203,-1.294,-5.865,82.111,-23.46
1.1500000000000001,-0.766,8.814,-0.958,-17.595,-1.341,9.245,-1.006,23.46,2.876,9.347,-1.582,-5.865,70.381,-17.595
1.155,-0.814,8.814,-1.15,-11.73,-1.389,9.245,-1.198,17.595,2.876,9.491,-1.869,0.0,64.516,-17.595
1.16,-1.006,8.957,-1.245,-11.73,-1.533,9.245,-1.293,17.595,2.876,9.347,-2.013,0.0,52.786,-11.73
1.165,-1.15,9.005,-1.102,-11.73,-1.581,9.197,-1.245,11.73,2.876,9.203,-2.013,5.865,41.056,-11.73
1.17,-1.293,9.101,-0.862,-5.865,-1.677,9.101,-1.006,11.73,3.02,9.059,-1.869,5.865,35.191,-11.73
1.175,-1.389,8.957,-0.431,-5.865,-1.82,8.957,-0.527,5.865,3.02,8.916,-1.582,5.865,23.46,-5.865
1.18,-1.485,9.005,-0.144,-0.0,-1.772,8.957,-0.287,5.865,3.02,8.772,-1.15,5.865,17.595,-5.865
1.185,-1.581,8.909,0.287,-0.0,-1.772,8.862,0.096,0.0,2.876,8.628,-0.863,5.865,11.73,0.0
1.19,-1.82,8.766,0.719,-0.0,-1.916,8.718,0.527,0.0,2.876,8.484,-0.431,5.865,5.865,0.0
1.195,-1.916,8.814,1.15,-0.0,-1.964,8.766,1.006,0.0,3.02,8.484,0.144,0.0,0.0,0.0
1.2,-1.916,8.574,1.772,-0.0,-2.012,8.718,1.581,0.0,2.876,8.484,0.575,0.0,-5.865,0.0
1.205,-2.156,8.383,2.299,-0.0,-2.108,8.574,2.108,0.0,3.02,8.484,1.15,-5.865,-11.73,0.0
1.21,-2.251,8.287,2.73,5.865,-2.203,8.574,2.587,0.0,3.02,8.484,1.726,-5.865,-11.73,0.0
1.215,-2.299,8.239,3.161,5.865,-2.203,8.478,3.018,-5.865,3.02,8.484,2.157,-5.865,-11.73,5.865
1.22,-2.299,8.335,3.497,5.865,-2.203,8.478,3.353,-5.865,3.02,8.34,2.588,-5.865,-11.73,5.865
1.225,-2.347,8.335,3.88,5.865,-2.203,8.43,3.736,-5.865,2.876,8.197,2.876,-5.865,-11.73,5.865
1.23,-2.395,8.335,4.263,5.865,-2.203,8.478,4.072,-5.865,2.876,8.197,3.307,-5.865,-17.595,5.865
1.235,-2.491,8.287,4.551,5.865,-2.299,8.478,4.407,-5.865,2.876,8.34,3.595,-5.865,-11.73,5.865
1.24,-2.491,8.143,4.742,5.865,-2.299,8.43,4.646,-5.865,3.02,8.34,3.883,-5.865,-11.73,5.865
1.245,-2.539,8.047,5.03,5.865,-2.347,8.335,4.886,-5.865,3.02,8.197,4.17,-5.865,-11.73,5.865
1.25,-2.587,8.143,5.365,5.865,-2.395,8.67,5.221,0.0,3.02,8.484,4.458,0.0,-11.73,5.865
1.2550000000000001,-2.635,8.526,5.556,5.865,-2.491,9.197,5.461,0.0,3.164,9.059,4.745,0.0,-5.865,5.865
1.26,-2.73,8.862,5.556,-0.0,-2.539,9.58,5.509,0.0,3.307,9.778,5.033,5.865,-5.865,5.865
1.2650000000000001,-2.874,9.053,4.982,5.865,-2.635,9.293,5.077,0.0,3.451,9.635,4.745,5.865,-5.865,5.865
1.27,-3.018,9.053,4.263,5.865,-2.73,8.814,4.263,-5.865,3.307,8.772,4.026,23.46,-5.865,5.865
1.2750000000000001,-2.778,8.909,4.119,5.865,-2.539,8.622,4.024,-5.865,3.307,8.197,3.451,23.46,-5.865,5.865
1.28,-2.635,8.478,4.215,5.865,-2.491,8.383,4.167,0.0,3.164,7.909,3.451,17.595,0.0,5.865
1.285,-2.682,8.095,4.311,5.865,-2.539,8.143,4.215,0.0,3.164,7.909,3.595,5.865,0.0,5.865
1.29,-2.826,7.999,4.407,-0.0,-2.635,8.095,4.311,0.0,3.164,7.765,3.739,5.865,0.0,0.0
1.295,-2.826,7.999,4.359,-0.0,-2.682,8.143,4.263,0.0,3.307,7.909,3.739,5.865,0.0,0.0
1.3,-2.73,7.808,4.311,-0.0,-2.587,8.047,4.215,5.865,3.307,7.909,3.595,0.0,5.865,0.0
1.305,-2.539,7.999,4.359,-5.865,-2.587,8.526,4.215,5.865,3.307,8.053,3.595,0.0,5.865,0.0
1.31,-2.395,8.814,4.407,-11.73,-2.587,9.341,4.359,11.73,3.595,9.059,3.739,0.0,5.865,-5.865
1.315,-3.114,10.921,3.114,-17.595,-2.539,10.634,3.305,23.46,3.451,10.066,3.595,5.865,5.865,-11.73
1.32,-2.73,8.718,2.97,-29.326,-2.73,8.622,2.682,29.326,3.02,9.491,2.157,5.865,0.0,-23.46
1.325,-2.778,7.041,3.832,-17.595,-2.874,7.041,3.688,23.46,3.739,7.19,2.588,5.865,5.865,-23.46
1.33,-3.114,7.329,4.359,-0.0,-2.73,7.616,4.167,5.865,3.451,7.046,3.307,0.0,5.865,-11.73
1.335,-3.018,7.616,4.551,-5.865,-2.635,7.76,4.455,5.865,3.164,7.621,3.739,0.0,5.865,0.0
1.34,-2.874,7.904,4.359,-11.73,-2.635,7.904,4.311,11.73,3.164,7.621,3.883,0.0,5.865,-5.865
1.345,-2.682,8.191,4.119,-11.73,-2.443,8.143,4.072,11.73,3.164,7.765,3.595,0.0,11.73,-11.73
1.35,-2.539,8.43,3.976,-11.73,-2.395,8.43,3.928,11.73,3.164,8.053,3.451,0.0,17.595,-11.73
1.355,-2.203,8.718,3.976,-11.73,-2.156,8.814,3.88,11.73,3.02,8.34,3.307,0.0,17.595,-11.73
1.36,-2.108,8.909,3.976,-11.73,-2.012,9.053,3.928,17.595,2.876,8.772,3.307,0.0,17.595,-11.73
1.365,-2.203,9.053,3.928,-17.595,-2.108,9.197,3.88,17.595,2.876,8.916,3.307,-5.865,17.595,-11.73
1.37,-2.299,9.149,3.928,-17.595,-2.203,9.245,3.832,23.46,3.02,9.059,3.307,-5.865,17.595,-17.595
1.375,-2.347,9.293,3.976,-17.595,-2.251,9.341,3.928,23.46,3.02,9.059,3.307,0.0,17.595,-17.595
1.3800000000000001,-2.299,9.436,4.072,-17.595,-2.203,9.484,3.976,17.595,3.02,9.203,3.307,0.0,17.595,-17.595
1.385,-2.251,9.484,4.119,-11.73,-2.156,9.484,4.024,17.595,3.02,9.203,3.307,-5.865,17.595,-17.595
1.3900000000000001,-2.251,9.484,4.119,-11.73,-2.108,9.484,4.072,11.73,3.02,9.203,3.451,-5.865,17.595,-11.73
1.395,-2.299,9.388,4.167,-11.73,-2.156,9.436,4.072,11.73,2.876,9.203,3.451,-5.865,17.595,-11.73
1.4000000000000001,-2.395,9.245,4.215,-11.73,-2.203,9.293,4.072,11.73,2.876,9.059,3.451,-5.865,17.595,-11.73
1.405,-2.443,9.149,4.167,-11.73,-2.251,9.197,4.119,11.73,3.02,8.916,3.451,-11.73,17.595,-11.73
1.41,-2.491,9.053,4.119,-11.73,-2.299,9.149,4.024,11.73,3.02,8.916,3.451,-11.73,17.595,-11.73
1.415,-2.443,9.005,4.024,-11.73,-2.299,9.053,3.976,11.73,3.02,8.772,3.451,-17.595,23.46,-5.865
1.42,-2.347,8.862,3.928,-11.73,-2.203,9.005,3.88,11.73,3.02,8.772,3.307,-17.595,23.46,-11.73
1.425,-2.347,8.814,3.736,-11.73,-2.251,9.005,3.688,11.73,3.02,8.772,3.164,-17.595,23.46,-11.73
1.43,-2.347,8.766,3.545,-11.73,-2.299,8.957,3.497,11.73,3.02,8.772,3.02,-17.595,23.46,-11.73
1.435,-2.251,8.718,3.401,-11.73,-2.251,9.053,3.353,11.73,3.164,8.916,2.876,-17.595,23.46,-11.73
1.44,-2.156,8.622,3.305,-11.73,-2.203,9.101,3.257,11.73,3.164,9.059,2.732,-17.595,23.46,-5.865
1.445,-2.108,8.526,3.161,-5.865,-2.203,9.053,3.114,11.73,3.164,9.203,2.588,-17.595,23.46,-5.865
1.45,-2.156,8.383,3.066,-5.865,-2.203,8.909,3.018,11.73,3.164,9.059,2.445,-11.73,17.595,-11.73
1.455,-2.156,8.239,3.066,-11.73,-2.203,8.766,2.97,11.73,3.164,8.916,2.301,-5.865,17.595,-11.73
1.46,-2.108,8.239,3.066,-11.73,-2.156,8.718,3.018,11.73,3.164,8.916,2.445,-5.865,11.73,-11.73
1.465,-2.108,8.239,3.114,-11.73,-2.108,8.67,3.018,17.595,3.02,8.772,2.445,0.0,11.73,-11.73
1.47,-2.108,8.239,3.161,-11.73,-2.108,8.622,3.114,17.595,3.02,8.628,2.445,5.865,5.865,-11.73
1.475,-2.108,8.287,3.305,-11.73,-2.108,8.574,3.209,17.595,2.876,8.628,2.445,5.865,5.865,-11.73
1.48,-2.108,8.335,3.401,-17.595,-2.06,8.622,3.305,17.595,2.876,8.484,2.588,5.865,5.865,-17.595
1.485,-2.06,8.335,3.497,-17.595,-2.012,8.574,3.401,23.46,2.876,8.484,2.732,5.865,0.0,-17.595
1.49,-2.06,8.383,3.593,-17.595,-2.012,8.574,3.497,23.46,2.876,8.34,2.876,17.595,0.0,-17.595
1.495,-2.108,8.478,3.736,-17.595,-2.012,8.622,3.64,23.46,2.732,8.34,3.02,17.595,0.0,-17.595
1.5,-2.156,8.622,3.784,-17.595,-2.06,8.67,3.688,23.46,2.732,8.484,3.02,17.595,0.0,-17.595
1.5050000000000001,-2.203,8.622,3.928,-17.595,-2.06,8.67,3.784,23.46,2.876,8.484,3.164,17.595,0.0,-17.595
1.51,-2.203,8.622,3.976,-17.595,-2.06,8.622,3.88,23.46,2.876,8.34,3.307,17.595,0.0,-17.595
1.5150000000000001,-2.251,8.574,4.024,-17.595,-2.108,8.574,3.928,17.595,2.876,8.34,3.307,5.865,0.0,-17.595
1.52,-2.299,8.574,4.167,-17.595,-2.203,8.574,4.024,17.595,2.876,8.197,3.451,5.865,0.0,-17.595
1.5250000000000001,-2.395,8.67,4.215,-17.595,-2.203,8.622,4.119,17.595,2.876,8.34,3.451,5.865,0.0,-17.595
1.53,-2.443,8.909,4.167,-17.595,-2.251,8.814,4.119,17.595,2.876,8.34,3.595,5.865,0.0,-17.595
1.5350000000000001,-2.491,9.101,4.167,-17.595,-2.347,9.005,4.072,17.595,3.02,8.484,3.451,5.865,0.0,-17.595
1.54,-2.539,9.341,4.215,-17.595,-2.347,9.245,4.119,17.595,3.02,8.772,3.451,5.865,5.865,-17.595
1.545,-2.587,9.676,4.263,-17.595,-2.395,9.484,4.215,17.595,3.164,8.916,3.595,0.0,5.865,-17.595
1.55,-2.587,10.107,4.119,-17.595,-2.395,9.867,4.119,17.595,3.164,9.203,3.595,-5.865,5.865,-17.595
1.555,-2.539,10.49,4.072,-17.595,-2.347,10.203,3.976,17.595,3.164,9.491,3.307,-5.865,5.865,-17.595
1.56,-2.539,10.825,4.072,-17.595,-2.299,10.586,3.976,23.46,3.02,9.922,3.451,-11.73,11.73,-17.595
1.565,-2.73,11.304,3.832,-17.595,-2.395,10.825,3.88,17.595,3.164,10.21,3.307,-17.595,11.73,-17.595
1.57,-2.682,11.688,3.593,-17.595,-2.443,11.209,3.497,17.595,3.164,10.354,3.02,-23.46,11.73,-17.595
1.575,-2.539,11.927,3.688,-11.73,-2.347,11.64,3.545,17.595,3.307,10.785,2.876,-29.326,17.595,-17.595
1.58,-2.491,12.262,3.832,-11.73,-2.347,12.215,3.688,17.595,3.307,11.504,3.02,-35.191,17.595,-11.73
1.585,-2.491,12.55,3.832,-11.73,-2.395,12.694,3.736,11.73,3.307,12.223,3.164,-41.056,17.595,-11.73
1.59,-2.587,12.933,3.88,-5.865,-2.491,13.316,3.784,11.73,3.595,12.942,3.164,-41.056,17.595,-11.73
1.595,-2.635,13.364,3.88,-5.865,-2.587,13.843,3.832,5.865,3.739,13.661,3.307,-41.056,17.595,-5.865
1.6,-2.682,13.699,3.784,-0.0,-2.635,14.131,3.688,5.865,3.883,14.236,3.307,-41.056,17.595,-5.865
1.605,-2.826,13.843,3.593,5.865,-2.778,14.226,3.497,0.0,3.883,14.38,3.02,-35.191,17.595,0.0
1.61,-2.778,13.652,3.353,11.73,-2.778,14.131,3.305,-11.73,4.026,14.236,2.876,-29.326,17.595,11.73
1.615,-2.635,13.268,3.161,23.46,-2.73,13.604,3.114,-17.595,4.026,13.949,2.732,-29.326,17.595,17.595
1.62,-2.539,12.789,3.066,29.326,-2.682,13.077,2.97,-23.46,3.883,13.373,2.445,-23.46,11.73,23.46
1.625,-2.491,12.262,2.874,35.191,-2.587,12.55,2.826,-35.191,3.883,12.654,2.301,-23.46,11.73,29.326
1.6300000000000001,-2.443,11.592,2.826,41.056,-2.539,11.879,2.73,-35.191,3.739,12.079,2.157,-23.46,5.865,35.191
1.635,-2.539,11.017,2.826,41.056,-2.539,11.257,2.778,-41.056,3.739,11.36,2.157,-23.46,5.865,41.056
1.6400000000000001,-2.443,10.442,2.97,41.056,-2.443,10.73,2.874,-41.056,3.595,10.785,2.157,-23.46,0.0,41.056
1.645,-2.443,9.963,3.066,41.056,-2.443,10.251,2.97,-41.056,3.451,10.354,2.301,-23.46,0.0,41.056
1.6500000000000001,-2.491,9.628,3.161,46.921,-2.443,9.963,3.066,-41.056,3.451,10.066,2.445,-23.46,0.0,41.056
1.655,-2.395,9.293,3.161,41.056,-2.347,9.628,3.066,-41.056,3.307,9.778,2.445,-23.46,-5.865,41.056
1.6600000000000001,-2.299,8.957,3.209,46.921,-2.299,9.293,3.114,-41.056,3.307,9.491,2.445,-17.595,-5.865,41.056
1.665,-2.299,8.622,3.209,46.921,-2.251,8.909,3.161,-41.056,3.164,9.059,2.445,-17.595,-5.865,41.056
1.67,-2.251,8.287,3.209,46.921,-2.251,8.526,3.114,-46.921,3.164,8.628,2.588,-17.595,-5.865,46.921
1.675,-2.156,7.808,3.305,46.921,-2.108,8.047,3.209,-46.921,3.02,8.197,2.588,-17.595,-5.865,46.921
1.68,-2.108,7.281,3.497,46.921,-2.012,7.472,3.401,-46.921,2.876,7.621,2.732,-17.595,-5.865,46.921
1.685,-2.156,6.898,3.593,46.921,-2.012,6.993,3.497,-41.056,2.732,7.046,2.876,-17.595,-5.865,46.921
1.69,-2.299,6.419,3.64,46.921,-2.06,6.371,3.545,-41.056,2.732,6.471,2.876,-17.595,-5.865,46.921
1.695,-2.156,5.844,3.784,41.056,-1.82,5.652,3.64,-41.056,2.445,5.608,3.02,-17.595,-5.865,41.056
1.7,-1.916,5.317,4.119,35.191,-1.677,5.317,3.976,-35.191,2.157,5.033,3.164,-23.46,-5.865,35.191
1.705,-1.772,4.886,4.359,35.191,-1.533,5.125,4.263,-29.326,2.013,4.889,3.451,-29.326,0.0,35.191
1.71,-1.772,4.551,4.455,29.326,-1.581,4.934,4.359,-29.326,2.013,4.889,3.739,-29.326,0.0,29.326
1.715,-1.724,4.167,4.455,23.46,-1.485,4.598,4.407,-23.46,1.869,4.745,3.739,-29.326,5.865,29.326
1.72,-1.724,3.784,4.455,17.595,-1.581,4.263,4.359,-17.595,1.869,4.458,3.739,-29.326,5.865,23.46
1.725,-1.629,3.353,4.455,11.73,-1.485,3.976,4.359,-11.73,2.013,4.17,3.739,-23.46,5.865,17.595
1.73,-1.485,2.922,4.455,5.865,-1.341,3.497,4.407,-5.865,1.726,3.883,3.739,-23.46,5.865,11.73
1.735,-1.389,2.443,4.503,-0.0,-1.293,3.209,4.455,0.0,1.726,3.451,3.739,-17.595,5.865,5.865
1.74,-1.198,2.203,4.455,-5.865,-1.102,2.922,4.407,5.865,1.582,3.307,3.739,-11.73,5.865,0.0
1.745,-1.15,2.06,4.263,-5.865,-1.102,2.73,4.263,11.73,1.438,3.02,3.739,-5.865,11.73,-5.865
1.75,-1.102,1.964,4.119,-17.595,-1.054,2.587,4.072,17.595,1.438,2.876,3.451,0.0,11.73,-11.73
1.7550000000000001,-1.15,1.677,4.072,-23.46,-1.054,2.203,4.024,23.46,1.438,2.588,3.307,5.865,5.865,-17.595
1.76,-1.245,1.198,3.976,-29.326,-1.054,1.581,3.928,29.326,1.294,1.869,3.307,17.595,5.865,-23.46
1.7650000000000001,-1.341,0.431,3.832,-35.191,-1.15,0.814,3.832,41.056,1.294,1.15,3.307,17.595,5.865,-35.191
1.77,-1.15,-0.24,3.784,-46.921,-1.054,0.048,3.736,46.921,1.294,0.288,3.02,23.46,5.865,-41.056
1.7750000000000001,-0.814,-0.766,3.784,-58.651,-0.766,-0.431,3.736,58.651,1.007,-0.575,3.02,23.46,11.73,-52.786
1.78,-0.671,-1.006,3.64,-70.381,-0.671,-0.527,3.64,76.246,0.863,-0.719,3.02,23.46,11.73,-64.516
1.7850000000000001,-0.431,-0.671,3.688,-87.977,-0.431,-0.527,3.593,87.977,0.719,-0.719,2.876,29.326,11.73,-82.111
1.79,-0.048,0.766,3.928,-99.707,0.048,0.335,3.832,105.572,0.288,-0.719,2.876,29.326,11.73,-93.842
1.795,0.0,2.826,3.928,-117.302,0.287,2.299,3.928,123.167,-0.144,0.575,3.164,29.326,11.73,-111.437
1.8,0.0,4.838,3.593,-123.167,0.24,4.646,3.593,129.032,-0.144,3.164,3.02,29.326,11.73,-123.167
1.805,0.144,6.275,3.497,-129.032,0.192,6.275,3.401,134.897,0.288,5.464,2.732,29.326,17.595,-129.032
1.81,0.192,6.946,3.64,-123.167,0.24,6.898,3.497,129.032,0.431,6.615,2.732,23.46,17.595,-129.032
1.815,0.719,17.1,7.568,-105.572,-1.964,20.884,6.993,117.302,1.582,11.216,3.164,29.326,17.595,-123.167
1.82,-13.604,23.902,-7.856,-58.651,-10.203,24.333,-2.347,70.381,11.792,45.009,6.04,52.786,5.865,-93.842
1.825,7.233,14.801,-1.15,-93.842,4.407,13.795,-3.832,93.842,1.726,27.753,-12.511,140.762,-35.191,-41.056
1.83,6.227,4.167,1.724,-5.865,5.125,6.035,2.06,29.326,-4.458,3.307,-0.144,134.897,-29.326,-35.191
1.835,-5.461,14.562,-0.91,58.651,-3.88,15.28,-0.287,-58.651,2.588,11.792,0.575,99.707,-29.326,46.921
1.84,-4.455,11.017,1.245,-17.595,-4.311,8.239,-0.096,5.865,5.752,10.21,-2.445,117.302,-64.516,46.921
1.845,-1.629,9.915,4.79,-58.651,-0.527,8.383,4.263,64.516,2.157,4.889,1.869,117.302,-64.516,-41.056
1.85,-3.976,11.113,5.173,-52.786,-2.587,9.532,5.125,58.651,1.007,7.334,4.458,87.977,-46.921,-64.516
1.855,-3.832,13.173,4.215,-58.651,-3.161,11.688,4.215,58.651,3.451,9.203,4.314,58.651,-35.191,-52.786
1.86,-2.108,13.891,4.598,-70.381,-2.012,12.885,4.359,76.246,3.164,10.785,3.595,41.056,-23.46,-64.516
1.865,-1.724,13.987,5.077,-70.381,-1.485,13.652,4.934,76.246,2.876,12.654,4.17,23.46,-11.73,-70.381
1.87,-2.156,13.508,5.221,-64.516,-1.82,13.556,5.125,70.381,2.732,13.23,4.458,5.865,-5.865,-70.381
1.875,-2.682,12.741,5.365,-52.786,-2.443,12.981,5.221,64.516,3.164,13.086,4.602,5.865,-5.865,-64.516
1.8800000000000001,-2.826,12.023,5.652,-46.921,-2.587,12.358,5.509,46.921,3.595,12.654,4.889,0.0,-5.865,-58.651
1.885,-2.97,11.592,5.413,-29.326,-2.635,11.688,5.221,35.191,3.451,11.935,5.033,0.0,0.0,-41.056
1.8900000000000001,-2.203,10.586,5.844,-11.73,-2.299,11.113,5.748,17.595,3.451,11.36,4.889,0.0,0.0,-23.46
1.895,-1.677,10.059,6.227,-0.0,-1.629,10.73,6.131,5.865,3.02,11.073,5.321,0.0,5.865,-11.73
1.9000000000000001,-1.724,10.059,5.844,5.865,-1.533,10.394,5.892,0.0,2.588,10.641,5.608,0.0,5.865,0.0
1.905,-1.868,10.299,5.077,11.73,-1.677,10.155,5.125,-5.865,2.445,10.066,5.033,5.865,5.865,5.865
1.9100000000000001,-1.533,10.155,4.742,11.73,-1.485,10.011,4.694,-5.865,2.588,9.635,4.314,5.865,0.0,11.73
1.915,-1.293,9.963,4.551,11.73,-1.293,9.915,4.503,-11.73,2.301,9.491,4.026,5.865,5.865,11.73
1.92,-1.389,9.82,4.263,17.595,-1.293,9.82,4.263,-11.73,2.301,9.491,3.739,0.0,5.865,17.595
1.925,-1.341,9.772,3.976,11.73,-1.293,9.82,3.928,-11.73,2.301,9.491,3.451,0.0,0.0,17.595
1.93,-1.293,9.676,3.64,11.73,-1.198,9.676,3.64,-5.865,2.157,9.347,3.164,-5.865,0.0,11.73
1.935,-1.15,9.484,3.497,5.865,-1.102,9.58,3.449,-5.865,2.013,9.347,2.876,-5.865,0.0,11.73
1.94,-1.054,9.388,3.353,5.865,-1.006,9.532,3.257,0.0,2.013,9.347,2.732,-11.73,0.0,5.865
1.945,-1.006,9.245,3.305,-0.0,-0.958,9.532,3.209,5.865,1.869,9.347,2.588,-11.73,0.0,0.0
1.95,-1.006,9.197,3.257,-5.865,-0.958,9.484,3.209,5.865,2.013,9.347,2.588,-11.73,0.0,0.0
1.955,-0.958,9.197,3.305,-5.865,-0.91,9.436,3.209,5.865,1.869,9.347,2.588,-5.865,-5.865,-5.865
1.96,-0.91,9.245,3.401,-5.865,-0.814,9.388,3.305,11.73,1.869,9.347,2.732,-5.865,-5.865,-5.865
1.965,-0.91,9.245,3.497,-5.865,-0.814,9.388,3.449,11.73,1.726,9.203,2.732,-5.865,-5.865,-5.865
1.97,-0.958,9.245,3.64,-5.865,-0.814,9.341,3.545,11.73,1.726,9.203,2.876,-5.865,-5.865,-5.865
1.975,-0.958,9.149,3.736,-5.865,-0.766,9.245,3.64,11.73,1.726,9.059,3.02,-5.865,-5.865,-5.865
1.98,-1.006,9.005,3.88,-5.865,-0.814,9.053,3.784,5.865,1.582,8.916,3.164,-5.865,-5.865,-5.865
1.985,-1.006,8.814,3.976,-5.865,-0.814,8.909,3.88,5.865,1.582,8.772,3.307,-5.865,-5.865,-5.865
1.99,-0.958,8.622,4.024,-5.865,-0.814,8.814,3.928,5.865,1.582,8.628,3.307,-11.73,-5.865,-5.865
1.995,-0.958,8.43,4.024,-0.0,-0.766,8.67,3.928,5.865,1.582,8.628,3.307,-11.73,-5.865,0.0
2.0,-0.814,8.239,4.119,-0.0,-0.719,8.478,4.024,5.865,1.582,8.484,3.307,-11.73,-5.865,0.0
2.005,-0.719,8.143,4.215,-0.0,-0.575,8.335,4.119,5.865,1.438,8.197,3.451,-11.73,-5.865,0.0
2.0100000000000002,-0.719,7.999,4.263,-0.0,-0.575,8.239,4.167,0.0,1.438,8.197,3.595,-11.73,-5.865,0.0
2.015,-0.671,7.951,4.359,-0.0,-0.575,8.095,4.263,0.0,1.438,8.053,3.595,-11.73,-5.865,0.0
2.02,-0.719,7.904,4.311,-0.0,-0.527,7.951,4.215,5.865,1.294,7.765,3.595,-11.73,-5.865,0.0
2.025,-0.671,7.951,4.263,-0.0,-0.431,7.904,4.215,5.865,1.15,7.621,3.595,-11.73,-5.865,0.0
2.0300000000000002,-0.719,8.143,4.024,-0.0,-0.527,7.856,3.928,5.865,1.15,7.478,3.451,-11.73,-5.865,0.0
2.035,-0.479,7.808,4.311,-0.0,-0.383,7.999,4.215,5.865,1.294,7.621,3.451,-17.595,0.0,0.0
2.04,-0.479,7.904,4.167,-5.865,-0.335,7.904,4.167,5.865,1.15,7.765,3.595,-17.595,0.0,0.0
2.045,-0.527,7.904,3.976,-5.865,-0.431,7.951,3.928,5.865,1.15,7.621,3.451,-17.595,0.0,-5.865
2.05,-0.527,7.999,3.832,-5.865,-0.335,7.951,3.784,11.73,1.15,7.621,3.164,-23.46,0.0,-5.865
2.055,-0.383,8.047,3.88,-11.73,-0.383,8.047,3.832,11.73,1.15,7.621,3.164,-23.46,0.0,-5.865
2.06,-0.479,8.191,3.832,-11.73,-0.335,8.191,3.832,11.73,1.15,7.909,3.164,-23.46,0.0,-11.73
2.065,-0.431,8.239,3.88,-11.73,-0.335,8.383,3.832,11.73,1.007,8.053,3.164,-23.46,0.0,-11.73
2.07,-0.527,8.335,3.832,-11.73,-0.335,8.526,3.784,17.595,1.15,8.34,3.164,-29.326,0.0,-11.73
2.075,-0.431,8.478,3.832,-11.73,-0.335,8.67,3.736,11.73,1.15,8.484,3.164,-29.326,0.0,-11.73
2.08,-0.383,8.574,3.784,-11.73,-0.287,8.766,3.688,11.73,1.15,8.628,3.164,-29.326,-5.865,-11.73
2.085,-0.287,8.67,3.736,-11.73,-0.24,8.909,3.64,11.73,1.15,8.772,3.02,-23.46,-5.865,-11.73
2.09,-0.287,8.814,3.688,-11.73,-0.24,9.005,3.593,11.73,1.15,8.916,3.02,-23.46,-5.865,-11.73
2.095,-0.24,8.909,3.593,-11.73,-0.144,9.149,3.545,11.73,1.007,8.916,3.02,-23.46,-5.865,-11.73
2.1,-0.287,9.101,3.449,-11.73,-0.192,9.293,3.401,11.73,1.007,9.059,2.876,-23.46,-5.865,-11.73
2.105,-0.24,9.293,3.401,-11.73,-0.144,9.436,3.353,11.73,1.15,9.203,2.732,-17.595,-5.865,-11.73
2.11,-0.096,9.436,3.305,-5.865,-0.096,9.58,3.257,11.73,1.15,9.347,2.732,-17.595,-5.865,-11.73
2.115,-0.096,9.532,3.114,-5.865,-0.048,9.58,3.066,5.865,1.007,9.347,2.588,-17.595,-5.865,-5.865
2.12,0.0,9.436,2.922,-5.865,0.048,9.484,2.922,5.865,1.007,9.347,2.301,-17.595,-11.73,-5.865
2.125,0.096,9.388,2.778,-0.0,0.096,9.484,2.73,5.865,0.863,9.203,2.157,-17.595,-11.73,-5.865
2.13,0.192,9.388,2.73,-0.0,0.192,9.532,2.682,5.865,0.863,9.347,2.013,-17.595,-11.73,0.0
2.1350000000000002,0.24,9.58,2.826,-5.865,0.24,9.82,2.73,5.865,0.863,9.635,2.013,-23.46,-11.73,-5.865
2.14,0.096,9.867,2.826,-5.865,0.192,10.155,2.778,5.865,0.863,9.922,2.157,-17.595,-17.595,0.0
2.145,-0.048,10.107,2.826,-5.865,0.048,10.394,2.73,5.865,1.007,10.354,2.157,-17.595,-17.595,0.0
2.15,-0.144,10.299,2.826,-0.0,-0.048,10.634,2.73,0.0,1.007,10.641,2.157,-17.595,-17.595,0.0
2.1550000000000002,-0.144,10.394,2.778,5.865,-0.048,10.778,2.73,0.0,1.15,10.785,2.157,-11.73,-23.46,0.0
2.16,-0.048,10.538,2.635,11.73,-0.048,10.873,2.539,-5.865,1.15,10.929,2.157,-5.865,-23.46,5.865
2.165,-0.048,10.346,2.347,11.73,-0.048,10.778,2.347,-11.73,1.007,10.929,1.869,-5.865,-23.46,11.73
2.17,0.096,10.442,2.156,17.595,0.096,10.586,2.203,-11.73,1.294,10.929,1.438,-5.865,-23.46,17.595
2.1750000000000003,0.144,10.299,1.916,17.595,0.144,10.346,1.82,-17.595,1.007,10.21,1.294,0.0,-29.326,17.595
2.18,0.048,10.299,1.724,17.595,0.048,10.251,1.677,-17.595,1.007,9.922,1.15,0.0,-29.326,17.595
2.185,0.0,10.346,1.724,17.595,0.0,10.299,1.629,-11.73,1.15,9.922,1.007,-5.865,-35.191,17.595
2.19,0.048,10.394,1.772,11.73,0.048,10.394,1.677,-11.73,1.007,10.066,1.007,-5.865,-35.191,17.595
2.195,0.048,10.586,2.012,17.595,0.144,10.634,1.868,-11.73,1.007,10.21,1.15,-11.73,-35.191,17.595
2.2,0.192,10.538,2.299,11.73,0.192,10.873,2.156,-11.73,1.007,10.641,1.294,-11.73,-41.056,17.595
2.205,0.24,10.442,2.491,11.73,0.287,10.921,2.395,-11.73,0.863,10.929,1.582,-11.73,-41.056,11.73
2.21,0.096,10.442,2.491,11.73,0.192,10.825,2.395,-5.865,0.863,10.929,1.726,-11.73,-41.056,11.73
2.215,-0.144,10.299,2.587,5.865,0.0,10.682,2.443,-5.865,1.007,10.785,1.726,-5.865,-46.921,11.73
2.22,-0.192,10.203,2.874,11.73,-0.144,10.49,2.778,-5.865,1.15,10.641,1.869,-5.865,-46.921,5.865
2.225,-0.24,10.394,2.97,11.73,-0.048,10.634,2.874,-11.73,1.15,10.497,2.157,0.0,-46.921,11.73
2.23,-0.24,10.538,3.114,17.595,-0.096,10.778,3.018,-11.73,1.15,10.641,2.301,5.865,-52.786,11.73
2.235,-0.192,10.778,3.209,17.595,-0.096,10.969,3.114,-17.595,1.15,10.785,2.445,5.865,-52.786,11.73
2.24,-0.096,10.969,3.305,17.595,0.0,11.065,3.209,-17.595,1.15,10.929,2.588,5.865,-46.921,17.595
2.245,-0.048,11.209,3.401,17.595,0.048,11.209,3.305,-17.595,1.007,10.929,2.588,5.865,-52.786,17.595
2.25,-0.144,11.257,3.449,17.595,0.048,11.161,3.257,-17.595,1.007,10.929,2.588,5.865,-52.786,17.595
2.255,-0.383,11.257,3.688,17.595,-0.096,11.113,3.545,-17.595,1.007,10.785,2.876,5.865,-52.786,17.595
2.2600000000000002,-0.575,11.257,3.832,17.595,-0.24,11.113,3.736,-17.595,1.007,10.641,3.02,0.0,-52.786,17.595
2.265,-0.527,11.209,3.88,17.595,-0.192,11.017,3.736,-11.73,1.007,10.641,3.164,-5.865,-52.786,17.595
2.27,-0.383,11.065,3.784,11.73,-0.096,10.873,3.688,-11.73,1.007,10.497,3.164,-5.865,-46.921,17.595
2.275,-0.287,10.969,3.64,11.73,-0.048,10.825,3.545,-11.73,1.007,10.354,3.02,-11.73,-46.921,17.595
2.2800000000000002,-0.24,10.73,3.449,17.595,-0.048,10.778,3.401,-17.595,1.007,10.497,2.876,-17.595,-46.921,17.595
2.285,-0.144,10.778,3.401,11.73,-0.048,10.825,3.353,-11.73,1.007,10.497,2.732,-17.595,-41.056,17.595
2.29,-0.096,10.73,3.209,11.73,0.0,10.873,3.161,-11.73,1.007,10.641,2.732,-23.46,-41.056,11.73
2.295,-0.096,10.825,3.018,11.73,0.0,10.873,2.97,-11.73,1.007,10.641,2.445,-23.46,-41.056,11.73
2.3000000000000003,-0.096,10.873,2.874,11.73,0.048,10.873,2.826,-11.73,1.007,10.641,2.301,-23.46,-41.056,11.73
2.305,-0.096,10.778,2.682,5.865,0.0,10.873,2.635,-5.865,1.007,10.641,2.157,-29.326,-41.056,11.73
2.31,0.048,10.634,2.539,5.865,0.048,10.873,2.491,-5.865,1.007,10.641,2.013,-29.326,-46.921,5.865
2.315,0.0,10.394,2.395,5.865,0.048,10.778,2.299,-5.865,1.15,10.785,1.869,-29.326,-46.921,5.865
2.32,-0.048,10.251,2.395,-0.0,0.048,10.634,2.251,0.0,1.15,10.641,1.582,-29.326,-46.921,5.865
2.325,0.0,10.251,2.395,-0.0,0.0,10.538,2.347,0.0,1.007,10.497,1.726,-23.46,-52.786,0.0
2.33,0.144,10.107,2.443,-5.865,0.24,10.586,2.347,5.865,1.007,10.641,1.582,-23.46,-52.786,0.0
2.335,0.048,10.346,2.491,-11.73,0.0,10.49,2.395,11.73,0.863,10.641,1.726,-23.46,-52.786,-5.865
2.34,1.389,7.808,2.635,-11.73,0.335,10.299,2.539,11.73,1.007,10.354,1.726,-17.595,-52.786,-11.73
2.345,0.192,10.73,2.587,-17.595,0.814,9.915,2.347,17.595,0.431,10.066,2.157,-17.595,-52.786,-11.73
2.35,-0.048,10.394,3.018,-17.595,0.048,10.442,3.018,17.595,0.431,9.635,2.157,-11.73,-58.651,-17.595
2.355,-0.335,9.676,2.826,-17.595,0.144,9.915,2.73,23.46,1.007,10.21,2.157,-17.595,-58.651,-17.595
2.36,0.192,9.58,3.161,-23.46,0.335,9.628,2.97,23.46,0.863,10.354,2.157,-17.595,-58.651,-17.595
2.365,0.958,9.867,3.449,-23.46,0.766,9.915,3.353,29.326,0.575,10.066,2.588,-17.595,-58.651,-23.46
2.37,1.15,9.676,3.257,-23.46,1.102,9.963,3.257,23.46,0.0,9.778,2.732,-17.595,-52.786,-17.595
2.375,0.862,10.011,2.874,-17.595,0.91,10.346,2.826,23.46,-0.144,9.922,2.445,-17.595,-58.651,-17.595
2.38,0.287,10.825,3.018,-17.595,0.766,10.49,2.874,17.595,0.0,10.066,2.157,-17.595,-58.651,-11.73
2.3850000000000002,-0.096,11.688,2.874,-11.73,0.431,11.209,2.778,17.595,0.288,10.641,2.301,-17.595,-64.516,-11.73
2.39,-0.24,12.023,2.539,-11.73,0.24,11.879,2.491,11.73,0.431,11.073,2.157,-17.595,-58.651,-11.73
2.395,0.0,12.023,2.299,-5.865,0.335,12.119,2.156,5.865,0.431,11.36,1.726,-23.46,-58.651,-5.865
2.4,0.575,11.879,2.443,-0.0,0.766,11.879,2.299,5.865,0.431,11.648,1.582,-23.46,-52.786,0.0
2.4050000000000002,1.102,11.783,2.635,5.865,1.15,11.831,2.539,0.0,0.0,11.504,1.869,-29.326,-46.921,0.0
2.41,1.293,11.448,2.73,11.73,1.245,11.688,2.635,-11.73,0.0,11.504,2.013,-29.326,-46.921,11.73
2.415,1.198,11.209,2.73,17.595,1.198,11.448,2.635,-17.595,0.0,11.504,2.013,-29.326,-52.786,11.73
2.42,1.293,11.113,2.682,23.46,1.245,11.257,2.587,-17.595,0.0,11.216,2.013,-29.326,-52.786,17.595
2.4250000000000003,1.341,11.065,2.682,23.46,1.293,11.113,2.587,-23.46,-0.144,10.929,2.013,-29.326,-58.651,23.46
2.43,1.341,11.065,2.682,29.326,1.341,11.113,2.587,-29.326,-0.144,10.929,2.013,-29.326,-58.651,23.46
2.435,1.245,10.969,2.73,29.326,1.341,11.065,2.587,-29.326,-0.288,10.929,1.869,-29.326,-64.516,29.326
2.44,1.198,10.825,2.778,29.326,1.245,10.921,2.682,-29.326,-0.144,10.785,2.013,-29.326,-64.516,29.326
2.445,1.15,10.73,2.778,29.326,1.198,10.873,2.682,-29.326,-0.144,10.641,2.013,-29.326,-64.516,29.326
2.45,1.006,10.73,2.73,29.326,1.15,10.778,2.682,-29.326,-0.144,10.641,2.013,-29.326,-70.381,29.326
2.455,0.91,10.921,2.778,29.326,1.102,10.825,2.635,-29.326,-0.144,10.497,2.013,-35.191,-70.381,29.326
2.46,1.054,10.346,3.257,29.326,1.006,10.873,2.874,-29.326,0.0,10.641,2.157,-35.191,-70.381,29.326
2.465,0.431,8.622,4.646,29.326,0.91,9.388,5.03,-29.326,0.288,10.785,2.876,-35.191,-70.381,29.326
2.47,-0.958,7.712,3.88,35.191,-0.24,8.622,3.736,-35.191,-0.144,8.772,3.307,-35.191,-76.246,29.326
2.475,0.479,8.43,2.778,35.191,0.144,8.862,2.874,-35.191,1.15,8.916,3.02,-29.326,-76.246,35.191
2.48,1.15,9.005,2.395,35.191,1.341,9.676,2.347,-35.191,0.288,9.778,1.869,-23.46,-70.381,35.191
2.485,0.623,9.724,2.347,41.056,0.958,9.82,2.251,-41.056,-0.288,10.066,1.582,-17.595,-70.381,35.191
2.49,0.048,10.155,2.347,46.921,0.527,10.059,2.203,-46.921,0.0,9.778,1.582,-5.865,-70.381,41.056
2.495,0.24,10.394,2.347,46.921,0.479,10.442,2.251,-46.921,0.288,10.066,1.582,-5.865,-70.381,46.921
2.5,0.527,10.634,2.395,46.921,0.719,10.538,2.299,-41.056,0.288,10.354,1.582,-5.865,-70.381,46.921
2.505,0.623,10.442,2.491,41.056,0.814,10.394,2.347,-41.056,0.144,10.066,1.726,-11.73,-64.516,41.056
2.5100000000000002,0.575,10.107,2.443,41.056,0.766,10.203,2.347,-41.056,0.288,9.922,1.726,-11.73,-64.516,41.056
2.515,0.623,9.963,2.539,41.056,0.719,10.107,2.395,-41.056,0.288,9.922,1.726,-17.595,-64.516,41.056
2.52,0.719,10.059,2.682,41.056,0.766,10.059,2.539,-35.191,0.288,9.922,1.869,-17.595,-64.516,35.191
2.525,0.527,10.011,2.778,35.191,0.719,10.059,2.682,-35.191,0.288,9.922,2.013,-17.595,-70.381,35.191
2.5300000000000002,0.431,10.011,2.778,35.191,0.575,10.059,2.682,-35.191,0.288,9.922,2.013,-17.595,-70.381,35.191
2.535,0.383,10.059,2.73,35.191,0.575,10.059,2.635,-35.191,0.431,9.778,2.157,-23.46,-70.381,35.191
2.54,0.431,10.059,2.73,35.191,0.623,10.107,2.587,-35.191,0.288,9.922,2.013,-23.46,-70.381,35.191
2.545,0.431,10.107,2.73,41.056,0.575,10.107,2.635,-41.056,0.431,9.922,2.013,-23.46,-70.381,35.191
2.5500000000000003,0.479,10.155,2.778,41.056,0.623,10.155,2.682,-41.056,0.431,9.922,2.013,-29.326,-70.381,35.191
2.555,0.575,10.155,2.682,41.056,0.671,10.203,2.587,-41.056,0.431,9.922,2.013,-29.326,-70.381,41.056
2.56,0.671,10.299,2.682,46.921,0.719,10.251,2.539,-46.921,0.288,9.922,1.869,-29.326,-70.381,41.056
2.565,0.719,10.394,2.635,46.921,0.862,10.299,2.539,-41.056,0.288,9.922,1.869,-29.326,-70.381,41.056
2.57,0.766,10.442,2.587,41.056,0.862,10.394,2.491,-41.056,0.288,10.066,1.869,-35.191,-70.381,41.056
2.575,0.671,10.538,2.635,41.056,0.814,10.49,2.491,-41.056,0.288,10.21,1.869,-35.191,-70.381,41.056
2.58,0.719,10.538,2.587,41.056,0.862,10.49,2.491,-46.921,0.288,10.21,1.869,-41.056,-70.381,41.056
2.585,0.766,10.538,2.587,46.921,0.91,10.538,2.443,-41.056,0.144,10.21,1.869,-41.056,-76.246,41.056
2.59,0.814,10.634,2.491,41.056,0.958,10.634,2.395,-41.056,0.0,10.354,1.726,-46.921,-76.246,41.056
2.595,0.862,10.778,2.299,41.056,1.006,10.778,2.203,-41.056,0.0,10.497,1.726,-46.921,-76.246,41.056
2.6,1.006,10.921,2.251,41.056,1.102,10.921,2.108,-41.056,0.0,10.641,1.582,-46.921,-76.246,41.056
2.605,1.054,10.778,2.156,41.056,1.198,10.969,2.06,-41.056,-0.144,10.785,1.438,-52.786,-76.246,41.056
2.61,1.15,10.586,2.012,41.056,1.245,10.921,1.916,-41.056,-0.144,10.785,1.294,-52.786,-76.246,35.191
2.615,1.293,10.634,2.108,41.056,1.341,10.921,1.964,-41.056,-0.144,10.929,1.15,-52.786,-76.246,35.191
2.62,1.293,10.538,2.06,35.191,1.389,10.969,1.964,-35.191,-0.288,10.929,1.294,-52.786,-76.246,35.191
2.625,1.485,10.107,1.198,35.191,1.533,11.113,1.437,-35.191,-0.288,11.073,1.294,-52.786,-82.111,35.191
2.63,1.389,10.442,1.868,35.191,1.389,10.873,1.629,-35.191,-0.288,11.504,0.288,-46.921,-82.111,35.191
2.6350000000000002,1.341,10.73,1.916,41.056,1.533,11.065,1.772,-41.056,-0.288,11.073,1.15,-41.056,-87.977,35.191
2.64,1.485,10.73,1.772,46.921,1.629,11.113,1.677,-46.921,-0.575,11.216,1.007,-35.191,-87.977,41.056
2.645,1.533,10.538,1.82,52.786,1.677,10.921,1.629,-46.921,-0.575,11.216,1.007,-29.326,-87.977,46.921
2.65,1.533,10.299,1.82,52.786,1.724,10.73,1.677,-52.786,-0.575,10.785,1.007,-29.326,-87.977,46.921
2.6550000000000002,1.677,10.299,1.82,52.786,1.724,10.682,1.677,-52.786,-0.719,10.929,1.007,-29.326,-87.977,52.786
2.66,1.629,10.299,1.964,58.651,1.772,10.682,1.772,-58.651,-0.575,10.785,1.15,-23.46,-93.842,52.786
2.665,1.581,10.299,2.06,58.651,1.724,10.634,1.916,-58.651,-0.719,10.785,1.15,-17.595,-93.842,58.651
2.67,1.437,10.346,2.251,58.651,1.581,10.586,2.108,-58.651,-0.719,10.641,1.294,-17.595,-93.842,58.651
2.6750000000000003,1.485,10.49,2.299,64.516,1.724,10.634,2.156,-64.516,-0.719,10.497,1.438,-17.595,-93.842,58.651
2.68,1.485,10.49,2.443,58.651,1.677,10.634,2.299,-58.651,-0.719,10.497,1.582,-17.595,-93.842,58.651
2.685,1.485,10.442,2.443,58.651,1.677,10.538,2.299,-58.651,-0.719,10.354,1.726,-17.595,-93.842,58.651
2.69,1.437,10.442,2.539,58.651,1.677,10.49,2.395,-58.651,-0.719,10.354,1.726,-17.595,-93.842,58.651
2.695,1.341,10.299,2.491,58.651,1.629,10.394,2.347,-58.651,-0.719,10.21,1.726,-17.595,-93.842,58.651
2.7,1.293,10.203,2.395,58.651,1.533,10.251,2.299,-58.651,-0.719,10.066,1.726,-17.595,-93.842,52.786
2.705,1.054,10.155,2.012,58.651,1.245,9.963,1.916,-58.651,-0.575,9.922,1.582,-23.46,-93.842,58.651
2.71,1.533,9.963,2.156,58.651,1.629,10.011,2.012,-58.651,-0.431,9.635,1.15,-23.46,-93.842,58.651
2.715,1.724,10.011,2.108,64.516,1.82,10.155,2.012,-64.516,-0.863,10.066,1.582,-29.326,-93.842,58.651
2.72,1.677,9.82,1.82,64.516,1.82,9.963,1.772,-64.516,-0.863,9.922,1.294,-29.326,-93.842,64.516
2.725,1.389,9.772,1.198,58.651,1.581,9.724,1.054,-58.651,-0.863,9.635,0.719,-29.326,-93.842,58.651
2.73,1.437,9.388,0.766,64.516,1.485,9.484,0.719,-64.516,-0.575,9.491,0.288,-29.326,-93.842,58.651
2.735,1.533,9.245,0.383,70.381,1.581,9.58,0.335,-64.516,-0.431,9.635,-0.144,-35.191,-93.842,64.516
2.74,1.868,9.388,0.0,76.246,1.677,9.628,-0.048,-70.381,-0.431,9.778,-0.575,-35.191,-99.707,70.381
2.745,2.108,9.532,-0.719,76.246,1.916,9.58,-0.671,-76.246,-0.575,9.635,-1.007,-29.326,-99.707,70.381
2.75,2.299,9.58,-2.635,76.246,2.108,9.293,-2.73,-76.246,-0.863,9.203,-2.157,-29.326,-105.572,76.246
2.755,2.635,9.149,-2.73,76.246,2.012,9.101,-2.874,-76.246,-0.575,8.772,-3.595,-35.191,-111.437,76.246
2.7600000000000002,2.874,8.909,-2.73,76.246,2.299,9.101,-2.922,-76.246,-0.719,9.059,-3.739,-41.056,-117.302,76.246
2.765,2.778,8.718,-2.682,82.111,2.251,9.053,-2.874,-76.246,-0.863,9.059,-3.739,-41.056,-123.167,76.246
2.77,2.491,8.574,-2.73,82.111,2.108,9.053,-2.922,-82.111,-0.719,9.203,-3.883,-46.921,-134.897,76.246
2.775,2.443,8.526,-2.73,82.111,1.964,9.053,-2.97,-82.111,-0.575,9.347,-3.883,-41.056,-146.628,76.246
2.7800000000000002,2.539,8.574,-2.682,82.111,2.012,9.053,-2.922,-82.111,-0.575,9.347,-3.883,-41.056,-152.493,76.246
2.785,2.587,8.622,-2.443,82.111,2.06,9.101,-2.778,-87.977,-0.575,9.347,-3.739,-35.191,-164.223,82.111
2.79,2.587,8.622,-2.203,87.977,2.06,9.101,-2.539,-87.977,-0.575,9.491,-3.595,-29.326,-175.953,82.111
2.795,2.491,8.478,-1.772,87.977,2.012,9.053,-2.156,-93.842,-0.575,9.491,-3.307,-29.326,-187.683,87.977
2.8000000000000003,2.395,8.287,-1.245,93.842,1.964,8.909,-1.677,-93.842,-0.575,9.347,-3.02,-23.46,-193.548,87.977
2.805,2.347,8.047,-0.575,93.842,2.012,8.67,-1.054,-93.842,-0.719,9.203,-2.445,-17.595,-205.279,93.842
2.81,2.203,7.76,0.096,93.842,1.964,8.383,-0.431,-99.707,-0.719,8.916,-1.726,-17.595,-211.144,93.842
2.815,1.964,7.616,0.719,99.707,1.82,8.095,0.24,-99.707,-0.863,8.484,-1.15,-11.73,-222.874,93.842
2.82,1.724,7.472,1.437,99.707,1.677,7.664,0.91,-99.707,-0.719,7.909,-0.575,-5.865,-228.739,93.842
2.825,1.724,7.281,2.395,99.707,1.629,7.233,1.772,-99.707,-0.719,7.334,0.288,-5.865,-234.604,93.842
2.83,1.581,6.993,3.64,93.842,1.629,6.802,3.018,-93.842,-0.863,6.615,1.294,-5.865,-234.604,93.842
2.835,1.341,6.754,5.173,87.977,1.485,6.562,4.503,-87.977,-1.007,6.183,2.732,-11.73,-240.469,93.842
2.84,1.006,6.754,6.993,82.111,1.198,6.754,6.227,-82.111,-0.863,6.04,4.314,-17.595,-240.469,82.111
2.845,0.479,6.946,9.005,70.381,0.862,7.041,8.239,-76.246,-0.575,6.615,6.183,-23.46,-240.469,76.246
2.85,-0.192,7.281,11.161,64.516,0.527,7.377,10.394,-64.516,-0.288,6.902,8.34,-23.46,-240.469,70.381
2.855,-0.862,7.904,13.364,52.786,0.24,7.951,12.646,-58.651,-0.288,7.334,10.641,-29.326,-234.604,58.651
2.86,-1.772,8.574,15.568,46.921,-0.192,8.718,14.849,-46.921,-0.288,8.053,12.942,-29.326,-228.739,46.921
2.865,-2.682,9.436,17.531,41.056,-0.719,9.724,16.957,-46.921,-0.144,8.916,15.243,-29.326,-217.009,46.921
2.87,-3.593,10.346,18.873,41.056,-1.293,10.73,18.489,-41.056,0.288,10.066,17.256,-29.326,-199.413,41.056
2.875,-4.263,11.257,19.735,41.056,-1.677,11.64,19.447,-41.056,0.575,11.073,18.694,-23.46,-175.953,41.056
2.88,-4.598,11.879,20.022,46.921,-2.012,12.262,19.879,-46.921,0.719,11.935,19.557,-17.595,-146.628,41.056
2.8850000000000002,-4.646,12.167,19.495,52.786,-2.203,12.406,19.543,-46.921,1.15,12.223,19.701,-17.595,-117.302,46.921
2.89,-4.215,12.023,18.202,58.651,-1.964,11.975,18.394,-58.651,1.15,11.935,18.982,-11.73,-82.111,52.786
2.895,-3.736,11.592,16.861,64.516,-1.533,11.161,17.005,-58.651,0.863,10.929,17.687,-11.73,-46.921,58.651
2.9,-3.449,10.921,15.328,64.516,-1.293,10.442,15.52,-64.516,0.431,9.778,16.249,-17.595,-17.595,64.516
2.9050000000000002,-3.114,10.059,13.508,64.516,-1.341,9.772,13.795,-64.516,0.431,9.203,14.524,-23.46,17.595,64.516
2.91,-2.395,9.101,11.304,58.651,-1.15,9.005,11.592,-58.651,0.719,8.628,12.511,-35.191,46.921,64.516
2.915,-1.82,8.526,8.814,58.651,-0.814,8.335,9.149,-58.651,0.719,8.053,10.21,-41.056,70.381,58.651
2.92,-1.533,8.287,6.802,58.651,-0.479,7.999,6.946,-52.786,0.575,7.478,7.478,-46.921,87.977,58.651
2.9250000000000003,-1.293,8.191,4.934,52.786,-0.479,8.191,5.125,-46.921,0.431,7.478,5.608,-52.786,105.572,52.786
2.93,-0.719,7.856,2.156,41.056,-0.575,8.43,2.539,-41.056,1.007,8.053,3.451,-58.651,117.302,46.921
2.935,0.144,7.52,-0.719,41.056,-0.335,8.383,-0.383,-35.191,1.438,8.772,0.575,-58.651,123.167,41.056
2.94,0.862,7.472,-3.545,35.191,-0.048,8.047,-3.209,-35.191,1.726,8.772,-2.445,-52.786,129.032,35.191
2.945,1.485,7.52,-6.323,35.191,0.24,7.712,-5.94,-35.191,1.726,8.053,-5.321,-46.921,117.302,41.056
2.95,2.251,7.568,-8.957,35.191,0.479,7.472,-8.622,-35.191,1.726,7.478,-8.053,-41.056,105.572,35.191
2.955,2.826,7.856,-11.017,29.326,0.766,7.329,-10.778,-29.326,2.013,7.046,-10.641,-41.056,87.977,35.191
2.96,3.018,8.335,-12.31,23.46,0.91,7.425,-12.167,-17.595,2.013,6.759,-12.367,-41.056,64.516,29.326
2.965,2.826,8.718,-13.125,11.73,0.719,7.76,-13.125,-11.73,2.013,6.759,-13.661,-52.786,35.191,23.46
2.97,2.395,9.053,-13.22,11.73,0.431,8.143,-13.364,-5.865,2.301,7.19,-14.236,-64.516,0.0,11.73
2.975,1.868,9.101,-12.789,5.865,0.144,8.478,-13.077,-5.865,2.445,7.621,-14.236,-76.246,-35.191,5.865
2.98,1.293,8.862,-11.879,5.865,-0.192,8.718,-12.262,-5.865,2.588,8.197,-13.661,-87.977,-64.516,5.865
2.985,0.958,8.43,-10.73,11.73,-0.479,8.814,-11.209,-11.73,2.732,8.772,-12.798,-99.707,-93.842,5.865
2.99,0.91,8.143,-9.484,23.46,-0.479,8.909,-9.963,-17.595,2.876,9.347,-11.648,-99.707,-117.302,17.595
2.995,0.91,7.856,-8.287,35.191,-0.287,8.957,-8.814,-35.191,2.588,9.635,-10.497,-99.707,-140.762,23.46
3.0,0.814,7.425,-7.185,46.921,-0.335,8.862,-7.664,-46.921,2.445,9.922,-9.347,-87.977,-158.358,35.191
3.005,1.054,7.041,-6.131,52.786,-0.144,8.478,-6.61,-52.786,2.301,9.778,-8.34,-76.246,-181.818,46.921
3.0100000000000002,1.102,6.898,-5.077,58.651,0.048,8.335,-5.652,-58.651,2.157,9.491,-7.334,-64.516,-199.413,52.786
3.015,1.102,6.946,-4.072,58.651,0.144,8.191,-4.646,-58.651,1.726,9.347,-6.327,-46.921,-217.009,58.651
3.02,1.054,7.281,-2.922,64.516,0.24,8.143,-3.593,-64.516,1.582,8.916,-5.321,-29.326,-234.604,58.651
3.025,1.054,7.616,-1.581,64.516,0.287,8.143,-2.347,-64.516,1.294,8.628,-4.314,-17.595,-252.199,58.651
3.0300000000000002,0.958,7.999,0.192,64.516,0.335,8.191,-0.671,-70.381,1.15,8.34,-2.876,-5.865,-263.93,64.516
3.035,0.671,8.143,2.299,70.381,0.335,8.191,1.341,-70.381,1.007,8.053,-1.007,-5.865,-275.66,64.516
3.04,0.287,8.239,4.934,70.381,0.335,8.191,3.832,-70.381,0.719,7.909,1.294,-5.865,-287.39,70.381
3.045,-0.431,8.287,7.76,64.516,0.096,8.143,6.658,-70.381,0.431,7.765,4.026,-5.865,-293.255,64.516
3.0500000000000003,-1.341,8.239,10.442,64.516,-0.431,8.239,9.388,-64.516,0.431,7.765,6.902,-11.73,-293.255,64.516
3.055,-2.156,8.335,12.837,58.651,-1.006,8.43,11.927,-58.651,0.719,7.909,9.635,-17.595,-293.255,58.651
3.06,-2.922,8.622,14.945,52.786,-1.437,8.718,14.131,-58.651,1.007,8.197,12.223,-17.595,-281.525,52.786
3.065,-3.449,9.149,16.478,52.786,-1.916,9.053,15.855,-52.786,1.15,8.34,14.236,-23.46,-269.795,52.786
3.0700000000000003,-3.88,9.724,17.436,46.921,-2.251,9.628,16.957,-46.921,1.582,8.772,15.818,-23.46,-252.199,46.921
3.075,-4.215,10.155,17.867,46.921,-2.539,10.155,17.531,-46.921,1.869,9.347,16.681,-23.46,-228.739,46.921
3.08,-4.694,10.155,18.537,46.921,-2.778,10.299,18.202,-46.921,2.157,9.635,17.256,-29.326,-211.144,46.921
3.085,-4.886,9.915,18.729,41.056,-3.305,10.442,18.585,-41.056,2.588,9.922,17.975,-29.326,-187.683,41.056
3.09,-5.077,9.388,18.537,41.056,-3.401,10.107,18.442,-41.056,2.876,10.066,18.263,-29.326,-164.223,41.056
3.095,-5.604,8.718,17.963,35.191,-3.832,9.388,17.915,-35.191,3.164,9.635,17.975,-29.326,-140.762,35.191
3.1,-6.275,8.287,17.388,35.191,-4.407,8.814,17.436,-35.191,3.451,8.916,17.4,-23.46,-117.302,35.191
3.105,-6.754,7.856,16.526,41.056,-4.886,8.335,16.621,-35.191,3.883,8.34,16.825,-23.46,-99.707,35.191
3.11,-6.562,7.329,15.376,41.056,-5.03,7.76,15.52,-41.056,4.17,7.909,15.962,-17.595,-70.381,41.056
3.115,-5.988,6.85,14.083,46.921,-4.79,7.137,14.226,-41.056,4.314,7.19,14.668,-17.595,-46.921,41.056
3.12,-5.461,6.514,12.741,46.921,-4.551,6.61,12.933,-46.921,4.314,6.471,13.373,-11.73,-23.46,46.921
3.125,-5.077,6.275,11.592,46.921,-4.263,6.371,11.688,-41.056,4.17,5.896,11.935,-11.73,-5.865,46.921
3.13,-4.934,6.131,10.825,41.056,-4.119,6.323,10.873,-41.056,4.17,5.896,10.785,-17.595,5.865,46.921
3.1350000000000002,-4.982,5.94,10.203,35.191,-4.167,6.323,10.251,-35.191,4.17,5.896,10.21,-17.595,23.46,41.056
3.14,-5.077,5.892,9.388,29.326,-4.263,6.323,9.484,-29.326,4.17,6.183,9.491,-17.595,35.191,35.191
3.145,-4.934,5.844,8.143,29.326,-4.311,6.323,8.287,-29.326,4.314,6.327,8.484,-17.595,46.921,29.326
3.15,-4.455,5.844,6.562,35.191,-4.024,6.179,6.754,-29.326,4.458,6.327,7.046,-11.73,52.786,29.326
3.1550000000000002,-4.215,5.988,4.934,41.056,-3.688,5.94,5.077,-35.191,4.17,5.896,5.464,-5.865,64.516,35.191
3.16,-3.161,5.556,3.018,41.056,-3.209,5.604,3.305,-35.191,4.026,5.321,3.739,-5.865,70.381,41.056
3.165,-2.491,5.556,1.006,35.191,-2.874,5.173,1.245,-35.191,3.595,5.033,1.726,-5.865,76.246,35.191
3.17,-2.299,5.7,-0.91,35.191,-2.73,5.03,-0.671,-35.191,3.883,4.458,-0.431,-5.865,76.246,35.191
3.1750000000000003,-1.677,6.035,-3.066,29.326,-2.395,5.03,-2.778,-29.326,3.595,4.026,-2.301,-11.73,70.381,35.191
3.18,-0.814,6.514,-4.934,23.46,-1.916,5.269,-4.694,-23.46,3.595,3.883,-4.458,-23.46,64.516,29.326
3.185,-0.527,7.281,-6.083,11.73,-1.629,6.035,-6.035,-11.73,3.307,4.314,-6.183,-41.056,58.651,23.46
3.19,-0.24,7.951,-6.754,-0.0,-1.533,7.137,-6.802,0.0,3.307,5.464,-7.334,-52.786,41.056,11.73
3.1950000000000003,-0.383,8.526,-7.137,-11.73,-1.677,8.143,-7.233,11.73,3.739,6.902,-7.909,-70.381,29.326,0.0
3.2,-0.671,9.005,-7.233,-17.595,-1.916,9.005,-7.377,17.595,4.026,8.34,-8.197,-82.111,5.865,-11.73
3.205,-1.054,9.724,-7.377,-11.73,-2.395,10.107,-7.472,17.595,4.314,9.491,-8.34,-87.977,-11.73,-17.595
3.21,-1.533,10.346,-7.185,-5.865,-2.874,11.161,-7.377,11.73,5.033,11.36,-8.484,-87.977,-35.191,-11.73
3.215,-1.868,10.394,-6.371,17.595,-3.066,11.544,-6.706,-11.73,5.464,12.367,-8.053,-82.111,-58.651,0.0
3.22,-1.629,9.82,-5.556,35.191,-2.682,11.065,-5.844,-35.191,5.177,12.223,-7.19,-70.381,-76.246,23.46
3.225,-1.054,9.005,-4.79,41.056,-2.203,10.107,-5.077,-41.056,4.602,11.36,-6.327,-58.651,-93.842,35.191
3.23,-1.389,8.287,-4.119,46.921,-2.299,9.053,-4.455,-46.921,4.314,10.066,-5.752,-46.921,-111.437,41.056
3.235,-1.916,8.047,-3.449,52.786,-2.587,8.622,-3.784,-52.786,4.314,9.203,-5.033,-41.056,-129.032,46.921
3.24,-2.203,7.999,-2.539,58.651,-2.587,8.335,-2.97,-58.651,4.026,8.628,-4.314,-29.326,-146.628,52.786
3.245,-2.443,7.999,-1.533,64.516,-2.635,8.143,-1.964,-64.516,3.883,8.197,-3.451,-29.326,-158.358,58.651
3.25,-2.587,7.904,-0.527,64.516,-2.682,7.999,-0.958,-64.516,3.739,7.909,-2.445,-23.46,-164.223,64.516
3.255,-2.922,7.904,0.431,70.381,-2.682,7.856,-0.048,-70.381,3.595,7.765,-1.294,-23.46,-170.088,64.516
3.2600000000000002,-3.161,7.856,1.245,70.381,-2.73,7.616,0.814,-70.381,3.307,7.334,-0.431,-29.326,-170.088,70.381
3.265,-3.353,7.712,1.916,64.516,-2.826,7.329,1.533,-64.516,3.164,6.902,0.431,-29.326,-170.088,64.516
3.27,-3.593,7.568,2.539,58.651,-3.018,7.137,2.108,-58.651,3.307,6.471,1.15,-41.056,-164.223,58.651
3.275,-3.736,7.472,3.066,52.786,-3.161,7.089,2.73,-52.786,3.307,6.327,1.726,-46.921,-158.358,52.786
3.2800000000000002,-3.88,7.52,3.545,46.921,-3.305,7.233,3.257,-46.921,3.595,6.471,2.301,-52.786,-152.493,46.921
3.285,-4.024,7.712,3.928,41.056,-3.449,7.52,3.593,-41.056,3.739,6.759,2.732,-64.516,-146.628,41.056
3.29,-4.119,7.904,4.167,35.191,-3.64,7.856,3.88,-35.191,3.883,7.19,3.02,-70.381,-134.897,35.191
3.295,-4.167,8.143,4.551,35.191,-3.736,8.526,4.215,-35.191,4.17,7.909,3.307,-76.246,-129.032,35.191
3.3000000000000003,-4.263,8.478,5.173,35.191,-4.024,9.341,4.838,-35.191,4.602,9.203,3.739,-76.246,-123.167,35.191
3.305,-4.551,8.43,5.269,41.056,-4.359,9.484,5.125,-41.056,5.033,10.066,4.458,-70.381,-117.302,35.191
3.31,-4.455,7.951,5.125,46.921,-4.311,9.341,4.982,-46.921,5.321,9.922,4.458,-64.516,-117.302,41.056
3.315,-3.88,7.664,5.365,41.056,-3.976,9.245,5.173,-41.056,5.033,10.066,4.314,-52.786,-117.302,46.921
3.3200000000000003,-4.263,7.52,5.317,41.056,-4.119,8.43,5.221,-41.056,5.033,9.635,4.602,-35.191,-117.302,41.056
3.325,-5.125,7.472,4.934,41.056,-4.694,7.856,4.79,-41.056,5.033,8.197,4.458,-23.46,-117.302,35.191
3.33,-5.317,7.712,4.886,46.921,-4.838,7.999,4.646,-46.921,5.321,7.765,4.026,-11.73,-117.302,41.056
3.335,-4.934,7.76,5.03,46.921,-4.551,8.047,4.838,-46.921,5.177,7.909,4.17,-11.73,-111.437,46.921
3.34,-4.598,7.808,5.03,46.921,-4.359,7.951,4.934,-41.056,4.889,7.621,4.314,-5.865,-105.572,46.921
3.345,-4.742,8.095,4.359,41.056,-4.503,7.999,4.359,-41.056,5.033,7.621,4.17,-5.865,-99.707,41.056
3.35,-4.982,8.43,3.688,41.056,-4.646,8.095,3.64,-41.056,5.177,7.478,3.451,-5.865,-99.707,35.191
3.355,-4.934,8.67,3.449,41.056,-4.646,8.287,3.305,-41.056,5.321,7.478,2.876,-11.73,-93.842,41.056
3.36,-4.886,8.622,3.449,41.056,-4.551,8.43,3.305,-41.056,5.177,7.621,2.732,-17.595,-87.977,41.056
3.365,-4.742,8.478,3.449,41.056,-4.455,8.574,3.305,-41.056,5.177,8.053,2.732,-23.46,-87.977,41.056
3.37,-4.79,8.383,3.353,41.056,-4.503,8.622,3.209,-41.056,5.177,8.34,2.732,-29.326,-82.111,41.056
3.375,-4.694,8.335,3.257,41.056,-4.407,8.67,3.114,-41.056,5.177,8.484,2.588,-29.326,-76.246,41.056
3.38,-4.742,8.478,2.97,41.056,-4.407,8.622,2.922,-41.056,5.033,8.484,2.445,-29.326,-76.246,41.056
3.3850000000000002,-4.551,8.957,2.587,35.191,-4.359,8.766,2.539,-35.191,5.177,8.34,2.157,-29.326,-70.381,41.056
3.39,-4.598,9.293,1.916,35.191,-4.359,8.814,1.916,-35.191,5.033,8.197,1.726,-29.326,-70.381,35.191
3.395,-4.407,8.335,1.629,35.191,-4.263,7.951,1.485,-35.191,5.033,7.621,1.007,-35.191,-64.516,35.191
3.4,-3.976,7.76,1.82,29.326,-3.928,7.472,1.629,-29.326,4.889,6.759,0.863,-41.056,-58.651,35.191
3.4050000000000002,-4.024,7.616,1.964,29.326,-3.928,7.616,1.772,-23.46,4.745,6.902,1.007,-52.786,-58.651,29.326
3.41,-4.215,7.616,2.06,17.595,-4.119,7.712,1.916,-17.595,4.889,7.334,1.15,-58.651,-58.651,23.46
3.415,-4.167,7.616,1.964,11.73,-4.119,7.856,1.868,-11.73,4.889,7.478,1.294,-64.516,-58.651,17.595
3.42,-4.119,7.664,1.82,5.865,-4.119,7.904,1.677,-5.865,5.033,7.621,1.15,-64.516,-58.651,11.73
3.4250000000000003,-4.119,7.808,1.724,-0.0,-4.119,8.047,1.629,0.0,5.033,7.765,1.007,-64.516,-58.651,5.865
3.43,-4.119,7.856,1.629,-0.0,-4.167,8.095,1.533,0.0,5.033,7.909,0.863,-64.516,-58.651,0.0
3.435,-4.119,7.904,1.677,-0.0,-4.167,8.143,1.485,5.865,5.177,7.909,0.863,-64.516,-58.651,0.0
3.44,-4.072,7.999,1.772,-0.0,-4.119,8.239,1.581,5.865,5.177,8.053,0.863,-64.516,-64.516,0.0
3.4450000000000003,-4.024,8.047,1.868,-0.0,-4.024,8.287,1.724,5.865,5.033,8.053,1.007,-58.651,-64.516,-5.865
3.45,-4.024,7.999,2.012,-5.865,-3.976,8.287,1.82,5.865,5.033,8.197,1.15,-58.651,-64.516,-5.865
3.455,-3.928,7.904,2.156,-5.865,-3.928,8.191,1.964,11.73,4.889,8.053,1.294,-58.651,-64.516,-5.865
3.46,-3.88,7.808,2.251,-11.73,-3.832,8.095,2.108,11.73,4.745,7.909,1.438,-58.651,-64.516,-11.73
3.465,-3.736,7.712,2.395,-17.595,-3.688,7.951,2.251,17.595,4.602,7.765,1.438,-58.651,-64.516,-11.73
3.47,-3.545,7.712,2.539,-23.46,-3.545,7.951,2.395,23.46,4.458,7.621,1.582,-52.786,-70.381,-17.595
3.475,-3.401,7.76,2.539,-29.326,-3.401,7.999,2.395,29.326,4.314,7.765,1.726,-52.786,-70.381,-23.46
3.48,-3.257,7.808,2.443,-35.191,-3.257,8.047,2.347,35.191,4.17,7.765,1.726,-52.786,-70.381,-29.326
3.485,-3.114,7.808,2.443,-35.191,-3.161,8.047,2.299,41.056,4.17,7.909,1.582,-52.786,-70.381,-35.191
3.49,-2.922,7.808,2.491,-41.056,-3.018,8.047,2.347,41.056,4.026,7.909,1.726,-52.786,-70.381,-41.056
3.495,-2.826,7.856,2.826,-46.921,-2.826,8.143,2.682,46.921,3.883,7.909,1.726,-52.786,-70.381,-46.921
3.5,-2.73,7.904,2.874,-46.921,-2.826,8.239,2.73,46.921,3.883,8.053,2.157,-52.786,-76.246,-46.921
3.505,-2.682,8.095,2.826,-46.921,-2.778,8.383,2.73,52.786,3.883,8.197,2.013,-46.921,-76.246,-46.921
3.5100000000000002,-2.682,8.239,2.922,-46.921,-2.73,8.574,2.778,52.786,3.739,8.34,2.013,-46.921,-76.246,-52.786
3.515,-2.635,8.526,3.161,-46.921,-2.73,8.957,3.018,52.786,3.739,8.772,2.157,-41.056,-82.111,-52.786
3.52,-3.209,8.67,3.88,-46.921,-3.018,9.388,3.593,52.786,3.739,9.347,2.445,-41.056,-82.111,-52.786
3.525,-2.922,9.532,3.928,-46.921,-2.922,10.059,3.784,46.921,4.026,9.922,3.164,-35.191,-87.977,-52.786
3.5300000000000002,-2.73,10.155,3.976,-46.921,-2.682,10.538,3.832,46.921,3.739,10.497,3.164,-29.326,-87.977,-46.921
3.535,-2.587,10.682,3.976,-41.056,-2.587,10.778,3.832,46.921,3.739,10.641,3.164,-17.595,-87.977,-46.921
3.54,-2.682,10.921,3.784,-41.056,-2.73,10.394,3.688,46.921,3.451,11.073,3.164,-17.595,-87.977,-46.921
3.545,-2.682,11.352,3.784,-35.191,-2.539,11.113,3.593,35.191,3.164,11.504,3.02,-17.595,-87.977,-46.921
3.5500000000000003,-2.682,11.352,3.88,-23.46,-2.587,11.209,3.736,29.326,3.451,11.216,3.02,-23.46,-87.977,-52.786
3.555,-2.539,11.209,4.072,-11.73,-2.251,11.448,3.88,17.595,3.451,10.785,3.164,-29.326,-87.977,-46.921
3.56,-2.587,10.634,4.072,-5.865,-2.347,10.778,3.976,11.73,3.307,10.641,3.307,-29.326,-87.977,-41.056
3.565,-2.587,10.107,4.024,-0.0,-2.251,10.442,3.928,0.0,3.164,10.066,3.307,-29.326,-87.977,-29.326
3.5700000000000003,-2.635,9.532,3.88,5.865,-2.251,9.82,3.736,0.0,3.02,9.635,3.307,-29.326,-82.111,-17.595
3.575,-2.395,9.149,3.688,5.865,-2.108,9.388,3.593,-5.865,2.876,9.203,3.02,-29.326,-82.111,-5.865
3.58,-2.299,8.909,3.449,5.865,-2.012,8.957,3.401,-5.865,2.876,8.772,2.876,-29.326,-76.246,-5.865
3.585,-2.156,8.814,3.114,5.865,-1.964,8.862,3.066,-5.865,2.588,8.628,2.588,-29.326,-76.246,0.0
3.59,-2.06,8.67,2.874,5.865,-1.964,8.766,2.778,-5.865,2.732,8.484,2.301,-29.326,-70.381,0.0
3.595,-1.772,8.766,2.443,5.865,-1.677,8.718,2.347,-5.865,2.732,8.197,2.013,-35.191,-70.381,0.0
3.6,-1.724,8.957,1.868,5.865,-1.724,8.862,1.82,0.0,2.588,8.34,1.438,-35.191,-70.381,0.0
3.605,-1.772,8.718,1.82,-0.0,-1.82,8.718,1.629,0.0,2.732,8.484,1.007,-35.191,-70.381,0.0
3.61,-1.724,8.478,2.299,-0.0,-1.772,8.814,2.06,0.0,2.732,8.484,1.15,-41.056,-70.381,0.0
3.615,-1.916,8.67,2.682,5.865,-1.772,9.053,2.491,0.0,2.588,9.059,1.582,-41.056,-76.246,0.0
3.62,-2.012,8.957,2.778,5.865,-1.868,9.197,2.635,-5.865,2.588,9.203,1.869,-41.056,-76.246,5.865
3.625,-1.82,9.197,2.73,5.865,-1.772,9.388,2.587,-5.865,2.588,9.203,2.013,-35.191,-76.246,5.865
3.63,-1.629,9.293,2.826,5.865,-1.629,9.484,2.635,-5.865,2.588,9.347,2.013,-35.191,-76.246,0.0
3.6350000000000002,-1.533,9.388,2.874,5.865,-1.629,9.58,2.73,-5.865,2.588,9.491,2.013,-35.191,-76.246,5.865
3.64,-1.389,9.436,2.97,5.865,-1.533,9.628,2.826,-5.865,2.588,9.491,2.157,-35.191,-76.246,5.865
3.645,-1.437,9.484,3.161,5.865,-1.533,9.58,2.97,-5.865,2.588,9.491,2.301,-29.326,-82.111,5.865
3.65,-1.533,9.436,3.257,11.73,-1.581,9.484,3.114,-5.865,2.588,9.347,2.301,-29.326,-82.111,5.865
3.6550000000000002,-1.629,9.341,3.401,5.865,-1.629,9.388,3.257,-11.73,2.445,9.203,2.445,-29.326,-87.977,5.865
3.66,-1.677,9.101,3.688,11.73,-1.629,9.101,3.497,-5.865,2.445,8.916,2.732,-35.191,-87.977,11.73
3.665,-1.724,8.718,3.832,5.865,-1.581,8.766,3.688,-5.865,2.301,8.628,3.02,-35.191,-93.842,11.73
3.67,-1.82,8.383,3.88,5.865,-1.629,8.478,3.736,-11.73,2.301,8.34,3.02,-41.056,-93.842,5.865
3.6750000000000003,-1.964,8.143,3.832,5.865,-1.724,8.287,3.688,-11.73,2.301,8.197,3.02,-41.056,-93.842,5.865
3.68,-2.06,7.999,3.736,11.73,-1.82,8.143,3.64,-5.865,2.301,8.053,3.02,-41.056,-93.842,5.865
3.685,-2.06,7.951,3.593,5.865,-1.82,8.095,3.449,-5.865,2.445,7.909,2.876,-41.056,-87.977,5.865
3.69,-2.012,8.047,3.305,11.73,-1.82,8.191,3.209,-5.865,2.445,8.053,2.732,-41.056,-87.977,5.865
3.6950000000000003,-2.108,8.095,3.209,11.73,-1.868,8.287,3.161,-5.865,2.445,8.197,2.445,-41.056,-87.977,11.73
3.7,-2.06,8.191,2.73,11.73,-1.82,8.335,2.682,-11.73,2.588,8.197,2.301,-41.056,-82.111,11.73
3.705,-2.012,8.287,2.443,11.73,-1.82,8.335,2.395,-11.73,2.445,8.197,1.869,-41.056,-82.111,11.73
3.71,-2.06,8.191,2.251,11.73,-1.916,8.335,2.108,-11.73,2.445,8.197,1.582,-41.056,-82.111,11.73
3.715,-1.916,7.951,2.156,17.595,-1.772,8.287,2.06,-17.595,2.588,8.34,1.438,-41.056,-82.111,11.73
3.72,-1.964,7.856,1.916,17.595,-1.82,8.143,1.82,-17.595,2.445,8.197,1.294,-41.056,-76.246,17.595
3.725,-2.203,7.712,1.772,17.595,-2.012,8.047,1.629,-17.595,2.588,8.053,1.007,-41.056,-76.246,17.595
3.73,-2.922,7.377,2.012,23.46,-2.395,7.856,1.772,-17.595,2.876,8.053,1.007,-41.056,-76.246,17.595
3.735,-2.826,7.425,1.964,29.326,-2.73,7.904,1.868,-23.46,3.451,7.909,1.294,-41.056,-76.246,23.46
3.74,-2.635,7.233,1.868,35.191,-2.587,7.808,1.724,-35.191,3.164,8.197,1.15,-35.191,-76.246,29.326
3.745,-2.395,6.898,1.677,41.056,-2.443,7.472,1.581,-41.056,3.307,7.765,1.007,-29.326,-76.246,35.191
3.75,-2.443,6.706,1.437,41.056,-2.491,7.233,1.341,-41.056,3.307,7.621,0.863,-23.46,-76.246,41.056
3.755,-2.587,6.562,1.389,41.056,-2.682,7.089,1.245,-41.056,3.451,7.334,0.575,-23.46,-76.246,41.056
3.7600000000000002,-2.73,6.658,1.485,35.191,-2.73,6.993,1.341,-35.191,3.595,7.19,0.575,-17.595,-82.111,35.191
3.765,-2.826,6.898,1.581,35.191,-2.826,7.137,1.437,-35.191,3.451,7.046,0.719,-11.73,-82.111,35.191
3.77,-3.114,6.946,1.485,35.191,-3.018,7.185,1.389,-35.191,3.595,7.19,0.719,-5.865,-82.111,35.191
3.775,-3.257,7.041,1.533,35.191,-3.161,7.233,1.389,-35.191,3.739,7.19,0.719,-5.865,-87.977,35.191
3.7800000000000002,-3.209,7.137,1.581,41.056,-3.161,7.377,1.437,-41.056,3.883,7.334,0.719,-5.865,-87.977,35.191
3.785,-3.114,7.233,1.677,41.056,-3.114,7.425,1.485,-41.056,3.883,7.334,0.719,-5.865,-87.977,41.056
3.79,-3.161,7.425,1.724,41.056,-3.114,7.472,1.581,-41.056,3.739,7.334,0.863,-5.865,-87.977,41.056
3.795,-3.257,7.568,1.82,41.056,-3.161,7.616,1.629,-41.056,3.739,7.334,0.863,-5.865,-87.977,41.056
3.8000000000000003,-3.401,7.568,1.916,35.191,-3.209,7.52,1.772,-35.191,3.883,7.334,1.007,-5.865,-87.977,35.191
3.805,-3.545,7.568,2.012,35.191,-3.353,7.52,1.868,-35.191,3.883,7.19,1.15,-5.865,-87.977,35.191
3.81,-3.64,7.664,2.06,29.326,-3.353,7.616,1.916,-29.326,3.883,7.19,1.15,-5.865,-87.977,29.326
3.815,-3.928,7.664,2.347,23.46,-3.64,7.76,2.108,-23.46,4.026,7.334,1.294,-11.73,-82.111,29.326
3.8200000000000003,-4.407,7.76,2.826,23.46,-4.072,8.047,2.587,-23.46,4.314,7.765,1.726,-17.595,-82.111,23.46
3.825,-4.886,7.951,2.97,29.326,-4.407,8.287,2.826,-23.46,4.745,8.197,2.157,-17.595,-76.246,23.46
3.83,-5.03,7.999,2.778,35.191,-4.598,8.383,2.682,-35.191,4.889,8.34,2.301,-17.595,-76.246,29.326
3.835,-4.838,8.095,2.587,35.191,-4.598,8.43,2.491,-35.191,5.033,8.484,2.013,-11.73,-70.381,35.191
3.84,-4.551,8.191,2.443,35.191,-4.407,8.526,2.347,-35.191,5.033,8.484,1.726,-11.73,-64.516,35.191
3.845,-4.551,8.383,2.395,35.191,-4.407,8.67,2.251,-35.191,5.033,8.628,1.726,-5.865,-64.516,35.191
3.85,-4.742,8.718,2.347,35.191,-4.551,9.005,2.203,-35.191,5.177,8.772,1.582,-5.865,-58.651,35.191
3.855,-4.886,9.197,2.347,29.326,-4.694,9.341,2.203,-29.326,5.321,9.059,1.582,0.0,-58.651,29.326
3.86,-4.934,9.58,2.491,29.326,-4.694,9.676,2.347,-29.326,5.464,9.347,1.726,0.0,-58.651,29.326
3.865,-4.934,9.82,2.539,29.326,-4.694,9.915,2.443,-29.326,5.321,9.635,1.726,0.0,-52.786,29.326
3.87,-4.934,9.867,2.587,35.191,-4.646,10.059,2.443,-29.326,5.321,9.778,1.869,0.0,-52.786,29.326
3.875,-4.886,9.724,2.587,35.191,-4.646,9.963,2.443,-29.326,5.321,9.922,1.869,0.0,-52.786,29.326
3.88,-4.79,9.58,2.587,29.326,-4.598,9.82,2.443,-29.326,5.321,9.778,1.869,0.0,-46.921,29.326
3.8850000000000002,-4.742,9.388,2.587,29.326,-4.551,9.628,2.491,-29.326,5.321,9.635,1.869,0.0,-46.921,29.326
3.89,-4.694,9.341,2.635,35.191,-4.503,9.484,2.539,-29.326,5.177,9.347,1.869,0.0,-41.056,29.326
3.895,-4.646,9.293,2.682,29.326,-4.407,9.436,2.587,-29.326,5.177,9.347,2.013,0.0,-41.056,29.326
3.9,-4.598,9.101,2.73,29.326,-4.407,9.341,2.635,-29.326,5.033,9.203,2.013,0.0,-41.056,29.326
3.9050000000000002,-4.551,9.005,2.682,29.326,-4.359,9.341,2.587,-29.326,5.033,9.203,2.013,0.0,-35.191,29.326
3.91,-4.503,8.909,2.587,29.326,-4.359,9.293,2.491,-23.46,5.033,9.203,2.013,0.0,-35.191,29.326
3.915,-4.407,8.814,2.587,29.326,-4.311,9.293,2.491,-23.46,5.177,9.347,1.869,0.0,-35.191,23.46
3.92,-4.407,8.766,2.682,23.46,-4.311,9.245,2.539,-23.46,5.177,9.347,1.869,0.0,-29.326,23.46
3.9250000000000003,-4.455,8.814,2.778,23.46,-4.359,9.293,2.682,-23.46,5.177,9.347,2.013,5.865,-29.326,23.46
3.93,-4.455,8.909,2.922,23.46,-4.359,9.388,2.778,-17.595,5.177,9.491,2.157,5.865,-29.326,23.46
3.935,-4.455,9.005,2.97,17.595,-4.359,9.484,2.874,-17.595,5.177,9.491,2.301,5.865,-29.326,17.595
3.94,-4.598,9.245,3.066,17.595,-4.455,9.676,2.97,-17.595,5.177,9.635,2.301,17.595,-29.326,17.595
3.9450000000000003,-4.694,9.436,3.114,23.46,-4.551,9.82,2.97,-17.595,5.321,9.778,2.301,23.46,-29.326,17.595
3.95,-4.646,9.628,3.161,23.46,-4.551,9.915,3.066,-17.595,5.321,9.922,2.445,29.326,-29.326,17.595
3.955,-4.646,9.724,3.114,23.46,-4.455,9.915,3.018,-17.595,5.321,9.778,2.445,29.326,-29.326,17.595
3.96,-4.694,9.724,3.209,23.46,-4.503,9.82,3.066,-17.595,5.177,9.635,2.445,29.326,-29.326,23.46
3.9650000000000003,-4.79,9.484,3.257,23.46,-4.551,9.58,3.161,-17.595,5.177,9.491,2.588,29.326,-29.326,23.46
3.97,-4.838,9.293,3.305,23.46,-4.551,9.388,3.209,-17.595,5.177,9.203,2.588,29.326,-23.46,23.46
3.975,-4.742,9.197,3.353,23.46,-4.551,9.245,3.257,-17.595,5.177,9.059,2.588,29.326,-23.46,23.46
3.98,-4.694,9.101,3.353,23.46,-4.503,9.245,3.257,-17.595,5.177,8.916,2.732,29.326,-17.595,23.46
3.985,-4.551,9.101,3.401,17.595,-4.503,9.293,3.305,-17.595,5.177,9.059,2.732,23.46,-17.595,17.595
3.99,-4.455,9.101,3.545,11.73,-4.407,9.388,3.449,-11.73,5.321,9.203,2.732,23.46,-11.73,17.595
3.995,-4.503,9.293,3.784,11.73,-4.407,9.484,3.64,-5.865,5.177,9.347,2.876,23.46,-11.73,11.73
4.0,-4.646,9.58,4.024,5.865,-4.455,9.772,3.88,-5.865,5.177,9.347,3.164,23.46,-11.73,5.865
4.005,-4.598,9.915,4.311,-0.0,-4.407,10.011,4.119,0.0,5.177,9.635,3.451,23.46,-11.73,0.0
4.01,-4.407,10.346,4.551,-5.865,-4.215,10.299,4.407,5.865,5.033,9.922,3.739,23.46,-11.73,0.0
4.015,-4.167,10.825,4.79,-5.865,-3.976,10.634,4.646,5.865,4.889,10.066,4.026,23.46,-11.73,-5.865
4.0200000000000005,-3.928,11.352,4.934,-11.73,-3.736,11.065,4.838,11.73,4.602,10.354,4.17,23.46,-11.73,-5.865
4.025,-3.88,11.736,5.03,-5.865,-3.64,11.4,4.934,11.73,4.458,10.641,4.314,17.595,-5.865,-11.73
4.03,-3.688,11.879,5.125,-11.73,-3.497,11.544,5.03,11.73,4.314,10.929,4.458,5.865,-5.865,-11.73
4.035,-3.545,11.879,5.173,-5.865,-3.353,11.64,5.077,11.73,4.17,11.073,4.602,5.865,0.0,-5.865
4.04,-3.401,11.736,5.077,-5.865,-3.257,11.688,5.03,5.865,4.026,11.216,4.602,0.0,0.0,-5.865
4.045,-3.257,11.4,4.934,-5.865,-3.209,11.544,4.838,5.865,4.026,11.36,4.458,-5.865,5.865,-5.865
4.05,-3.114,11.017,4.742,-0.0,-3.114,11.257,4.694,0.0,4.026,11.216,4.17,-11.73,5.865,0.0
4.055,-2.922,10.586,4.646,5.865,-2.922,10.873,4.551,0.0,3.883,10.929,4.026,-11.73,5.865,0.0
4.0600000000000005,-2.778,10.107,4.455,11.73,-2.826,10.49,4.407,-5.865,3.883,10.641,3.883,-11.73,5.865,5.865
4.065,-2.539,9.532,4.263,11.73,-2.635,9.915,4.215,-11.73,3.595,10.21,3.739,-11.73,5.865,11.73
4.07,-2.347,8.766,4.167,11.73,-2.443,9.197,4.119,-11.73,3.451,9.491,3.595,-11.73,0.0,11.73
4.075,-2.347,8.095,4.167,11.73,-2.443,8.526,4.119,-11.73,3.307,8.772,3.451,-5.865,0.0,11.73
4.08,-2.443,7.568,4.072,11.73,-2.491,8.047,4.072,-11.73,3.307,8.197,3.451,-5.865,0.0,11.73
4.085,-3.114,7.472,4.311,11.73,-3.209,7.76,4.215,-11.73,3.451,7.909,3.451,-5.865,-5.865,11.73
4.09,-3.066,6.419,4.79,17.595,-2.874,7.377,4.359,-11.73,3.595,8.197,3.451,0.0,-5.865,11.73
4.095,-2.635,6.706,4.982,23.46,-2.73,7.472,4.934,-17.595,3.595,7.765,4.17,0.0,-5.865,17.595
4.1,-2.347,6.658,4.79,23.46,-2.443,7.281,4.742,-17.595,3.451,7.621,4.17,5.865,-5.865,23.46
4.105,-2.347,6.514,4.551,17.595,-2.395,6.754,4.503,-17.595,3.164,7.046,4.026,17.595,-11.73,17.595
4.11,-2.347,6.371,4.407,5.865,-2.347,6.371,4.359,-11.73,3.164,6.183,3.739,23.46,-11.73,17.595
4.115,-2.347,6.275,4.407,5.865,-2.347,6.179,4.311,0.0,3.02,5.752,3.739,23.46,-17.595,5.865
4.12,-2.347,6.275,4.455,-5.865,-2.251,6.131,4.359,5.865,3.02,5.608,3.739,23.46,-17.595,0.0
4.125,-2.443,6.371,4.407,-17.595,-2.299,6.227,4.359,17.595,2.876,5.608,3.739,5.865,-17.595,-11.73
4.13,-2.635,6.61,4.167,-29.326,-2.347,6.562,4.167,29.326,2.876,5.896,3.739,5.865,-17.595,-17.595
4.135,-3.018,6.946,3.976,-35.191,-2.682,6.993,3.928,35.191,2.876,6.471,3.451,5.865,-17.595,-29.326
4.14,-3.449,7.377,4.359,-35.191,-3.209,7.712,4.167,41.056,3.451,7.334,3.451,5.865,-11.73,-41.056
4.1450000000000005,-3.545,7.808,4.407,-29.326,-3.257,8.287,4.359,35.191,3.883,8.197,3.739,5.865,-11.73,-35.191
4.15,-3.545,8.191,3.976,-17.595,-3.257,8.622,3.976,23.46,3.739,8.772,3.595,5.865,-11.73,-23.46
4.155,-3.401,8.383,3.497,-5.865,-3.257,8.622,3.497,11.73,3.883,8.772,3.164,5.865,-5.865,-17.595
4.16,-3.114,8.335,3.114,5.865,-3.018,8.43,3.114,0.0,3.739,8.484,2.732,17.595,-5.865,0.0
4.165,-2.826,8.095,2.97,11.73,-2.73,8.095,2.922,-5.865,3.451,8.053,2.445,23.46,0.0,5.865
4.17,-2.778,7.712,2.778,11.73,-2.682,7.712,2.73,-11.73,3.307,7.478,2.157,23.46,0.0,11.73
4.175,-2.826,7.472,2.682,5.865,-2.73,7.329,2.587,-5.865,3.307,7.19,2.013,17.595,0.0,11.73
4.18,-2.97,7.329,2.587,-0.0,-2.778,7.041,2.539,0.0,3.307,6.759,2.013,5.865,0.0,5.865
4.1850000000000005,-2.97,7.137,2.635,-5.865,-2.73,6.85,2.491,5.865,3.307,6.327,1.869,5.865,0.0,0.0
4.19,-3.018,7.089,2.539,-11.73,-2.73,6.754,2.491,11.73,3.307,6.183,1.869,0.0,0.0,-5.865
4.195,-2.97,7.041,2.347,-11.73,-2.778,6.754,2.251,17.595,3.307,6.183,1.869,-5.865,5.865,-11.73
4.2,-2.922,6.993,2.108,-17.595,-2.778,6.85,2.06,23.46,3.307,6.327,1.582,-11.73,5.865,-17.595
4.205,-2.874,6.946,1.916,-17.595,-2.778,6.993,1.868,23.46,3.307,6.615,1.294,-17.595,5.865,-17.595
4.21,-2.826,6.802,1.724,-23.46,-2.778,6.993,1.677,23.46,3.451,6.759,1.15,-17.595,11.73,-17.595
4.215,-2.682,6.706,1.533,-23.46,-2.682,6.946,1.485,23.46,3.451,6.902,1.007,-23.46,11.73,-23.46
4.22,-2.635,6.658,1.389,-23.46,-2.587,6.946,1.341,23.46,3.307,6.902,0.719,-23.46,5.865,-23.46
4.225,-2.587,6.658,1.245,-23.46,-2.587,6.993,1.15,23.46,3.307,6.902,0.575,-23.46,5.865,-23.46
4.23,-2.539,6.706,1.293,-23.46,-2.539,7.137,1.198,23.46,3.307,7.19,0.431,-17.595,5.865,-23.46
4.235,-2.539,6.802,1.341,-17.595,-2.491,7.089,1.245,23.46,3.307,7.19,0.575,-17.595,5.865,-23.46
4.24,-2.587,6.802,1.485,-17.595,-2.443,6.946,1.341,23.46,3.164,7.046,0.719,-11.73,5.865,-23.46
4.245,-2.491,6.946,1.677,-17.595,-2.395,6.898,1.533,23.46,3.02,6.759,0.863,-11.73,5.865,-23.46
4.25,-2.395,7.185,1.724,-23.46,-2.251,6.993,1.629,23.46,2.876,6.615,1.007,-11.73,5.865,-23.46
4.255,-2.347,7.377,1.724,-23.46,-2.203,7.137,1.629,23.46,2.876,6.615,1.007,-17.595,5.865,-23.46
4.26,-2.299,7.377,1.724,-23.46,-2.203,7.233,1.629,29.326,2.876,6.759,1.007,-17.595,5.865,-23.46
4.265,-2.251,7.329,1.629,-23.46,-2.156,7.233,1.581,29.326,2.876,6.902,1.007,-23.46,5.865,-23.46
4.2700000000000005,-2.203,7.233,1.581,-23.46,-2.108,7.185,1.533,29.326,2.732,6.902,0.863,-23.46,5.865,-23.46
4.275,-2.203,7.089,1.581,-23.46,-2.156,7.137,1.485,29.326,2.732,6.902,0.863,-29.326,5.865,-23.46
4.28,-2.203,6.993,1.677,-29.326,-2.156,7.089,1.581,29.326,2.876,6.902,0.863,-29.326,5.865,-23.46
4.285,-2.156,6.946,1.772,-29.326,-2.156,7.089,1.677,29.326,2.876,6.902,1.007,-35.191,5.865,-23.46
4.29,-2.251,6.946,1.724,-29.326,-2.156,7.089,1.629,29.326,2.876,6.902,1.007,-35.191,5.865,-29.326
4.295,-2.299,6.993,1.629,-29.326,-2.251,7.089,1.581,29.326,2.876,6.902,1.007,-35.191,5.865,-23.46
4.3,-2.251,7.089,1.533,-23.46,-2.251,7.233,1.485,29.326,3.02,7.046,0.863,-35.191,0.0,-23.46
4.305,-2.156,7.281,1.629,-23.46,-2.251,7.377,1.485,23.46,3.02,7.19,0.863,-35.191,5.865,-23.46
4.3100000000000005,-2.203,7.52,1.868,-23.46,-2.203,7.472,1.724,23.46,3.02,7.19,1.007,-35.191,5.865,-23.46
4.315,-2.395,7.664,2.012,-23.46,-2.251,7.664,1.916,23.46,2.876,7.334,1.15,-35.191,0.0,-23.46
4.32,-2.539,7.808,2.156,-23.46,-2.347,7.808,2.012,23.46,2.876,7.478,1.294,-35.191,0.0,-23.46
4.325,-2.587,7.951,2.203,-23.46,-2.443,7.951,2.108,23.46,3.02,7.621,1.438,-41.056,0.0,-23.46
4.33,-2.635,8.239,2.156,-23.46,-2.491,8.191,2.06,23.46,3.164,7.765,1.438,-41.056,0.0,-23.46
4.335,-2.635,8.43,2.06,-23.46,-2.443,8.383,2.012,23.46,3.164,8.053,1.438,-41.056,0.0,-23.46
4.34,-2.73,8.718,1.916,-23.46,-2.587,8.622,1.82,23.46,3.164,8.197,1.294,-41.056,0.0,-23.46
4.345,-2.73,9.149,1.724,-17.595,-2.587,9.101,1.629,23.46,3.307,8.628,1.15,-46.921,0.0,-17.595
4.3500000000000005,-2.682,9.676,1.677,-17.595,-2.539,9.676,1.581,23.46,3.307,9.059,1.007,-46.921,0.0,-17.595
4.355,-2.635,10.203,1.677,-17.595,-2.539,10.203,1.533,17.595,3.451,9.778,1.007,-46.921,5.865,-17.595
4.36,-2.682,10.538,1.485,-11.73,-2.587,10.538,1.437,17.595,3.451,10.21,1.007,-46.921,5.865,-17.595
4.365,-2.73,10.73,1.198,-11.73,-2.635,10.682,1.054,11.73,3.451,10.497,0.719,-52.786,5.865,-11.73
4.37,-2.587,10.634,0.958,-5.865,-2.587,10.634,0.862,11.73,3.595,10.354,0.431,-52.786,0.0,-11.73
4.375,-2.443,10.538,0.91,-5.865,-2.443,10.586,0.814,5.865,3.451,10.354,0.144,-52.786,0.0,-5.865
4.38,-2.395,10.442,0.814,-5.865,-2.395,10.586,0.719,5.865,3.451,10.497,-0.0,-58.651,0.0,-5.865
4.385,-2.347,10.442,0.719,-5.865,-2.395,10.634,0.671,5.865,3.451,10.497,-0.0,-58.651,0.0,-5.865
4.39,-2.395,10.586,0.431,-5.865,-2.491,10.873,0.192,5.865,3.451,10.641,-0.0,-58.651,0.0,-5.865
4.3950000000000005,-2.347,10.49,0.479,-0.0,-2.443,10.825,0.383,5.865,3.451,10.785,-0.0,-52.786,-5.865,0.0
4.4,-2.156,10.682,0.527,-0.0,-2.299,11.065,0.383,5.865,3.451,11.073,-0.431,-52.786,-5.865,0.0
4.405,-1.964,10.49,0.527,-0.0,-2.06,11.113,0.479,0.0,3.307,11.216,-0.144,-52.786,-11.73,0.0
4.41,-1.724,10.346,0.575,-0.0,-1.868,11.017,0.527,5.865,3.164,11.216,-0.288,-52.786,-11.73,0.0
4.415,-1.581,10.203,0.766,-5.865,-1.724,10.921,0.623,5.865,3.02,11.216,-0.144,-46.921,-17.595,0.0
4.42,-1.533,10.299,1.198,-11.73,-1.677,10.969,1.054,11.73,2.876,11.073,0.144,-41.056,-17.595,-5.865
4.425,-1.724,10.442,1.533,-17.595,-1.772,11.065,1.389,17.595,2.876,11.216,0.575,-35.191,-23.46,-17.595
4.43,-1.916,10.538,1.82,-23.46,-1.868,11.065,1.677,23.46,2.876,11.36,0.863,-29.326,-29.326,-23.46
4.4350000000000005,-2.06,10.49,2.108,-29.326,-2.012,10.969,1.964,29.326,3.02,11.216,1.15,-17.595,-35.191,-23.46
4.44,-2.06,10.299,2.156,-29.326,-2.012,10.73,2.06,29.326,3.02,10.929,1.438,-17.595,-35.191,-29.326
4.445,-2.06,10.107,2.251,-29.326,-2.012,10.49,2.108,35.191,2.876,10.641,1.438,-11.73,-35.191,-35.191
4.45,-2.06,9.963,2.443,-35.191,-2.06,10.346,2.299,35.191,3.02,10.354,1.582,-5.865,-35.191,-35.191
4.455,-2.06,9.867,2.587,-29.326,-2.06,10.251,2.491,35.191,3.02,10.354,1.726,-5.865,-41.056,-35.191
4.46,-2.108,9.724,2.778,-29.326,-2.108,10.107,2.635,35.191,3.02,10.21,1.869,-5.865,-41.056,-35.191
4.465,-2.108,9.628,2.922,-29.326,-2.156,10.011,2.826,29.326,3.02,10.066,2.157,0.0,-41.056,-35.191
4.47,-2.108,9.676,3.161,-29.326,-2.108,10.059,3.018,35.191,3.02,10.066,2.301,0.0,-46.921,-29.326
4.4750000000000005,-2.108,9.963,3.401,-35.191,-2.06,10.251,3.305,35.191,3.02,10.066,2.445,5.865,-46.921,-35.191
4.48,-2.06,10.49,3.688,-35.191,-2.012,10.682,3.545,35.191,2.876,10.21,2.732,5.865,-46.921,-35.191
4.485,-2.012,11.544,4.072,-35.191,-1.916,12.119,3.88,41.056,2.876,10.641,3.02,5.865,-46.921,-35.191
4.49,-2.108,12.167,4.407,-41.056,-1.964,12.406,4.263,46.921,2.732,10.497,3.451,5.865,-52.786,-41.056
4.495,-2.203,12.598,4.551,-46.921,-1.964,12.406,4.407,46.921,2.876,11.792,3.739,23.46,-52.786,-41.056
4.5,-2.251,13.316,4.694,-41.056,-1.964,13.364,4.551,46.921,2.876,12.367,3.883,23.46,-52.786,-41.056
4.505,-2.347,13.652,4.646,-35.191,-2.06,13.508,4.598,41.056,2.876,13.23,4.026,23.46,-46.921,-35.191
4.51,-2.395,14.035,4.598,-29.326,-2.012,13.891,4.551,35.191,2.876,13.517,4.026,17.595,-46.921,-35.191
4.515,-2.443,13.987,4.551,-17.595,-2.06,13.604,4.455,23.46,2.876,13.661,4.026,5.865,-46.921,-23.46
4.5200000000000005,-2.347,13.699,4.311,-5.865,-1.964,13.46,4.263,11.73,2.876,13.373,3.883,5.865,-41.056,-17.595
4.525,-2.251,13.316,4.024,-0.0,-1.868,13.22,3.928,0.0,2.876,13.23,3.595,5.865,-35.191,-5.865
4.53,-2.012,12.406,3.736,11.73,-1.772,12.262,3.688,-5.865,2.732,12.367,3.307,0.0,-35.191,5.865
4.535,-1.868,11.496,3.401,17.595,-1.629,11.544,3.401,-11.73,2.588,11.648,3.02,-5.865,-29.326,11.73
4.54,-1.82,10.586,3.114,17.595,-1.533,10.634,3.066,-17.595,2.445,10.641,2.588,-11.73,-29.326,17.595
4.545,-1.677,9.724,2.922,17.595,-1.485,9.867,2.874,-17.595,2.301,10.066,2.445,-17.595,-29.326,17.595
4.55,-1.581,9.005,2.73,17.595,-1.389,9.245,2.682,-17.595,2.157,9.347,2.157,-17.595,-23.46,17.595
4.555,-1.485,8.287,2.635,11.73,-1.293,8.622,2.587,-11.73,2.013,8.916,2.013,-23.46,-23.46,17.595
4.5600000000000005,-1.485,7.52,2.443,11.73,-1.341,7.856,2.347,-5.865,2.013,8.34,1.869,-23.46,-23.46,11.73
4.565,-1.437,7.185,2.251,5.865,-1.293,7.664,2.203,-5.865,2.013,7.909,1.726,-23.46,-23.46,11.73
4.57,-1.293,7.089,2.395,-0.0,-1.341,7.712,2.299,0.0,2.157,7.765,1.582,-23.46,-23.46,5.865
4.575,-1.293,7.137,2.443,-5.865,-1.293,7.664,2.347,5.865,2.157,7.909,1.726,-17.595,-23.46,0.0
4.58,-1.245,7.233,2.443,-5.865,-1.293,7.808,2.347,11.73,2.157,7.909,1.726,-11.73,-23.46,0.0
4.585,-1.293,7.472,2.443,-11.73,-1.245,7.951,2.347,11.73,2.013,8.053,1.726,-5.865,-29.326,-5.865
4.59,-1.389,7.856,2.395,-11.73,-1.341,8.239,2.347,11.73,2.157,8.34,1.726,0.0,-29.326,-11.73
4.595,-1.341,8.335,2.491,-11.73,-1.293,8.574,2.347,11.73,2.157,8.628,1.726,0.0,-29.326,-11.73
4.6000000000000005,-1.198,8.766,2.491,-11.73,-1.198,8.957,2.395,11.73,2.013,8.916,1.869,5.865,-29.326,-11.73
4.605,-1.15,9.197,2.443,-5.865,-1.15,9.388,2.347,11.73,2.013,9.203,1.726,5.865,-35.191,-5.865
4.61,-1.198,9.484,2.491,-5.865,-1.15,9.58,2.443,5.865,2.013,9.491,1.726,5.865,-35.191,-5.865
4.615,-1.293,9.532,2.635,-5.865,-1.15,9.628,2.491,5.865,2.013,9.635,1.869,5.865,-35.191,-5.865
4.62,-1.293,9.484,2.73,-0.0,-1.198,9.628,2.635,0.0,2.013,9.491,1.869,5.865,-35.191,0.0
4.625,-1.341,9.436,2.874,5.865,-1.245,9.58,2.778,0.0,2.157,9.491,2.157,5.865,-35.191,0.0
4.63,-1.485,9.341,2.922,5.865,-1.341,9.484,2.826,-5.865,2.157,9.347,2.157,5.865,-35.191,5.865
4.635,-1.581,9.197,2.922,11.73,-1.389,9.341,2.826,-5.865,2.157,9.203,2.157,5.865,-41.056,5.865
4.64,-1.581,9.053,2.874,11.73,-1.437,9.149,2.826,-11.73,2.157,9.059,2.157,5.865,-41.056,11.73
4.6450000000000005,-1.629,8.909,2.826,11.73,-1.437,8.957,2.73,-11.73,2.157,8.916,2.157,5.865,-41.056,11.73
4.65,-1.677,8.718,2.778,11.73,-1.485,8.814,2.682,-11.73,2.301,8.628,2.157,5.865,-35.191,11.73
4.655,-1.772,8.574,2.635,17.595,-1.533,8.67,2.587,-11.73,2.301,8.484,2.013,5.865,-35.191,17.595
4.66,-1.868,8.335,2.539,17.595,-1.629,8.574,2.443,-11.73,2.301,8.34,1.869,5.865,-35.191,11.73
4.665,-2.443,7.329,2.347,11.73,-1.629,8.67,2.347,-11.73,2.445,8.34,1.726,5.865,-35.191,17.595
4.67,-1.964,7.856,2.203,23.46,-1.916,9.341,2.156,-11.73,2.301,8.772,1.582,5.865,-35.191,11.73
4.675,-2.443,8.862,2.156,29.326,-2.443,7.999,2.012,-5.865,2.876,8.628,1.438,-5.865,-35.191,5.865
4.68,-1.916,8.43,2.251,23.46,-2.012,8.047,2.203,-5.865,3.02,7.765,1.438,-5.865,-35.191,5.865
4.6850000000000005,-2.06,8.335,2.156,23.46,-1.868,7.999,2.06,-17.595,2.588,8.053,1.582,-5.865,-35.191,11.73
4.69,-2.443,7.808,1.964,29.326,-2.203,7.904,1.916,-23.46,2.732,7.909,1.438,0.0,-29.326,23.46
4.695,-2.491,7.76,1.868,29.326,-2.203,7.712,1.772,-23.46,2.876,7.765,1.15,0.0,-29.326,23.46
4.7,-2.395,7.76,1.868,29.326,-2.156,7.568,1.772,-23.46,2.732,7.478,1.15,0.0,-29.326,23.46
4.705,-2.395,7.856,1.724,29.326,-2.108,7.52,1.677,-29.326,2.732,7.334,1.15,0.0,-29.326,29.326
4.71,-2.395,7.712,1.533,29.326,-2.108,7.712,1.485,-29.326,2.732,7.334,1.007,0.0,-29.326,29.326
4.715,-2.347,7.999,1.389,29.326,-2.108,7.664,1.293,-29.326,2.732,7.478,0.719,-5.865,-23.46,29.326
4.72,-2.251,7.951,1.293,29.326,-2.108,7.52,1.198,-23.46,2.732,7.334,0.575,-5.865,-23.46,29.326
4.7250000000000005,-2.203,7.808,1.102,29.326,-2.06,7.616,1.102,-23.46,2.876,7.334,0.575,-11.73,-23.46,23.46
4.73,-2.108,7.664,0.814,29.326,-2.012,7.856,0.719,-23.46,2.588,7.765,0.144,-11.73,-17.595,23.46
4.735,-2.347,7.616,0.91,29.326,-2.203,7.999,0.814,-23.46,2.876,8.053,-0.0,-11.73,-17.595,23.46
4.74,-2.491,7.568,0.91,29.326,-2.251,7.951,0.766,-23.46,3.02,8.053,0.144,-5.865,-17.595,29.326
4.745,-2.539,7.425,0.958,29.326,-2.347,7.856,0.814,-29.326,3.02,8.053,0.144,-5.865,-17.595,29.326
4.75,-2.539,7.185,1.054,29.326,-2.347,7.664,0.958,-29.326,3.164,7.909,0.288,0.0,-17.595,29.326
4.755,-2.443,6.946,1.102,35.191,-2.299,7.472,1.006,-29.326,3.02,7.621,0.288,5.865,-17.595,29.326
4.76,-2.347,6.85,1.198,35.191,-2.299,7.377,1.102,-29.326,3.02,7.621,0.431,5.865,-17.595,29.326
4.765,-2.395,6.754,1.389,35.191,-2.251,7.281,1.245,-35.191,3.02,7.478,0.431,5.865,-17.595,35.191
4.7700000000000005,-2.443,6.898,1.677,29.326,-2.299,7.281,1.485,-29.326,3.02,7.334,0.719,17.595,-17.595,35.191
4.775,-2.395,7.329,1.964,29.326,-2.203,7.472,1.868,-29.326,3.02,7.334,1.007,23.46,-17.595,29.326
4.78,-2.443,7.712,1.964,29.326,-2.203,7.808,1.916,-23.46,2.876,7.478,1.294,23.46,-17.595,29.326
4.785,-2.347,8.239,1.964,23.46,-2.06,8.095,1.916,-23.46,2.876,7.621,1.294,29.326,-17.595,23.46
4.79,-2.635,7.951,2.108,17.595,-2.443,7.808,2.012,-17.595,3.02,7.621,1.294,23.46,-17.595,23.46
4.795,-2.491,8.287,2.395,17.595,-2.251,8.287,2.251,-17.595,3.02,7.765,1.438,23.46,-17.595,17.595
4.8,-2.491,8.43,2.922,23.46,-2.299,8.526,2.587,-17.595,3.02,8.197,1.726,17.595,-17.595,17.595
4.805,-2.778,8.478,2.682,23.46,-2.491,8.526,2.635,-17.595,3.02,8.484,2.157,17.595,-17.595,17.595
4.8100000000000005,-2.922,8.335,2.778,23.46,-2.682,8.574,2.635,-17.595,3.307,8.197,2.013,17.595,-11.73,17.595
4.815,-2.826,8.478,3.066,23.46,-2.635,8.957,2.922,-17.595,3.451,8.772,2.157,5.865,-11.73,23.46
4.82,-2.922,8.622,3.161,23.46,-2.73,9.005,3.066,-17.595,3.451,9.059,2.445,17.595,-11.73,17.595
4.825,-3.257,8.718,3.066,17.595,-3.018,8.957,2.97,-17.595,3.595,8.916,2.445,17.595,-11.73,23.46
4.83,-3.497,8.814,3.209,23.46,-3.161,9.005,3.114,-17.595,3.739,8.772,2.445,23.46,-11.73,17.595
4.835,-3.64,8.766,3.401,23.46,-3.305,9.005,3.305,-17.595,4.026,8.772,2.588,23.46,-11.73,17.595
4.84,-3.64,8.814,3.545,23.46,-3.305,9.149,3.449,-17.595,3.883,8.916,2.732,23.46,-5.865,23.46
4.845,-3.736,8.814,3.688,23.46,-3.449,9.149,3.593,-17.595,4.026,9.059,2.876,23.46,-5.865,23.46
4.8500000000000005,-3.88,8.814,3.736,17.595,-3.545,9.149,3.64,-17.595,4.17,9.059,3.02,29.326,-5.865,17.595
4.855,-3.976,8.766,3.784,17.595,-3.688,9.197,3.688,-11.73,4.314,9.059,3.02,29.326,0.0,17.595
4.86,-4.167,8.718,3.832,17.595,-3.832,9.101,3.736,-11.73,4.458,9.203,3.164,29.326,0.0,17.595
4.865,-4.167,8.622,3.88,17.595,-3.88,8.862,3.784,-11.73,4.602,8.916,3.164,29.326,5.865,17.595
4.87,-4.119,8.526,3.976,11.73,-3.832,8.814,3.88,-11.73,4.458,8.628,3.307,35.191,5.865,17.595
4.875,-4.263,8.526,4.072,11.73,-3.928,8.67,3.928,-11.73,4.458,8.628,3.307,35.191,5.865,11.73
4.88,-4.359,8.622,4.263,11.73,-3.976,8.67,4.119,-11.73,4.602,8.197,3.451,35.191,11.73,11.73
4.885,-4.311,8.814,4.503,11.73,-3.928,8.814,4.359,-5.865,4.458,8.34,3.739,35.191,17.595,11.73
4.89,-4.311,9.005,4.598,5.865,-3.88,9.005,4.503,-5.865,4.458,8.628,3.883,35.191,17.595,5.865
4.8950000000000005,-4.263,9.197,4.598,5.865,-3.88,9.149,4.455,0.0,4.458,8.628,3.883,29.326,23.46,5.865
4.9,-4.119,9.436,4.551,-0.0,-3.736,9.341,4.455,0.0,4.314,8.916,3.883,29.326,29.326,0.0
4.905,-4.024,9.532,4.359,-0.0,-3.64,9.436,4.311,0.0,4.314,8.916,3.883,29.326,35.191,0.0
4.91,-3.928,9.532,4.119,-0.0,-3.593,9.436,4.024,5.865,4.314,9.059,3.595,23.46,35.191,0.0
4.915,-3.784,9.484,3.928,-0.0,-3.497,9.436,3.88,5.865,4.17,9.059,3.451,17.595,41.056,0.0
4.92,-3.688,9.341,3.736,-0.0,-3.449,9.388,3.688,5.865,4.17,9.059,3.307,5.865,41.056,0.0
4.925,-3.545,9.053,3.545,-5.865,-3.305,9.197,3.497,5.865,4.026,9.059,3.02,5.865,46.921,0.0
4.93,-3.305,8.862,3.401,-0.0,-3.209,9.053,3.305,5.865,4.026,8.916,2.876,5.865,46.921,0.0
4.9350000000000005,-3.161,8.766,3.209,-5.865,-3.066,9.053,3.161,5.865,3.883,8.916,2.588,5.865,52.786,-5.865
4.94,-3.018,8.718,3.066,-5.865,-2.97,9.101,3.018,5.865,3.883,9.059,2.445,5.865,52.786,-5.865
4.945,-2.73,8.718,3.018,-5.865,-2.826,9.149,2.922,11.73,3.739,9.059,2.301,5.865,52.786,-5.865
4.95,-2.443,8.766,3.114,-11.73,-2.587,9.293,3.018,11.73,3.739,9.203,2.301,5.865,46.921,-5.865
4.955,-2.251,9.053,3.401,-11.73,-2.347,9.532,3.257,11.73,3.451,9.491,2.445,5.865,46.921,-11.73
4.96,-2.156,9.436,3.688,-17.595,-2.203,9.915,3.545,17.595,3.307,9.778,2.732,17.595,46.921,-11.73
4.965,-2.156,9.963,3.976,-17.595,-2.108,10.251,3.832,23.46,3.164,10.066,3.02,23.46,41.056,-17.595
4.97,-2.251,10.634,4.359,-23.46,-2.06,10.682,4.215,23.46,3.02,10.354,3.451,29.326,41.056,-23.46
4.9750000000000005,-2.299,11.304,4.598,-23.46,-1.964,11.113,4.455,29.326,2.876,10.641,3.739,29.326,35.191,-23.46
4.98,-2.395,11.927,4.694,-29.326,-1.964,11.448,4.598,29.326,2.732,10.785,4.026,29.326,35.191,-23.46
4.985,-2.491,12.406,4.694,-29.326,-1.964,11.831,4.598,29.326,2.732,10.929,4.026,23.46,41.056,-23.46
4.99,-2.491,12.55,4.694,-23.46,-2.012,12.071,4.598,29.326,2.732,11.216,4.026,17.595,41.056,-23.46
4.995,-2.443,12.55,4.646,-17.595,-2.012,12.215,4.551,23.46,2.732,11.504,4.026,5.865,46.921,-23.46
5.0,-2.347,12.454,4.503,-17.595,-1.964,12.262,4.407,23.46,2.732,11.648,3.883,0.0,52.786,-17.595
5.005,-2.347,12.167,4.263,-11.73,-2.012,12.119,4.215,17.595,2.876,11.648,3.739,-5.865,52.786,-17.595
5.01,-2.299,11.688,3.976,-5.865,-2.06,11.927,3.928,11.73,3.02,11.792,3.451,-11.73,58.651,-11.73
5.015,-2.299,11.113,3.784,-5.865,-2.156,11.448,3.736,5.865,3.164,11.504,3.307,-17.595,58.651,-5.865
5.0200000000000005,-2.251,10.682,3.64,-5.865,-2.156,11.065,3.593,5.865,3.164,11.216,3.02,-17.595,58.651,-5.865
5.025,-2.299,10.299,3.353,-5.865,-2.203,10.73,3.305,5.865,3.164,10.929,2.876,-17.595,58.651,-5.865
5.03,-2.251,10.251,3.209,-5.865,-2.203,10.49,3.161,5.865,3.164,10.497,2.588,-17.595,58.651,0.0
5.035,-2.108,10.346,3.066,-5.865,-2.108,10.442,2.97,11.73,3.164,10.21,2.445,-11.73,58.651,-5.865
5.04,-1.916,10.49,3.401,-11.73,-1.964,10.778,3.161,11.73,3.02,10.354,2.301,-11.73,52.786,-5.865
5.045,-1.964,11.017,3.209,-11.73,-1.964,11.161,3.161,11.73,3.164,10.929,2.588,-11.73,52.786,-11.73
5.05,-2.06,11.64,3.161,-11.73,-2.06,11.64,3.066,17.595,3.164,11.073,2.445,-11.73,46.921,-11.73
5.055,-2.682,12.933,3.018,-11.73,-2.203,12.598,3.018,17.595,3.307,11.792,2.445,-11.73,46.921,-11.73
5.0600000000000005,-2.491,13.699,3.114,-11.73,-2.635,13.556,2.97,11.73,3.595,12.798,2.301,-11.73,46.921,-11.73
5.065,-2.012,14.083,3.305,-0.0,-2.156,14.226,3.209,5.865,3.739,13.661,2.445,-17.595,46.921,-5.865
5.07,-1.916,14.322,3.449,5.865,-2.012,14.61,3.353,0.0,3.451,14.38,2.732,-17.595,41.056,0.0
5.075,-2.108,14.514,3.545,5.865,-2.108,14.849,3.449,-5.865,3.595,14.668,2.876,-17.595,35.191,5.865
5.08,-2.347,14.562,3.64,11.73,-2.251,14.801,3.545,-5.865,3.595,14.811,2.876,-11.73,35.191,5.865
5.085,-2.539,14.562,3.593,11.73,-2.395,14.705,3.545,-11.73,3.595,14.668,3.02,-11.73,29.326,11.73
5.09,-2.635,14.418,3.545,17.595,-2.443,14.562,3.497,-17.595,3.739,14.524,3.02,-11.73,23.46,11.73
5.095,-2.539,14.131,3.449,23.46,-2.395,14.274,3.401,-23.46,3.739,14.236,2.876,-11.73,23.46,23.46
5.1000000000000005,-2.395,13.747,3.257,29.326,-2.299,13.843,3.209,-29.326,3.595,13.805,2.732,-11.73,23.46,23.46
5.105,-2.347,13.268,3.066,35.191,-2.203,13.364,3.018,-29.326,3.451,13.373,2.588,-17.595,23.46,29.326
5.11,-2.347,12.694,2.922,41.056,-2.203,12.789,2.826,-35.191,3.451,12.798,2.445,-17.595,23.46,35.191
5.115,-2.539,12.167,2.826,41.056,-2.299,12.215,2.73,-41.056,3.307,12.223,2.157,-17.595,17.595,35.191
5.12,-2.587,11.783,2.682,46.921,-2.347,11.736,2.635,-46.921,3.307,11.504,2.157,-23.46,17.595,41.056
5.125,-2.347,11.161,2.587,46.921,-2.203,11.209,2.539,-46.921,3.164,11.073,2.013,-23.46,17.595,46.921
5.13,-2.203,10.442,2.443,46.921,-2.06,10.49,2.395,-46.921,3.02,10.497,1.869,-29.326,23.46,46.921
5.135,-2.347,9.963,2.251,52.786,-2.156,10.011,2.203,-46.921,3.02,9.922,1.726,-35.191,23.46,46.921
5.14,-2.203,9.436,2.108,58.651,-2.06,9.532,2.012,-52.786,3.02,9.491,1.582,-35.191,23.46,52.786
5.1450000000000005,-2.06,8.766,1.82,58.651,-1.964,8.766,1.772,-58.651,2.876,8.916,1.294,-41.056,23.46,58.651
5.15,-2.012,7.904,1.437,58.651,-1.868,7.664,1.389,-58.651,2.732,7.765,1.007,-41.056,23.46,58.651
5.155,-1.724,6.993,1.198,58.651,-1.629,6.754,1.15,-52.786,2.445,6.615,0.575,-46.921,23.46,58.651
5.16,-1.485,6.275,1.293,52.786,-1.437,6.179,1.15,-52.786,2.157,5.896,0.431,-52.786,23.46,58.651
5.165,-1.389,5.748,1.341,52.786,-1.437,5.94,1.245,-46.921,2.157,5.752,0.431,-58.651,23.46,52.786
5.17,-1.581,5.365,1.293,46.921,-1.533,5.7,1.15,-46.921,2.157,5.752,0.575,-64.516,23.46,52.786
5.175,-1.677,4.934,1.15,46.921,-1.629,5.317,1.054,-46.921,2.301,5.464,0.431,-64.516,23.46,46.921
5.18,-1.533,4.359,1.102,46.921,-1.581,4.886,1.006,-46.921,2.157,5.177,0.288,-64.516,17.595,46.921
5.1850000000000005,-1.389,3.64,1.102,52.786,-1.485,4.407,1.006,-46.921,2.157,4.889,0.288,-64.516,17.595,46.921
5.19,-1.245,2.874,1.15,52.786,-1.389,3.784,1.054,-46.921,2.157,4.458,0.288,-58.651,17.595,46.921
5.195,-1.245,2.203,1.15,52.786,-1.389,3.161,1.054,-52.786,2.013,4.026,0.288,-46.921,17.595,52.786
5.2,-1.389,1.629,1.15,46.921,-1.485,2.539,1.054,-46.921,2.013,3.307,0.288,-41.056,11.73,46.921
5.205,-1.485,1.102,1.102,46.921,-1.533,2.012,1.006,-46.921,2.013,2.732,0.288,-29.326,5.865,46.921
5.21,-1.581,0.671,1.054,41.056,-1.677,1.581,0.958,-41.056,2.157,2.301,0.288,-23.46,0.0,41.056
5.215,-1.724,0.24,1.102,41.056,-1.82,1.102,1.006,-35.191,2.301,1.726,0.288,-11.73,0.0,41.056
5.22,-1.772,-0.287,1.293,35.191,-1.82,0.527,1.198,-29.326,2.157,1.15,0.288,-5.865,-5.865,35.191
5.2250000000000005,-1.772,-1.054,1.485,29.326,-1.868,-0.192,1.341,-29.326,2.157,0.431,0.575,5.865,-5.865,29.326
5.23,-1.964,-1.724,1.581,23.46,-1.916,-0.91,1.485,-17.595,2.157,-0.431,0.719,5.865,-5.865,23.46
5.235,-2.251,-2.395,1.533,11.73,-2.203,-1.677,1.485,-11.73,2.157,-1.15,0.719,23.46,-11.73,17.595
5.24,-2.539,-2.97,1.485,-0.0,-2.347,-2.587,1.389,0.0,2.157,-2.157,0.719,29.326,-11.73,5.865
5.245,-2.539,-3.593,1.485,-17.595,-2.395,-3.401,1.437,17.595,2.157,-3.307,0.575,29.326,-11.73,-5.865
5.25,-2.491,-4.263,1.533,-29.326,-2.299,-4.072,1.437,29.326,2.157,-4.026,0.719,35.191,-5.865,-17.595
5.255,-2.395,-4.646,1.485,-41.056,-2.156,-4.598,1.437,41.056,1.869,-4.745,0.719,35.191,-5.865,-35.191
5.26,-2.299,-4.551,1.245,-58.651,-2.156,-4.694,1.198,58.651,1.726,-5.177,0.575,35.191,0.0,-46.921
5.265,-2.012,-4.263,1.341,-76.246,-2.012,-4.455,1.198,76.246,1.869,-5.177,0.431,29.326,0.0,-64.516
5.2700000000000005,-1.82,-4.119,1.437,-93.842,-1.724,-4.215,1.389,93.842,1.726,-4.889,0.575,29.326,5.865,-82.111
5.275,-1.82,-4.072,1.629,-105.572,-1.677,-3.976,1.533,105.572,1.582,-4.602,0.719,23.46,5.865,-99.707
5.28,-1.581,-3.449,1.964,-123.167,-1.485,-3.497,1.82,123.167,1.438,-4.17,0.863,17.595,5.865,-111.437
5.285,-1.293,-2.299,2.251,-134.897,-1.15,-2.347,2.156,140.762,1.15,-3.307,1.15,23.46,11.73,-129.032
5.29,-1.054,-0.862,2.539,-152.493,-0.91,-0.91,2.395,152.493,1.007,-1.869,1.582,17.595,17.595,-146.628
5.295,-0.958,1.15,2.778,-158.358,-0.719,0.91,2.682,164.223,0.863,-0.288,1.869,23.46,17.595,-152.493
5.3,0.383,14.37,3.736,-158.358,-3.353,18.298,2.73,164.223,0.719,1.869,2.157,23.46,17.595,-164.223
5.305,-8.335,23.806,-0.527,-158.358,-10.682,24.285,4.551,164.223,14.236,54.788,4.745,46.921,17.595,-164.223
5.3100000000000005,2.778,16.573,-2.203,-170.088,5.077,12.358,-3.257,181.818,-1.294,25.884,-5.896,193.548,-35.191,-164.223
5.315,-2.587,22.657,-4.263,-41.056,-4.79,23.136,-4.551,70.381,-2.588,4.026,-4.026,217.009,-46.921,-129.032
5.32,0.671,14.418,-3.257,5.865,-0.144,13.987,-3.832,-5.865,8.34,21.426,-5.608,187.683,-29.326,-11.73
5.325,-0.814,12.789,1.054,-29.326,1.054,13.699,0.144,29.326,-0.719,7.046,-3.307,187.683,-52.786,-5.865
5.33,-3.018,15.615,1.485,-64.516,-2.635,10.346,1.341,82.111,2.301,7.765,0.719,158.358,-64.516,-58.651
5.335,-5.173,17.244,1.964,-82.111,-3.88,12.119,1.677,105.572,2.732,7.765,1.007,105.572,-64.516,-93.842
5.34,-4.982,19.064,2.347,-82.111,-3.88,15.472,2.203,93.842,4.314,11.073,1.726,64.516,-52.786,-99.707
5.345,-4.263,20.022,2.06,-64.516,-3.305,17.675,2.012,76.246,4.026,14.668,1.869,17.595,-35.191,-87.977
5.3500000000000005,-3.114,19.16,1.964,-52.786,-2.73,17.771,1.868,58.651,3.883,16.393,1.582,-17.595,-17.595,-70.381
5.355,-2.108,16.909,2.156,-29.326,-2.108,16.861,1.964,41.056,3.739,16.825,1.294,-46.921,-5.865,-52.786
5.36,-1.868,14.61,2.682,-17.595,-1.916,15.52,2.443,23.46,3.451,16.249,1.582,-58.651,0.0,-23.46
5.365,-2.156,12.694,3.64,-11.73,-2.156,14.226,3.305,11.73,3.595,15.243,2.157,-64.516,-5.865,-11.73
5.37,-2.395,11.496,4.598,-11.73,-2.299,13.173,4.311,11.73,3.739,14.524,3.164,-58.651,-11.73,-11.73
5.375,-2.826,10.682,4.982,-11.73,-2.299,12.119,4.79,11.73,3.307,13.517,4.026,-46.921,-11.73,-11.73
5.38,-3.209,10.538,4.886,-5.865,-2.73,11.448,4.742,11.73,3.307,12.511,4.314,-29.326,-17.595,-11.73
5.385,-2.922,10.586,4.886,-5.865,-2.682,11.304,4.79,5.865,3.595,11.792,4.17,-17.595,-11.73,-5.865
5.39,-2.395,11.065,4.551,5.865,-2.203,11.352,4.551,0.0,3.307,11.504,4.17,-5.865,-11.73,0.0
5.3950000000000005,-2.108,11.544,3.784,5.865,-1.964,11.496,3.832,-5.865,3.02,11.216,3.739,0.0,-11.73,5.865
5.4,-1.82,11.831,3.161,5.865,-1.82,11.688,3.209,-5.865,3.164,11.216,2.876,0.0,-11.73,5.865
5.405,-1.772,11.975,2.826,5.865,-1.772,11.736,2.826,-5.865,3.02,11.36,2.445,0.0,-11.73,5.865
5.41,-1.964,11.975,2.73,5.865,-1.82,11.831,2.682,-5.865,3.02,11.36,2.157,-5.865,-11.73,5.865
5.415,-2.012,11.688,2.491,11.73,-1.868,11.688,2.443,-5.865,2.876,11.36,2.013,-11.73,-17.595,11.73
5.42,-2.156,11.4,2.203,11.73,-1.964,11.544,2.156,-5.865,3.164,11.36,1.726,-17.595,-17.595,11.73
5.425,-2.108,11.161,1.868,11.73,-2.012,11.4,1.82,-5.865,3.02,11.36,1.438,-17.595,-17.595,11.73
5.43,-1.964,11.017,1.581,5.865,-1.916,11.257,1.533,-5.865,3.164,11.216,1.007,-17.595,-23.46,11.73
5.4350000000000005,-1.868,11.017,1.389,5.865,-1.868,11.257,1.341,-5.865,3.02,11.073,0.863,-17.595,-23.46,11.73
5.44,-1.724,11.209,1.293,5.865,-1.772,11.496,1.198,-5.865,3.02,11.36,0.575,-17.595,-23.46,5.865
5.445,-1.581,11.544,1.485,11.73,-1.629,11.831,1.341,-5.865,3.02,11.648,0.575,-17.595,-29.326,11.73
5.45,-1.485,11.879,1.868,11.73,-1.437,12.167,1.677,-5.865,2.876,11.935,0.863,-17.595,-35.191,11.73
5.455,-1.533,12.119,2.203,11.73,-1.389,12.358,2.012,-5.865,2.732,12.223,1.294,-11.73,-35.191,11.73
5.46,-1.533,12.31,2.539,11.73,-1.341,12.598,2.347,-5.865,2.588,12.511,1.582,-11.73,-41.056,11.73
5.465,-1.485,12.502,2.826,11.73,-1.245,12.741,2.635,-5.865,2.445,12.654,1.869,-11.73,-41.056,11.73
5.47,-1.245,12.55,3.018,11.73,-1.006,12.741,2.874,-11.73,2.301,12.654,2.157,-5.865,-41.056,11.73
5.4750000000000005,-1.15,12.454,3.257,17.595,-0.862,12.598,3.161,-11.73,2.013,12.511,2.445,-5.865,-41.056,11.73
5.48,-1.102,12.454,3.353,23.46,-0.766,12.598,3.257,-17.595,1.869,12.511,2.588,-5.865,-41.056,17.595
5.485,-0.766,12.215,3.401,23.46,-0.527,12.358,3.305,-17.595,1.726,12.367,2.732,-5.865,-41.056,23.46
5.49,-0.575,11.879,3.353,23.46,-0.287,11.927,3.257,-23.46,1.438,11.935,2.732,-5.865,-41.056,23.46
5.495,-0.479,11.496,3.353,23.46,-0.192,11.592,3.257,-23.46,1.294,11.504,2.588,-5.865,-41.056,23.46
5.5,-0.383,10.969,3.353,29.326,-0.144,11.161,3.257,-23.46,1.15,11.216,2.588,-11.73,-41.056,23.46
5.505,-0.192,10.442,3.401,29.326,0.048,10.682,3.257,-23.46,1.007,10.785,2.588,-11.73,-41.056,29.326
5.51,-0.048,9.724,3.497,29.326,0.192,10.059,3.353,-29.326,0.863,10.21,2.732,-11.73,-41.056,29.326
5.515,-0.144,9.341,3.449,29.326,0.287,9.532,3.401,-29.326,0.719,9.635,2.876,-11.73,-41.056,29.326
5.5200000000000005,-0.144,9.053,3.449,29.326,0.287,9.053,3.401,-23.46,0.431,9.059,2.732,-17.595,-41.056,29.326
5.525,-0.096,8.862,3.545,23.46,0.335,8.862,3.449,-17.595,0.288,8.628,2.876,-17.595,-41.056,23.46
5.53,0.0,9.053,3.545,23.46,0.431,8.909,3.449,-17.595,0.288,8.484,2.876,-17.595,-35.191,23.46
5.535,0.096,9.053,3.497,23.46,0.431,9.197,3.401,-17.595,0.144,8.772,2.876,-17.595,-35.191,23.46
5.54,0.287,9.436,3.64,17.595,0.671,9.532,3.497,-17.595,0.0,9.203,2.732,-23.46,-29.326,23.46
5.545,0.287,9.58,3.64,17.595,0.719,9.772,3.545,-11.73,0.0,9.635,3.02,-23.46,-29.326,17.595
5.55,0.048,10.011,3.688,23.46,0.623,10.251,3.593,-17.595,0.0,10.066,3.02,-23.46,-29.326,17.595
5.555,0.096,10.442,3.688,23.46,0.623,10.73,3.593,-23.46,0.0,10.497,3.02,-17.595,-23.46,23.46
5.5600000000000005,0.144,10.73,3.64,23.46,0.719,11.113,3.545,-23.46,0.0,10.929,3.02,-17.595,-23.46,23.46
5.565,0.287,10.73,3.401,29.326,0.719,11.209,3.401,-23.46,0.0,11.36,2.876,-11.73,-17.595,23.46
5.57,0.766,10.155,3.593,35.191,0.814,11.209,3.353,-29.326,0.288,11.504,2.588,-11.73,-11.73,29.326
5.575,0.91,10.921,2.156,35.191,0.862,11.352,2.347,-35.191,0.288,11.792,2.445,-5.865,-11.73,35.191
5.58,1.198,11.113,1.868,41.056,0.719,11.544,1.916,-35.191,0.431,11.504,1.15,5.865,-11.73,35.191
5.585,1.102,11.352,0.335,41.056,0.91,11.496,0.431,-35.191,0.863,11.792,0.575,5.865,-17.595,41.056
5.59,1.102,11.304,-0.766,41.056,0.623,11.209,-0.623,-41.056,0.719,11.216,-0.719,5.865,-29.326,35.191
5.595,0.91,10.873,-1.581,41.056,0.335,10.778,-1.533,-35.191,1.294,10.641,-1.869,5.865,-35.191,41.056
5.6000000000000005,0.719,10.394,-2.108,41.056,0.144,10.346,-2.06,-41.056,1.438,10.354,-2.588,5.865,-46.921,41.056
5.605,0.383,9.963,-2.251,41.056,-0.144,9.963,-2.347,-41.056,1.726,9.922,-3.02,5.865,-58.651,41.056
5.61,-0.048,9.484,-2.203,46.921,-0.479,9.724,-2.299,-41.056,1.869,9.635,-3.164,0.0,-70.381,41.056
5.615,-0.383,9.053,-2.108,46.921,-0.814,9.436,-2.251,-46.921,2.013,9.635,-3.02,0.0,-82.111,41.056
5.62,-0.719,8.862,-2.156,46.921,-1.006,9.245,-2.251,-46.921,2.301,9.491,-3.02,0.0,-93.842,46.921
5.625,-1.054,8.622,-2.203,52.786,-1.293,9.053,-2.347,-46.921,2.445,9.347,-3.164,0.0,-105.572,46.921
5.63,-1.293,8.43,-2.251,52.786,-1.581,8.814,-2.395,-46.921,2.732,9.059,-3.164,5.865,-111.437,46.921
5.635,-1.341,8.191,-2.347,58.651,-1.677,8.622,-2.491,-52.786,2.876,8.916,-3.307,5.865,-123.167,52.786
5.64,-1.245,7.951,-2.299,64.516,-1.677,8.383,-2.539,-58.651,3.02,8.628,-3.451,5.865,-129.032,58.651
5.6450000000000005,-1.102,7.664,-2.108,70.381,-1.629,8.047,-2.347,-70.381,3.02,8.34,-3.307,5.865,-134.897,64.516
5.65,-1.006,7.377,-1.629,76.246,-1.533,7.616,-1.964,-76.246,2.876,7.909,-3.164,5.865,-146.628,70.381
5.655,-1.15,7.137,-1.006,76.246,-1.485,7.185,-1.389,-76.246,2.732,7.334,-2.588,17.595,-152.493,70.381
5.66,-1.389,6.993,-0.192,76.246,-1.581,6.85,-0.623,-76.246,2.588,6.759,-1.869,5.865,-164.223,76.246
5.665,-1.629,6.562,1.006,76.246,-1.677,6.419,0.527,-76.246,2.588,6.327,-1.007,5.865,-170.088,76.246
5.67,-1.916,5.892,2.347,76.246,-1.868,5.94,1.868,-76.246,2.588,5.752,0.288,5.865,-175.953,76.246
5.675,-2.395,5.317,3.784,70.381,-2.108,5.604,3.257,-70.381,2.588,5.464,1.726,0.0,-181.818,70.381
5.68,-2.682,4.79,5.365,64.516,-2.347,5.221,4.79,-64.516,2.588,5.321,3.164,-5.865,-181.818,70.381
5.6850000000000005,-2.97,4.119,6.898,58.651,-2.539,4.838,6.371,-58.651,2.732,5.033,4.745,-5.865,-181.818,64.516
5.69,-3.401,3.593,8.239,52.786,-2.826,4.455,7.712,-52.786,2.732,4.745,6.183,-5.865,-175.953,52.786
5.695,-3.928,3.257,9.532,46.921,-3.161,4.119,9.053,-46.921,3.02,4.602,7.621,0.0,-175.953,46.921
5.7,-4.359,3.066,10.586,41.056,-3.497,3.88,10.203,-41.056,3.164,4.17,8.916,5.865,-170.088,41.056
5.705,-4.646,3.018,11.688,35.191,-3.64,3.688,11.304,-35.191,3.307,3.883,10.066,5.865,-158.358,35.191
5.71,-4.838,2.922,12.598,29.326,-3.736,3.449,12.262,-29.326,3.164,3.595,11.073,23.46,-152.493,29.326
5.715,-5.173,2.778,13.508,23.46,-3.784,3.066,13.173,-23.46,3.02,3.02,12.223,29.326,-140.762,29.326
5.72,-5.556,2.73,14.274,17.595,-3.928,2.73,13.987,-17.595,2.876,2.445,13.086,29.326,-123.167,23.46
5.7250000000000005,-5.892,2.97,14.993,5.865,-3.976,2.587,14.753,-11.73,2.732,1.869,13.949,29.326,-105.572,11.73
5.73,-6.131,3.401,15.52,-0.0,-4.024,2.874,15.376,0.0,2.588,1.582,14.668,29.326,-82.111,5.865
5.735,-6.227,4.072,15.855,-5.865,-4.024,3.545,15.711,11.73,2.588,2.157,15.243,23.46,-52.786,0.0
5.74,-6.131,4.982,15.903,-17.595,-3.976,4.503,15.855,17.595,2.445,3.02,15.53,5.865,-23.46,-11.73
5.745,-5.892,5.652,15.328,-17.595,-3.928,5.556,15.376,23.46,2.588,4.314,15.387,0.0,5.865,-17.595
5.75,-5.892,6.227,14.801,-23.46,-3.784,6.371,14.753,23.46,2.732,5.608,14.811,-5.865,35.191,-17.595
5.755,-5.604,6.802,14.274,-23.46,-3.736,6.993,14.226,23.46,2.588,6.327,14.236,-5.865,64.516,-23.46
5.76,-5.125,7.041,13.364,-17.595,-3.545,7.472,13.364,23.46,2.876,7.046,13.517,-5.865,93.842,-17.595
5.765,-4.646,7.185,12.215,-11.73,-3.209,7.664,12.215,17.595,2.732,7.621,12.511,-5.865,117.302,-17.595
5.7700000000000005,-4.119,7.281,11.017,-5.865,-2.874,7.712,10.969,11.73,2.588,7.621,11.073,0.0,140.762,-11.73
5.775,-3.928,7.472,10.011,-5.865,-2.491,7.76,9.867,5.865,2.301,7.621,9.922,0.0,158.358,0.0
5.78,-3.928,7.76,9.053,-5.865,-2.443,7.999,8.814,5.865,2.013,7.621,8.916,5.865,175.953,0.0
5.785,-3.832,8.143,7.856,-5.865,-2.443,8.383,7.712,5.865,2.013,7.909,7.765,5.865,193.548,0.0
5.79,-3.353,8.191,5.7,-5.865,-2.395,8.67,5.748,5.865,2.157,8.484,6.327,5.865,211.144,0.0
5.795,-1.916,8.383,2.587,-0.0,-1.916,8.574,2.73,5.865,2.588,8.628,3.595,5.865,228.739,0.0
5.8,-0.24,8.718,-0.862,-0.0,-1.102,8.335,-0.623,0.0,2.588,8.197,0.288,5.865,240.469,0.0
5.805,1.102,9.197,-4.024,5.865,-0.24,8.287,-3.784,0.0,2.301,7.478,-3.164,5.865,240.469,5.865
5.8100000000000005,2.108,9.724,-6.754,-5.865,0.24,8.43,-6.514,5.865,2.157,7.19,-6.04,5.865,234.604,5.865
5.815,2.73,10.442,-8.909,-17.595,0.431,8.862,-8.67,23.46,2.301,7.19,-8.628,-11.73,211.144,-5.865
5.82,2.491,11.209,-10.538,-35.191,0.287,9.628,-10.346,35.191,2.588,7.765,-10.497,-29.326,187.683,-23.46
5.825,1.437,11.688,-11.64,-46.921,-0.479,10.442,-11.64,52.786,3.02,8.628,-11.935,-52.786,152.493,-41.056
5.83,0.144,11.592,-11.592,-52.786,-1.245,10.873,-11.736,58.651,3.451,9.635,-12.654,-70.381,117.302,-52.786
5.835,-1.102,11.496,-10.921,-52.786,-2.347,11.736,-11.209,58.651,4.458,10.929,-12.511,-87.977,87.977,-52.786
5.84,-1.533,11.209,-9.915,-41.056,-2.874,12.598,-10.251,46.921,5.177,12.798,-11.648,-99.707,58.651,-52.786
5.845,-1.82,10.825,-9.101,-17.595,-3.161,12.981,-9.436,23.46,5.752,14.524,-10.785,-93.842,35.191,-35.191
5.8500000000000005,-1.772,10.155,-8.239,5.865,-3.066,12.694,-8.574,0.0,5.752,14.668,-9.922,-76.246,11.73,-5.865
5.855,-1.389,9.149,-7.52,23.46,-2.826,12.167,-7.808,-23.46,5.464,14.668,-9.059,-52.786,-11.73,11.73
5.86,-1.581,8.67,-7.041,46.921,-2.97,11.544,-7.329,-41.056,5.608,14.38,-8.484,-23.46,-35.191,29.326
5.865,-1.916,8.574,-6.514,58.651,-3.018,10.873,-6.85,-58.651,5.608,13.373,-8.053,5.865,-64.516,52.786
5.87,-1.916,8.383,-6.035,70.381,-2.874,10.155,-6.419,-70.381,5.033,12.079,-7.478,46.921,-87.977,64.516
5.875,-2.06,8.43,-5.125,76.246,-2.97,9.58,-5.556,-76.246,5.033,10.929,-7.046,76.246,-111.437,70.381
5.88,-2.156,8.622,-4.024,82.111,-2.778,9.101,-4.551,-82.111,4.602,9.922,-6.183,93.842,-129.032,76.246
5.885,-2.299,8.909,-2.491,87.977,-2.635,8.766,-3.066,-87.977,4.17,8.916,-4.889,105.572,-140.762,82.111
5.89,-2.539,9.053,-0.671,87.977,-2.443,8.335,-1.293,-87.977,3.595,7.909,-3.164,111.437,-152.493,82.111
5.8950000000000005,-2.97,8.957,1.341,82.111,-2.539,7.999,0.719,-82.111,3.164,7.046,-1.294,99.707,-164.223,82.111
5.9,-3.401,8.67,3.401,76.246,-2.635,7.664,2.826,-76.246,3.02,6.471,0.863,87.977,-164.223,76.246
5.905,-3.928,8.239,5.317,64.516,-2.97,7.377,4.79,-64.516,2.876,6.183,3.02,76.246,-164.223,70.381
5.91,-4.455,7.616,6.993,52.786,-3.305,6.993,6.514,-58.651,3.02,6.04,5.033,52.786,-152.493,58.651
5.915,-4.79,7.041,8.43,41.056,-3.497,6.562,7.999,-46.921,3.164,5.608,6.759,41.056,-140.762,46.921
5.92,-5.125,6.658,9.58,29.326,-3.64,6.275,9.245,-35.191,3.02,5.321,8.053,23.46,-129.032,35.191
5.925,-5.365,6.371,10.394,17.595,-3.976,6.275,10.107,-17.595,3.164,5.321,9.203,5.865,-111.437,23.46
5.93,-5.461,6.323,10.921,5.865,-4.167,6.514,10.73,-5.865,3.595,5.752,9.922,5.865,-93.842,11.73
5.9350000000000005,-5.317,6.419,11.257,-5.865,-4.119,6.802,11.113,0.0,3.739,6.183,10.497,0.0,-76.246,5.865
5.94,-5.173,6.658,11.592,-5.865,-4.072,7.137,11.352,11.73,3.739,6.759,10.785,-5.865,-58.651,-5.865
5.945,-4.742,6.706,11.496,-17.595,-3.784,7.329,11.4,17.595,4.026,7.334,11.073,0.0,-41.056,-11.73
5.95,-5.03,6.802,11.496,-17.595,-3.928,7.472,11.4,23.46,4.026,7.478,10.929,0.0,-29.326,-17.595
5.955,-5.077,7.472,11.257,-23.46,-4.024,7.856,11.257,29.326,3.739,7.621,10.929,5.865,-17.595,-23.46
5.96,-4.694,7.856,10.873,-29.326,-3.88,8.287,10.873,29.326,3.883,7.909,10.641,5.865,0.0,-23.46
5.965,-4.072,8.143,10.394,-29.326,-3.401,8.574,10.394,29.326,3.739,8.34,10.21,17.595,11.73,-29.326
5.97,-3.832,8.191,9.772,-23.46,-3.161,8.67,9.82,29.326,3.595,8.628,9.635,23.46,23.46,-23.46
5.9750000000000005,-3.401,8.191,9.149,-23.46,-2.874,8.574,9.149,29.326,3.451,8.628,9.059,29.326,35.191,-23.46
5.98,-2.922,7.951,8.478,-29.326,-2.491,8.287,8.526,29.326,3.02,8.197,8.34,29.326,41.056,-23.46
5.985,-1.82,13.029,5.652,-29.326,-2.587,14.801,6.371,29.326,2.876,8.34,7.478,29.326,46.921,-29.326
5.99,-5.556,18.442,2.012,-17.595,-6.083,23.184,-0.383,23.46,10.066,34.943,1.294,41.056,46.921,-23.46
5.995,1.724,9.293,7.233,-5.865,1.102,6.467,7.472,11.73,3.164,10.21,4.026,93.842,29.326,-11.73
6.0,0.144,8.814,1.533,23.46,0.335,9.628,2.395,-17.595,-1.15,5.321,5.321,99.707,23.46,0.0
6.005,-3.688,8.766,0.623,29.326,-4.072,9.724,0.24,-29.326,4.314,11.792,-0.431,82.111,17.595,29.326
6.01,-2.203,9.867,1.677,-0.0,-2.251,8.287,1.533,0.0,4.458,7.621,0.288,87.977,5.865,23.46
6.015000000000001,-0.814,8.957,2.874,-11.73,-0.623,7.712,2.539,17.595,1.726,6.615,1.294,87.977,0.0,-5.865
6.0200000000000005,-1.533,8.43,3.64,-17.595,-1.389,7.664,3.64,23.46,1.582,6.183,2.588,70.381,0.0,-17.595
6.025,-2.347,8.862,3.161,-23.46,-2.06,8.526,3.161,23.46,2.732,7.334,2.876,46.921,0.0,-17.595
6.03,-1.916,9.388,3.353,-35.191,-1.82,9.005,3.209,35.191,2.732,8.197,2.445,35.191,0.0,-23.46
6.035,-1.293,9.532,3.832,-41.056,-1.389,9.293,3.736,46.921,2.588,8.484,2.876,29.326,0.0,-41.056
6.04,-1.293,9.388,4.119,-46.921,-1.293,9.532,4.024,46.921,2.445,9.059,3.307,23.46,0.0,-46.921
6.045,-1.677,9.197,4.503,-46.921,-1.581,9.532,4.359,46.921,2.445,9.491,3.595,17.595,0.0,-46.921
6.05,-1.916,8.862,4.982,-41.056,-1.772,9.293,4.838,46.921,2.588,9.347,3.883,17.595,-5.865,-46.921
6.055,-2.108,8.43,5.365,-41.056,-1.868,8.957,5.221,46.921,2.732,9.203,4.458,17.595,-11.73,-46.921
6.0600000000000005,-2.395,8.047,5.652,-41.056,-2.06,8.622,5.556,41.056,2.732,8.916,4.745,17.595,-11.73,-41.056
6.065,-2.635,7.904,5.94,-29.326,-2.203,8.383,5.796,35.191,2.732,8.628,5.033,23.46,-11.73,-35.191
6.07,-2.682,7.999,6.083,-23.46,-2.251,8.383,5.988,29.326,2.876,8.484,5.321,29.326,-11.73,-29.326
6.075,-2.491,8.143,6.035,-17.595,-2.156,8.478,5.988,23.46,2.732,8.484,5.464,35.191,-5.865,-23.46
6.08,-2.395,8.287,5.892,-11.73,-2.156,8.67,5.844,11.73,2.732,8.628,5.321,35.191,0.0,-11.73
6.085,-2.251,8.478,5.652,-11.73,-2.06,8.862,5.604,11.73,2.876,8.772,5.177,41.056,0.0,-11.73
6.09,-2.251,8.574,5.461,-11.73,-2.06,8.862,5.413,11.73,2.876,8.772,4.889,41.056,0.0,-5.865
6.095,-2.251,8.574,5.221,-11.73,-2.108,8.862,5.221,11.73,2.876,8.628,4.745,46.921,0.0,-11.73
6.1000000000000005,-2.299,8.574,5.03,-11.73,-2.156,8.766,4.982,11.73,3.02,8.628,4.458,46.921,0.0,-11.73
