time_aligned_sec,L_Acc_X_aligned,L_Acc_Y_aligned,L_Acc_Z_aligned,L_Gyro_Z_aligned,R_Acc_X_aligned,R_Acc_Y_aligned,R_Acc_Z_aligned,R_Gyro_Z_aligned,T_Acc_X_aligned,T_Acc_Y_aligned,T_Acc_Z_aligned,T_Gyro_X_aligned,T_Gyro_Y_aligned,T_Gyro_Z_aligned
0.0,0.431,6.467,-7.233,5.865,0.0,6.61,7.52,0.0,0.144,6.471,-7.478,41.056,-11.73,5.865
0.005,0.335,6.323,-7.233,-0.0,0.048,6.562,7.472,0.0,0.144,6.615,-7.478,41.056,-11.73,5.865
0.01,0.287,6.275,-7.185,5.865,0.096,6.562,7.425,0.0,0.0,6.615,-7.478,41.056,-17.595,5.865
0.015,0.144,6.227,-7.233,5.865,0.096,6.562,7.472,0.0,0.0,6.615,-7.478,41.056,-17.595,5.865
0.02,0.192,6.275,-7.329,5.865,0.0,6.61,7.616,0.0,-0.144,6.615,-7.621,41.056,-17.595,5.865
0.025,0.24,6.419,-7.425,5.865,-0.048,6.658,7.712,0.0,-0.288,6.615,-7.765,46.921,-11.73,5.865
0.03,0.24,6.467,-7.568,5.865,-0.048,6.658,7.808,0.0,-0.288,6.615,-7.765,46.921,-11.73,5.865
0.035,0.24,6.61,-7.664,5.865,-0.048,6.706,7.951,0.0,-0.288,6.471,-7.909,46.921,-11.73,5.865
0.04,0.192,6.658,-7.664,5.865,-0.096,6.706,7.904,0.0,-0.288,6.471,-7.909,41.056,-11.73,5.865
0.045,0.287,6.658,-7.76,-0.0,-0.048,6.706,7.951,0.0,-0.144,6.471,-7.909,41.056,-5.865,5.865
0.05,0.24,6.658,-7.664,5.865,0.048,6.706,7.856,0.0,-0.144,6.471,-7.909,35.191,-5.865,5.865
0.055,0.192,6.658,-7.568,5.865,0.048,6.706,7.808,0.0,0.0,6.327,-7.765,35.191,-5.865,5.865
0.06,0.192,6.61,-7.472,-0.0,0.096,6.658,7.664,0.0,0.0,6.327,-7.621,35.191,-5.865,5.865
0.065,0.144,6.562,-7.377,5.865,0.144,6.658,7.616,0.0,0.0,6.471,-7.621,29.326,-5.865,5.865
0.07,0.144,6.562,-7.377,5.865,0.192,6.706,7.568,0.0,0.144,6.471,-7.621,29.326,-5.865,5.865
0.075,0.048,6.562,-7.329,5.865,0.192,6.706,7.52,0.0,0.144,6.615,-7.478,23.46,0.0,5.865
0.08,0.096,6.562,-7.281,5.865,0.192,6.754,7.472,0.0,0.144,6.615,-7.478,23.46,0.0,5.865
0.085,0.144,6.61,-7.281,5.865,0.144,6.85,7.472,0.0,0.144,6.759,-7.478,23.46,0.0,5.865
0.09,0.048,6.754,-7.281,5.865,0.24,6.946,7.472,0.0,0.144,6.902,-7.478,23.46,0.0,5.865
0.095,0.048,6.658,-7.329,5.865,0.192,6.946,7.568,0.0,0.0,6.902,-7.621,23.46,0.0,5.865
0.1,0.048,6.61,-7.425,-0.0,0.24,6.898,7.664,0.0,0.144,6.902,-7.621,23.46,0.0,5.865
0.105,0.0,6.658,-7.425,5.865,0.24,6.85,7.664,0.0,0.144,6.759,-7.621,23.46,0.0,5.865
0.11,0.048,6.61,-7.472,5.865,0.24,6.85,7.664,0.0,0.144,6.759,-7.621,23.46,5.865,5.865
0.115,0.0,6.61,-7.425,5.865,0.24,6.898,7.664,0.0,0.144,6.902,-7.621,23.46,5.865,5.865
0.12,0.0,6.562,-7.377,5.865,0.287,6.85,7.568,0.0,0.144,6.902,-7.621,23.46,5.865,5.865
0.125,-0.048,6.562,-7.329,5.865,0.287,6.946,7.52,0.0,0.144,7.046,-7.478,23.46,5.865,5.865
0.13,0.0,6.658,-7.281,5.865,0.287,6.993,7.472,5.865,0.288,7.046,-7.478,23.46,11.73,5.865
0.135,-0.048,6.802,-7.281,5.865,0.287,7.089,7.52,5.865,0.288,7.046,-7.478,29.326,11.73,5.865
0.14,0.0,6.946,-7.329,5.865,0.24,7.137,7.52,5.865,0.288,7.046,-7.478,29.326,11.73,5.865
0.145,0.0,6.898,-7.233,5.865,0.24,7.089,7.377,0.0,0.144,7.046,-7.334,29.326,11.73,5.865
0.15,0.048,6.754,-7.089,5.865,0.287,7.041,7.281,5.865,0.288,7.046,-7.334,29.326,11.73,5.865
0.155,-0.048,6.562,-7.041,5.865,0.335,6.898,7.233,5.865,0.288,7.046,-7.19,29.326,11.73,5.865
0.16,-0.192,6.467,-6.993,5.865,0.431,6.85,7.185,5.865,0.288,7.046,-7.19,35.191,17.595,5.865
0.165,-0.192,6.323,-6.993,5.865,0.383,6.802,7.185,5.865,0.288,7.046,-7.19,35.191,17.595,11.73
0.17,-0.24,6.323,-7.041,11.73,0.431,6.802,7.281,5.865,0.288,6.902,-7.334,41.056,17.595,11.73
0.17500000000000002,-0.192,6.371,-7.137,11.73,0.431,6.754,7.377,5.865,0.288,6.759,-7.334,41.056,17.595,11.73
0.18,-0.192,6.419,-7.185,11.73,0.383,6.706,7.425,11.73,0.288,6.615,-7.478,46.921,23.46,17.595
0.185,-0.096,6.514,-7.233,17.595,0.335,6.754,7.472,11.73,0.288,6.615,-7.478,46.921,23.46,17.595
0.19,-0.048,6.658,-7.233,17.595,0.287,6.802,7.472,17.595,0.288,6.615,-7.478,46.921,23.46,23.46
0.195,-0.096,6.706,-7.233,23.46,0.335,6.85,7.425,17.595,0.0,6.615,-7.478,46.921,29.326,23.46
0.2,-0.096,6.754,-7.137,23.46,0.24,6.85,7.329,17.595,0.0,6.615,-7.334,41.056,29.326,23.46
0.20500000000000002,0.048,6.658,-6.946,23.46,0.192,6.754,7.089,17.595,0.0,6.615,-7.19,41.056,29.326,23.46
0.21,-0.048,6.562,-6.754,23.46,0.431,6.754,6.946,17.595,0.288,6.615,-7.046,41.056,35.191,23.46
0.215,-0.335,6.562,-6.562,23.46,0.575,6.802,6.802,17.595,0.575,6.759,-6.759,41.056,35.191,23.46
0.22,-0.287,6.658,-6.467,23.46,0.527,7.041,6.754,23.46,0.575,7.046,-6.759,35.191,35.191,23.46
0.225,-0.24,7.041,-6.419,23.46,0.623,7.425,6.658,23.46,0.719,7.478,-6.615,41.056,35.191,23.46
0.23,-0.192,7.472,-6.323,23.46,0.383,7.808,6.514,23.46,0.288,7.765,-6.471,41.056,35.191,23.46
0.23500000000000001,0.192,7.951,-6.227,23.46,0.144,8.239,6.467,17.595,0.288,8.053,-6.471,41.056,35.191,23.46
0.24,0.0,8.287,-6.227,17.595,0.479,8.335,6.514,11.73,0.575,8.053,-6.471,41.056,35.191,17.595
0.245,-0.144,8.43,-6.227,11.73,0.671,8.43,6.467,11.73,0.863,8.053,-6.471,35.191,35.191,11.73
0.25,0.048,8.335,-6.131,11.73,0.335,8.335,6.275,11.73,0.431,8.053,-6.183,35.191,35.191,11.73
0.255,0.192,8.095,-6.083,11.73,0.192,8.047,6.323,5.865,0.288,7.765,-6.327,29.326,29.326,11.73
0.26,0.24,7.76,-5.94,11.73,-0.048,7.76,6.275,5.865,-0.144,7.621,-6.327,29.326,29.326,5.865
0.265,0.287,7.52,-5.988,5.865,0.048,7.664,6.227,-5.865,0.0,7.621,-6.183,23.46,29.326,0.0
0.27,0.0,7.377,-5.94,-5.865,0.24,7.664,6.179,-11.73,0.288,7.765,-6.04,23.46,29.326,-5.865
0.275,-0.048,7.329,-5.892,-11.73,0.335,7.808,6.083,-17.595,0.288,8.197,-6.04,23.46,29.326,-11.73
0.28,-0.144,7.329,-5.844,-11.73,0.431,7.808,6.035,-17.595,0.288,8.197,-6.04,29.326,29.326,-11.73
0.28500000000000003,-0.096,7.281,-5.844,-11.73,0.335,7.856,6.035,-17.595,0.288,8.197,-6.04,35.191,35.191,-11.73
0.29,-0.048,7.233,-5.844,-11.73,0.335,7.76,6.035,-11.73,0.288,8.053,-6.04,35.191,29.326,-11.73
0.295,0.0,7.233,-5.892,-5.865,0.192,7.664,6.131,-11.73,0.0,7.909,-6.183,41.056,29.326,-5.865
0.3,0.048,7.185,-5.988,-5.865,0.048,7.664,6.179,-11.73,-0.144,7.909,-6.183,46.921,35.191,-5.865
0.305,0.144,7.329,-6.131,-5.865,0.0,7.664,6.419,-11.73,-0.288,7.621,-6.471,52.786,35.191,-5.865
0.31,0.192,7.568,-6.227,-5.865,-0.144,7.616,6.514,-11.73,-0.288,7.334,-6.615,52.786,41.056,-5.865
0.315,0.431,7.664,-6.227,-5.865,-0.335,7.808,6.371,-11.73,-0.719,7.621,-6.471,52.786,41.056,-5.865
0.32,0.479,8.095,-6.179,-5.865,-0.048,8.095,6.323,-5.865,-0.288,7.621,-6.327,46.921,41.056,-5.865
0.325,0.335,7.616,-5.796,-0.0,-0.24,7.76,5.844,-5.865,-0.575,7.765,-5.896,46.921,35.191,0.0
0.33,0.479,7.616,-5.509,-0.0,-0.24,7.281,5.844,0.0,-0.288,6.615,-5.752,46.921,52.786,0.0
0.335,0.91,7.616,-5.748,-0.0,-0.479,6.802,6.179,-5.865,-0.144,5.752,-6.327,41.056,52.786,-5.865
0.34,0.766,7.76,-6.179,-11.73,0.575,6.754,6.562,-23.46,1.15,5.177,-6.615,23.46,46.921,-17.595
0.34500000000000003,-0.479,7.664,-6.467,-23.46,2.06,7.904,6.658,-29.326,2.301,7.334,-6.615,0.0,35.191,-23.46
0.35000000000000003,-1.054,7.616,-6.131,-11.73,1.006,8.239,6.371,0.0,1.294,8.484,-6.471,0.0,23.46,5.865
0.355,-0.192,7.329,-6.323,35.191,0.0,5.461,6.898,41.056,0.575,4.17,-6.615,-5.865,17.595,46.921
0.36,0.335,5.94,-6.083,52.786,3.114,6.371,6.419,46.921,6.183,5.896,-6.04,-11.73,17.595,46.921
0.365,-3.353,8.143,-4.694,41.056,2.539,8.862,4.072,41.056,1.438,9.203,-4.17,-23.46,-5.865,41.056
0.37,0.623,7.137,-3.305,64.516,-3.066,9.293,3.257,70.381,-5.033,11.935,-3.451,-23.46,0.0,76.246
0.375,2.874,7.281,-3.209,87.977,-3.305,9.197,3.401,87.977,-4.458,11.216,-3.451,0.0,17.595,93.842
0.38,1.341,9.005,-3.688,82.111,-1.198,9.628,4.119,64.516,-1.582,10.21,-4.17,35.191,35.191,70.381
0.385,1.341,10.346,-4.503,35.191,-0.527,10.107,4.934,11.73,0.144,9.491,-4.889,41.056,41.056,17.595
0.39,1.102,10.73,-5.03,-11.73,0.096,10.107,5.365,-23.46,0.719,8.916,-5.321,35.191,35.191,-17.595
0.395,0.479,10.059,-5.365,-23.46,0.719,9.293,5.652,-23.46,1.438,8.34,-5.608,23.46,29.326,-17.595
0.4,0.24,9.005,-5.269,-11.73,0.527,8.43,5.365,-17.595,1.007,7.909,-5.321,11.73,17.595,-11.73
0.405,0.431,7.951,-4.838,-5.865,-0.048,7.856,4.934,-11.73,0.0,7.765,-4.889,0.0,11.73,-5.865
0.41000000000000003,0.431,7.329,-4.598,-5.865,-0.24,7.664,4.694,-5.865,-0.575,8.053,-4.602,0.0,5.865,0.0
0.41500000000000004,0.24,7.137,-4.455,-5.865,-0.24,7.808,4.646,-5.865,-0.719,8.34,-4.745,0.0,5.865,0.0
0.42,0.24,7.377,-4.503,-5.865,-0.096,8.047,4.742,-5.865,-0.431,8.484,-4.745,11.73,11.73,-5.865
0.425,0.24,7.808,-4.694,-5.865,0.048,8.143,4.934,-11.73,0.0,8.197,-4.889,17.595,17.595,-5.865
0.43,0.287,7.999,-4.838,-5.865,0.096,8.143,5.077,-5.865,0.288,7.909,-5.033,17.595,17.595,-5.865
0.435,0.383,7.951,-4.886,-5.865,-0.048,8.047,4.982,-5.865,0.0,7.909,-4.889,17.595,17.595,0.0
0.44,0.575,7.951,-4.742,-0.0,-0.192,8.143,4.934,-5.865,-0.288,8.053,-4.889,17.595,17.595,0.0
0.445,0.575,8.047,-4.742,-0.0,-0.192,8.287,4.982,0.0,-0.144,8.34,-4.889,17.595,11.73,0.0
0.45,0.479,8.095,-4.838,-0.0,-0.192,8.335,5.03,-5.865,-0.288,8.34,-5.033,17.595,11.73,0.0
0.455,0.623,8.143,-4.934,-0.0,-0.335,8.335,5.221,-5.865,-0.288,8.34,-5.177,17.595,11.73,0.0
0.46,0.671,8.191,-5.125,-5.865,-0.335,8.287,5.365,-5.865,-0.431,8.197,-5.321,17.595,11.73,0.0
0.465,0.575,8.047,-5.269,-5.865,-0.24,8.143,5.461,-11.73,-0.288,8.053,-5.464,17.595,11.73,-5.865
0.47000000000000003,0.575,7.856,-5.317,-5.865,-0.287,7.999,5.461,-11.73,-0.431,7.909,-5.464,17.595,11.73,-5.865
0.47500000000000003,0.527,7.568,-5.221,-5.865,-0.192,7.712,5.365,-11.73,-0.288,7.765,-5.321,17.595,11.73,-5.865
0.48,0.479,7.329,-5.077,-5.865,-0.096,7.52,5.221,-5.865,-0.144,7.478,-5.177,17.595,11.73,0.0
0.485,0.383,7.281,-4.934,-5.865,0.0,7.568,5.077,-5.865,0.0,7.621,-5.033,17.595,17.595,0.0
0.49,0.383,7.377,-4.886,-0.0,0.0,7.712,5.03,-5.865,0.0,7.765,-5.033,17.595,11.73,0.0
0.495,0.479,7.568,-4.79,-0.0,-0.096,7.856,4.934,-5.865,0.0,7.909,-4.889,23.46,11.73,0.0
0.5,0.575,7.808,-4.79,-0.0,-0.192,8.095,5.077,0.0,-0.144,8.053,-5.033,23.46,11.73,5.865
0.505,0.623,8.047,-5.03,-0.0,-0.24,8.191,5.317,0.0,-0.288,8.053,-5.321,23.46,11.73,0.0
0.51,0.719,8.239,-5.365,-0.0,-0.383,8.239,5.652,0.0,-0.431,7.909,-5.608,17.595,5.865,5.865
0.515,0.766,8.191,-5.604,-0.0,-0.479,8.095,5.844,0.0,-0.575,7.765,-5.896,17.595,5.865,0.0
0.52,0.814,8.095,-5.652,-0.0,-0.479,7.999,5.892,-5.865,-0.575,7.621,-5.896,11.73,5.865,0.0
0.525,0.766,7.999,-5.652,-0.0,-0.383,7.904,5.844,-5.865,-0.431,7.621,-5.896,0.0,5.865,0.0
0.53,0.671,7.856,-5.604,-5.865,-0.192,7.904,5.796,-5.865,-0.144,7.765,-5.752,0.0,5.865,0.0
0.535,0.527,7.76,-5.556,-5.865,-0.192,7.951,5.748,-5.865,-0.144,7.909,-5.752,0.0,5.865,0.0
0.54,0.575,7.76,-5.509,-0.0,-0.24,7.904,5.7,-5.865,-0.288,7.909,-5.752,0.0,5.865,0.0
0.545,0.623,7.712,-5.509,-0.0,-0.335,7.856,5.748,0.0,-0.431,7.909,-5.752,0.0,5.865,0.0
0.55,0.575,7.568,-5.556,-0.0,-0.24,7.808,5.748,0.0,-0.431,7.909,-5.752,0.0,5.865,0.0
0.555,0.527,7.472,-5.652,-0.0,-0.24,7.808,5.844,0.0,-0.431,7.909,-5.896,0.0,5.865,5.865
0.56,0.527,7.472,-5.7,5.865,-0.287,7.808,5.94,0.0,-0.431,7.909,-5.896,0.0,5.865,5.865
0.5650000000000001,0.527,7.52,-5.748,5.865,-0.287,7.856,5.892,0.0,-0.431,7.909,-5.896,0.0,5.865,5.865
0.5700000000000001,0.575,7.616,-5.7,5.865,-0.335,7.904,5.892,0.0,-0.431,7.909,-5.896,0.0,5.865,5.865
0.5750000000000001,0.575,7.712,-5.652,5.865,-0.287,7.999,5.844,5.865,-0.431,8.053,-5.896,0.0,11.73,5.865
0.58,0.623,7.856,-5.652,5.865,-0.335,8.143,5.844,5.865,-0.431,8.197,-5.896,0.0,11.73,5.865
0.585,0.671,8.047,-5.604,5.865,-0.383,8.287,5.796,5.865,-0.431,8.34,-5.752,11.73,11.73,5.865
0.59,0.766,8.239,-5.604,5.865,-0.431,8.478,5.748,5.865,-0.575,8.34,-5.752,11.73,11.73,11.73
0.595,0.814,8.383,-5.509,5.865,-0.479,8.526,5.652,5.865,-0.575,8.484,-5.608,11.73,11.73,5.865
0.6,0.814,8.43,-5.413,5.865,-0.479,8.526,5.556,5.865,-0.575,8.34,-5.608,0.0,11.73,5.865
0.605,0.862,8.383,-5.317,5.865,-0.479,8.43,5.461,0.0,-0.575,8.34,-5.464,0.0,11.73,5.865
0.61,0.862,8.287,-5.269,5.865,-0.431,8.287,5.461,0.0,-0.431,8.053,-5.464,0.0,11.73,5.865
0.615,0.766,8.191,-5.317,-0.0,-0.383,8.191,5.509,0.0,-0.431,7.909,-5.464,0.0,11.73,0.0
0.62,0.766,8.191,-5.269,-0.0,-0.383,8.239,5.461,0.0,-0.431,7.909,-5.464,0.0,11.73,0.0
0.625,0.814,8.239,-5.221,-0.0,-0.431,8.239,5.413,0.0,-0.431,7.909,-5.464,0.0,11.73,0.0
0.63,0.814,8.287,-5.173,-0.0,-0.479,8.287,5.317,0.0,-0.431,8.053,-5.321,-5.865,11.73,5.865
0.635,0.814,8.287,-5.125,-0.0,-0.479,8.287,5.317,-5.865,-0.431,8.053,-5.321,-5.865,5.865,0.0
0.64,0.862,8.287,-5.077,-0.0,-0.479,8.287,5.269,0.0,-0.431,8.053,-5.321,-11.73,5.865,0.0
0.645,0.862,8.335,-5.077,-0.0,-0.479,8.335,5.269,0.0,-0.431,8.053,-5.321,-11.73,5.865,5.865
0.65,0.862,8.383,-5.077,-0.0,-0.479,8.43,5.221,0.0,-0.431,8.197,-5.321,-17.595,5.865,0.0
0.655,0.862,8.383,-5.077,-0.0,-0.479,8.526,5.269,0.0,-0.575,8.34,-5.177,-17.595,5.865,0.0
0.66,0.766,8.335,-5.077,-0.0,-0.479,8.526,5.269,0.0,-0.575,8.628,-5.321,-23.46,5.865,0.0
0.665,0.766,8.287,-5.125,-0.0,-0.479,8.526,5.365,-5.865,-0.575,8.628,-5.321,-23.46,5.865,5.865
0.67,0.719,8.239,-5.269,-0.0,-0.431,8.574,5.461,0.0,-0.575,8.772,-5.464,-17.595,5.865,0.0
0.675,0.623,8.239,-5.317,5.865,-0.431,8.67,5.509,0.0,-0.575,8.916,-5.464,-17.595,11.73,5.865
0.68,0.671,8.239,-5.269,5.865,-0.431,8.67,5.413,0.0,-0.575,8.916,-5.321,-11.73,11.73,5.865
0.685,0.671,8.143,-5.173,5.865,-0.431,8.67,5.269,5.865,-0.719,9.059,-5.321,-5.865,11.73,5.865
0.6900000000000001,0.671,8.095,-5.077,5.865,-0.431,8.622,5.269,5.865,-0.575,9.059,-5.321,-5.865,17.595,11.73
0.6950000000000001,0.671,8.143,-5.125,5.865,-0.431,8.67,5.269,5.865,-0.575,9.059,-5.321,0.0,17.595,11.73
0.7000000000000001,0.719,8.287,-5.077,11.73,-0.431,8.814,5.221,5.865,-0.575,9.059,-5.177,0.0,17.595,11.73
0.705,0.766,8.478,-4.982,11.73,-0.479,8.957,5.077,5.865,-0.575,9.203,-5.033,11.73,17.595,11.73
0.71,0.814,8.67,-4.694,11.73,-0.527,9.149,4.694,5.865,-0.719,9.491,-4.745,17.595,17.595,11.73
0.715,0.862,8.814,-4.263,11.73,-0.527,9.388,4.311,5.865,-0.575,9.778,-4.314,23.46,23.46,11.73
0.72,0.91,9.101,-3.928,5.865,-0.383,9.676,3.976,5.865,-0.288,10.066,-4.026,23.46,23.46,11.73
0.725,0.862,9.58,-3.64,5.865,-0.287,10.155,3.688,0.0,-0.144,10.497,-3.595,35.191,17.595,5.865
0.73,1.006,10.059,-3.305,5.865,-0.383,10.442,3.401,0.0,0.0,10.641,-3.307,35.191,17.595,0.0
0.735,1.15,10.299,-3.066,-0.0,-0.431,10.538,3.161,-5.865,-0.144,10.641,-3.02,41.056,11.73,0.0
0.74,1.245,10.442,-2.922,-5.865,-0.575,10.586,3.018,-5.865,-0.288,10.497,-3.02,41.056,5.865,-5.865
0.745,1.293,10.49,-2.826,-5.865,-0.575,10.49,2.97,-11.73,-0.288,10.354,-2.876,41.056,0.0,-11.73
0.75,1.245,10.394,-2.778,-11.73,-0.527,10.299,2.922,-17.595,-0.144,10.066,-2.876,35.191,-5.865,-11.73
0.755,1.198,10.251,-2.73,-17.595,-0.479,10.155,2.874,-23.46,-0.144,9.922,-2.876,35.191,-11.73,-17.595
0.76,1.198,10.107,-2.635,-23.46,-0.479,9.963,2.826,-29.326,-0.144,9.635,-2.732,35.191,-17.595,-23.46
0.765,1.102,9.82,-2.682,-23.46,-0.335,9.676,2.826,-29.326,0.0,9.491,-2.732,29.326,-23.46,-23.46
0.77,0.91,9.388,-2.682,-29.326,-0.24,9.341,2.922,-29.326,0.0,9.203,-2.876,23.46,-29.326,-23.46
0.775,0.958,9.053,-2.826,-23.46,-0.335,9.149,3.018,-29.326,0.0,9.059,-3.02,23.46,-35.191,-23.46
0.78,1.054,8.957,-2.922,-23.46,-0.527,9.101,3.161,-29.326,-0.288,9.059,-3.164,23.46,-41.056,-23.46
0.785,1.006,8.814,-3.161,-23.46,-0.527,8.957,3.401,-35.191,-0.431,8.916,-3.451,23.46,-41.056,-23.46
0.79,0.958,8.574,-3.497,-23.46,-0.431,8.718,3.784,-35.191,-0.288,8.628,-3.739,23.46,-46.921,-23.46
0.795,0.958,8.335,-3.928,-23.46,-0.479,8.43,4.263,-29.326,-0.288,8.34,-4.314,23.46,-46.921,-23.46
0.8,1.006,8.143,-4.407,-23.46,-0.575,8.239,4.79,-29.326,-0.431,8.197,-4.745,23.46,-46.921,-23.46
0.805,1.054,7.951,-4.982,-23.46,-0.671,8.047,5.413,-29.326,-0.575,7.909,-5.464,23.46,-52.786,-23.46
0.81,1.054,7.808,-5.7,-23.46,-0.719,7.904,6.179,-23.46,-0.719,7.765,-6.183,23.46,-52.786,-17.595
0.8150000000000001,1.102,7.712,-6.467,-17.595,-0.766,7.76,6.946,-23.46,-0.719,7.621,-6.902,23.46,-52.786,-17.595
0.8200000000000001,1.054,7.52,-7.281,-17.595,-0.91,7.664,7.76,-23.46,-1.15,7.478,-7.765,23.46,-52.786,-17.595
0.8250000000000001,1.054,7.377,-8.047,-17.595,-1.006,7.52,8.526,-23.46,-1.438,7.478,-8.628,23.46,-52.786,-11.73
0.8300000000000001,1.006,7.089,-8.814,-11.73,-1.102,7.281,9.245,-17.595,-1.726,7.334,-9.347,23.46,-52.786,-11.73
0.835,0.958,6.754,-9.436,-11.73,-1.198,6.993,9.82,-17.595,-1.869,7.046,-9.922,23.46,-41.056,-11.73
0.84,0.862,6.323,-9.867,-11.73,-1.198,6.562,10.203,-17.595,-2.013,6.615,-10.21,23.46,-35.191,-11.73
0.845,0.719,5.748,-10.251,-11.73,-1.15,6.083,10.538,-11.73,-2.157,6.183,-10.641,23.46,-29.326,-5.865
0.85,0.671,5.413,-10.442,-5.865,-1.15,5.796,10.682,-5.865,-2.157,5.896,-10.785,29.326,-17.595,0.0
0.855,0.575,5.221,-10.442,-0.0,-1.102,5.556,10.682,0.0,-2.013,5.608,-10.785,29.326,-5.865,0.0
0.86,0.527,5.077,-10.394,5.865,-0.958,5.461,10.538,5.865,-1.869,5.464,-10.641,35.191,11.73,5.865
0.865,0.527,5.125,-10.203,11.73,-0.862,5.509,10.346,11.73,-1.726,5.464,-10.497,35.191,23.46,11.73
0.87,0.431,5.365,-9.867,17.595,-0.719,5.748,9.963,17.595,-1.438,5.608,-10.066,41.056,35.191,23.46
0.875,0.479,5.748,-9.436,23.46,-0.719,6.131,9.532,23.46,-1.438,6.04,-9.635,41.056,41.056,29.326
0.88,0.575,6.227,-8.957,29.326,-0.766,6.562,9.005,23.46,-1.294,6.471,-9.059,41.056,52.786,29.326
0.885,0.623,6.754,-8.43,35.191,-0.719,6.993,8.478,29.326,-1.15,6.759,-8.628,41.056,58.651,35.191
0.89,0.719,7.185,-7.904,35.191,-0.623,7.281,7.951,29.326,-1.007,7.046,-7.909,41.056,64.516,35.191
0.895,0.719,7.568,-7.329,29.326,-0.527,7.568,7.377,23.46,-0.719,7.19,-7.334,35.191,70.381,29.326
0.9,0.719,7.808,-6.706,29.326,-0.431,7.76,6.802,23.46,-0.431,7.334,-6.759,35.191,70.381,29.326
0.905,0.719,7.951,-6.179,23.46,-0.287,7.856,6.227,17.595,-0.288,7.478,-6.327,29.326,70.381,23.46
0.91,0.575,7.856,-5.652,23.46,-0.192,7.808,5.7,17.595,-0.144,7.478,-5.752,23.46,70.381,23.46
0.915,0.527,7.856,-5.173,17.595,-0.096,7.856,5.221,17.595,0.0,7.621,-5.177,17.595,70.381,17.595
0.92,0.527,7.951,-4.694,17.595,-0.048,7.999,4.79,17.595,0.0,7.765,-4.745,17.595,70.381,17.595
0.925,0.575,8.095,-4.311,17.595,-0.096,8.191,4.359,11.73,0.0,7.909,-4.314,11.73,64.516,17.595
0.93,0.575,8.239,-3.928,17.595,-0.144,8.287,3.976,11.73,0.0,8.197,-4.026,11.73,64.516,17.595
0.935,0.623,8.239,-3.545,17.595,-0.048,8.335,3.64,11.73,0.144,8.197,-3.595,0.0,64.516,17.595
0.9400000000000001,0.575,8.191,-3.257,17.595,0.0,8.335,3.353,11.73,0.288,8.34,-3.307,0.0,58.651,17.595
0.9450000000000001,0.479,8.047,-2.97,17.595,0.048,8.287,3.066,11.73,0.288,8.34,-3.02,0.0,58.651,17.595
0.9500000000000001,0.527,7.951,-2.73,17.595,0.048,8.287,2.826,17.595,0.288,8.484,-2.732,0.0,52.786,17.595
0.9550000000000001,0.527,7.951,-2.491,17.595,0.0,8.287,2.635,17.595,0.144,8.484,-2.588,11.73,52.786,23.46
0.96,0.575,7.999,-2.395,17.595,-0.096,8.383,2.539,17.595,0.0,8.628,-2.588,11.73,46.921,23.46
0.965,0.623,8.191,-2.347,23.46,-0.192,8.526,2.539,17.595,0.0,8.628,-2.445,17.595,46.921,23.46
0.97,0.766,8.383,-2.347,23.46,-0.24,8.67,2.491,17.595,-0.144,8.628,-2.445,17.595,41.056,23.46
0.975,0.862,8.718,-2.251,23.46,-0.335,8.862,2.443,17.595,-0.144,8.772,-2.445,23.46,41.056,23.46
0.98,1.006,9.293,-2.06,23.46,-0.431,9.484,2.156,17.595,-0.144,9.203,-2.157,23.46,35.191,23.46
0.985,1.198,10.203,-1.772,23.46,-0.479,10.49,1.724,17.595,-0.144,10.066,-1.726,17.595,29.326,23.46
0.99,1.868,12.789,-0.91,23.46,-1.006,12.837,0.862,17.595,0.0,11.935,-0.719,11.73,23.46,23.46
0.995,2.73,13.268,-0.575,17.595,-1.341,12.454,0.766,11.73,-0.575,12.367,-0.719,0.0,11.73,17.595
1.0,1.485,11.017,-0.671,5.865,-0.814,10.873,0.814,-5.865,-0.863,11.073,-0.863,-5.865,0.0,0.0
1.0050000000000001,1.245,9.963,-0.862,-11.73,-0.671,9.867,1.198,-17.595,-0.575,9.778,-1.15,-5.865,-5.865,-17.595
1.01,1.102,9.197,-1.724,-17.595,-0.431,9.101,2.251,-23.46,-0.288,8.916,-2.301,-5.865,-11.73,-17.595
1.0150000000000001,0.766,8.574,-2.778,-17.595,-0.335,8.622,3.114,-23.46,-0.431,8.484,-3.164,-5.865,-11.73,-17.595
1.02,0.719,8.239,-3.161,-11.73,-0.527,8.478,3.353,-17.595,-0.863,8.484,-3.451,-5.865,-11.73,-11.73
1.025,0.91,8.287,-3.305,-5.865,-0.814,8.574,3.497,-5.865,-1.15,8.628,-3.595,-5.865,-11.73,0.0
1.03,1.054,8.622,-3.449,-0.0,-0.91,8.862,3.688,0.0,-1.15,8.916,-3.739,-5.865,-5.865,5.865
1.035,1.102,8.909,-3.64,5.865,-0.814,9.101,3.88,0.0,-1.007,9.059,-3.883,-5.865,-5.865,5.865
1.04,1.054,9.101,-3.784,5.865,-0.719,9.341,3.976,0.0,-0.863,9.203,-4.026,-5.865,-5.865,5.865
1.045,1.15,9.341,-3.784,5.865,-0.766,9.484,3.928,5.865,-0.719,9.347,-3.883,-5.865,-5.865,11.73
1.05,1.245,9.436,-3.784,5.865,-0.814,9.484,3.976,5.865,-0.719,9.347,-4.026,-5.865,-5.865,11.73
1.055,1.15,9.436,-3.928,5.865,-0.719,9.484,4.167,5.865,-0.719,9.347,-4.17,-5.865,-5.865,5.865
1.06,1.054,9.436,-4.119,5.865,-0.623,9.532,4.359,0.0,-0.719,9.347,-4.314,-11.73,-5.865,5.865
1.065,1.054,9.484,-4.263,5.865,-0.671,9.532,4.455,0.0,-0.719,9.347,-4.458,-11.73,-5.865,5.865
1.07,1.006,9.341,-4.359,5.865,-0.671,9.388,4.551,0.0,-0.863,9.203,-4.602,-11.73,-5.865,5.865
1.075,0.91,9.197,-4.455,5.865,-0.671,9.293,4.646,0.0,-0.863,9.203,-4.745,-11.73,-5.865,5.865
1.08,0.862,9.101,-4.551,5.865,-0.671,9.197,4.742,0.0,-0.863,9.059,-4.745,-17.595,-5.865,0.0
1.085,0.862,9.101,-4.598,-0.0,-0.623,9.149,4.742,-5.865,-0.863,9.059,-4.745,-17.595,-5.865,0.0
1.09,0.862,9.005,-4.503,-0.0,-0.575,9.101,4.598,-5.865,-0.719,9.059,-4.602,-17.595,0.0,0.0
1.095,0.814,8.814,-4.215,-5.865,-0.479,8.957,4.263,-5.865,-0.719,8.916,-4.314,-17.595,0.0,0.0
1.1,0.766,8.622,-3.976,-5.865,-0.431,8.862,4.119,-5.865,-0.575,8.916,-4.17,-17.595,0.0,0.0
1.105,0.719,8.622,-3.976,-5.865,-0.287,8.862,4.119,-5.865,-0.288,8.916,-4.17,-17.595,0.0,0.0
1.11,0.527,8.574,-3.976,-5.865,-0.192,8.862,4.167,-5.865,-0.288,8.916,-4.17,-17.595,0.0,0.0
1.115,0.623,8.574,-4.072,-0.0,-0.335,8.862,4.215,-5.865,-0.431,8.916,-4.17,-11.73,0.0,0.0
1.12,0.719,8.574,-4.072,-0.0,-0.383,8.909,4.263,0.0,-0.431,9.059,-4.314,-11.73,0.0,0.0
1.125,0.671,8.67,-4.072,5.865,-0.431,9.005,4.167,0.0,-0.575,9.203,-4.17,-11.73,0.0,5.865
1.1300000000000001,0.814,8.67,-4.072,5.865,-0.527,9.005,4.215,0.0,-0.575,9.203,-4.17,-5.865,5.865,5.865
1.135,0.814,8.718,-4.119,-0.0,-0.479,9.053,4.311,0.0,-0.575,9.059,-4.314,-5.865,5.865,0.0
1.1400000000000001,0.766,8.67,-4.167,-0.0,-0.479,8.957,4.311,0.0,-0.575,9.059,-4.314,0.0,5.865,5.865
1.145,0.862,8.67,-4.167,-0.0,-0.575,8.862,4.311,0.0,-0.719,8.916,-4.314,0.0,5.865,5.865
1.1500000000000001,0.862,8.574,-4.167,-0.0,-0.575,8.766,4.359,0.0,-0.719,8.772,-4.314,0.0,5.865,5.865
1.155,0.862,8.526,-4.215,5.865,-0.575,8.718,4.407,0.0,-0.719,8.628,-4.458,0.0,5.865,5.865
1.16,0.862,8.622,-4.263,5.865,-0.575,8.718,4.407,0.0,-0.575,8.628,-4.458,0.0,11.73,5.865
1.165,0.91,8.67,-4.167,5.865,-0.623,8.766,4.311,0.0,-0.719,8.628,-4.314,0.0,11.73,5.865
1.17,0.958,8.67,-4.119,5.865,-0.623,8.766,4.263,0.0,-0.719,8.628,-4.314,0.0,11.73,5.865
1.175,0.958,8.718,-4.072,-0.0,-0.575,8.766,4.263,0.0,-0.575,8.628,-4.314,0.0,11.73,5.865
1.18,0.958,8.766,-4.119,5.865,-0.479,8.814,4.311,0.0,-0.431,8.628,-4.314,0.0,11.73,5.865
1.185,0.862,8.766,-4.167,-0.0,-0.383,8.862,4.311,0.0,-0.288,8.772,-4.314,-5.865,11.73,0.0
1.19,0.814,8.766,-4.072,-0.0,-0.383,8.862,4.215,0.0,-0.431,8.772,-4.17,-5.865,5.865,5.865
1.195,0.862,8.718,-4.024,5.865,-0.431,8.862,4.215,0.0,-0.431,8.772,-4.17,-5.865,5.865,5.865
1.2,0.91,8.718,-4.119,5.865,-0.479,8.909,4.263,0.0,-0.431,8.772,-4.314,-11.73,5.865,5.865
1.205,0.862,8.766,-4.167,5.865,-0.479,8.957,4.359,5.865,-0.431,8.916,-4.314,-11.73,5.865,11.73
1.21,0.91,8.766,-4.215,11.73,-0.527,8.957,4.359,5.865,-0.575,8.916,-4.314,-11.73,0.0,11.73
1.215,0.958,8.718,-4.263,11.73,-0.575,8.909,4.455,5.865,-0.575,8.916,-4.458,-11.73,0.0,11.73
1.22,0.91,8.574,-4.359,11.73,-0.575,8.814,4.551,5.865,-0.575,8.916,-4.602,-5.865,0.0,11.73
1.225,0.862,8.526,-4.407,11.73,-0.575,8.814,4.598,5.865,-0.575,8.916,-4.602,-5.865,0.0,11.73
1.23,0.91,8.574,-4.503,11.73,-0.575,8.909,4.646,5.865,-0.719,9.059,-4.602,-5.865,0.0,11.73
1.235,0.958,8.718,-4.455,11.73,-0.623,8.957,4.598,5.865,-0.719,9.059,-4.602,0.0,0.0,11.73
1.24,0.958,8.766,-4.359,11.73,-0.623,9.005,4.551,11.73,-0.719,9.059,-4.602,0.0,0.0,11.73
1.245,0.958,8.766,-4.359,11.73,-0.575,9.005,4.503,11.73,-0.575,9.059,-4.458,0.0,0.0,17.595
1.25,0.91,8.862,-4.311,11.73,-0.575,9.101,4.407,11.73,-0.575,9.059,-4.458,0.0,0.0,11.73
1.2550000000000001,0.958,8.957,-4.215,11.73,-0.623,9.101,4.407,5.865,-0.575,9.059,-4.458,0.0,0.0,11.73
1.26,0.958,8.909,-4.263,11.73,-0.575,9.053,4.407,5.865,-0.575,9.059,-4.314,0.0,0.0,11.73
1.2650000000000001,0.958,8.862,-4.263,11.73,-0.575,8.957,4.455,5.865,-0.575,8.916,-4.458,0.0,0.0,11.73
1.27,0.91,8.814,-4.263,11.73,-0.527,8.909,4.407,5.865,-0.575,8.916,-4.458,0.0,0.0,11.73
1.2750000000000001,0.862,8.718,-4.263,11.73,-0.527,8.862,4.455,5.865,-0.575,8.772,-4.458,0.0,0.0,11.73
1.28,0.814,8.718,-4.263,5.865,-0.479,8.862,4.407,5.865,-0.575,8.772,-4.458,0.0,0.0,11.73
1.285,0.862,8.718,-4.263,5.865,-0.479,8.814,4.455,5.865,-0.575,8.628,-4.458,0.0,0.0,5.865
1.29,0.814,8.67,-4.311,5.865,-0.479,8.814,4.455,5.865,-0.575,8.772,-4.458,0.0,0.0,5.865
1.295,0.814,8.718,-4.359,5.865,-0.479,8.909,4.503,0.0,-0.575,8.772,-4.602,0.0,5.865,5.865
1.3,0.766,8.766,-4.311,5.865,-0.431,8.957,4.503,0.0,-0.575,8.916,-4.458,0.0,5.865,5.865
1.305,0.814,8.766,-4.311,5.865,-0.479,8.957,4.455,0.0,-0.575,8.916,-4.458,0.0,5.865,5.865
1.31,0.862,8.766,-4.359,5.865,-0.527,8.957,4.503,0.0,-0.575,8.916,-4.458,0.0,5.865,5.865
1.315,0.814,8.766,-4.407,5.865,-0.479,8.909,4.551,0.0,-0.575,8.916,-4.602,0.0,5.865,5.865
1.32,0.814,8.718,-4.359,5.865,-0.431,8.909,4.551,0.0,-0.575,8.916,-4.602,0.0,5.865,5.865
1.325,0.814,8.766,-4.407,5.865,-0.479,8.957,4.551,0.0,-0.575,8.916,-4.602,0.0,5.865,5.865
1.33,0.91,8.766,-4.407,5.865,-0.575,8.909,4.551,5.865,-0.575,8.916,-4.602,0.0,5.865,11.73
1.335,0.91,8.718,-4.407,5.865,-0.575,8.862,4.503,0.0,-0.719,8.772,-4.602,0.0,5.865,11.73
1.34,0.91,8.67,-4.359,5.865,-0.575,8.814,4.551,5.865,-0.719,8.628,-4.602,0.0,5.865,11.73
1.345,0.862,8.622,-4.407,5.865,-0.527,8.718,4.598,5.865,-0.575,8.628,-4.602,0.0,5.865,5.865
1.35,0.862,8.526,-4.407,5.865,-0.479,8.67,4.551,5.865,-0.431,8.628,-4.602,0.0,5.865,11.73
1.355,0.814,8.526,-4.359,5.865,-0.431,8.67,4.503,5.865,-0.431,8.628,-4.458,0.0,5.865,11.73
1.36,0.766,8.526,-4.311,5.865,-0.335,8.766,4.455,5.865,-0.288,8.772,-4.458,0.0,5.865,5.865
1.365,0.766,8.622,-4.263,5.865,-0.335,8.862,4.407,5.865,-0.288,8.916,-4.458,0.0,0.0,5.865
1.37,0.766,8.67,-4.215,5.865,-0.335,8.909,4.407,5.865,-0.288,8.916,-4.314,0.0,0.0,11.73
1.375,0.766,8.718,-4.263,5.865,-0.335,8.909,4.455,5.865,-0.288,8.916,-4.458,0.0,0.0,11.73
1.3800000000000001,0.719,8.766,-4.311,5.865,-0.287,8.909,4.455,5.865,-0.288,8.916,-4.458,0.0,0.0,5.865
1.385,0.719,8.814,-4.263,5.865,-0.335,8.909,4.407,0.0,-0.288,8.916,-4.458,0.0,0.0,5.865
1.3900000000000001,0.766,8.718,-4.263,5.865,-0.335,8.862,4.407,0.0,-0.288,8.772,-4.458,0.0,-5.865,5.865
1.395,0.719,8.622,-4.215,5.865,-0.335,8.718,4.359,0.0,-0.288,8.628,-4.314,0.0,-5.865,5.865
1.4000000000000001,0.719,8.478,-4.215,5.865,-0.335,8.574,4.407,0.0,-0.288,8.484,-4.314,0.0,-5.865,5.865
1.405,0.766,8.43,-4.215,5.865,-0.383,8.574,4.407,0.0,-0.288,8.484,-4.314,-5.865,-5.865,5.865
1.41,0.766,8.526,-4.167,5.865,-0.383,8.622,4.359,0.0,-0.288,8.484,-4.314,-5.865,-5.865,5.865
1.415,0.862,8.526,-4.119,5.865,-0.431,8.622,4.263,0.0,-0.288,8.484,-4.314,-5.865,-5.865,5.865
1.42,0.862,8.335,-3.976,5.865,-0.431,8.478,3.688,0.0,-0.575,8.916,-3.739,-5.865,-11.73,5.865
1.425,0.527,7.616,-2.826,5.865,-0.431,8.478,3.018,0.0,-0.431,9.059,-3.02,0.0,-11.73,5.865
1.43,0.958,8.047,-3.018,-0.0,-0.383,8.43,3.209,-5.865,-0.288,8.772,-3.307,0.0,-11.73,0.0
1.435,0.287,7.951,-3.449,-5.865,0.192,8.383,3.736,-11.73,0.0,8.916,-3.739,0.0,-11.73,-5.865
1.44,0.91,7.904,-3.593,-5.865,-0.575,8.335,3.736,-11.73,-0.431,8.484,-3.739,17.595,-11.73,-11.73
1.445,0.958,8.143,-3.593,-11.73,-0.527,8.43,3.784,-11.73,-0.575,8.34,-3.739,17.595,-11.73,-11.73
1.45,0.91,8.095,-3.784,-5.865,-0.527,8.287,3.976,-5.865,-0.575,8.34,-4.026,23.46,-11.73,0.0
1.455,0.862,7.999,-3.784,-0.0,-0.527,8.287,3.928,-5.865,-0.575,8.34,-3.883,23.46,-11.73,0.0
1.46,0.91,8.047,-3.688,-0.0,-0.575,8.335,3.832,0.0,-0.575,8.34,-3.883,23.46,-17.595,0.0
1.465,0.958,8.047,-3.593,-0.0,-0.575,8.287,3.784,0.0,-0.575,8.34,-3.739,23.46,-17.595,5.865
1.47,0.91,8.047,-3.593,5.865,-0.527,8.287,3.784,0.0,-0.575,8.34,-3.739,23.46,-17.595,5.865
1.475,0.766,7.999,-3.64,5.865,-0.431,8.287,3.784,5.865,-0.575,8.484,-3.739,29.326,-11.73,5.865
1.48,0.862,8.191,-3.64,11.73,-0.527,8.43,3.832,5.865,-0.575,8.34,-3.883,29.326,-17.595,11.73
1.485,0.958,8.239,-3.736,11.73,-0.623,8.43,3.976,5.865,-0.719,8.34,-4.026,35.191,-17.595,11.73
1.49,0.91,8.287,-3.832,11.73,-0.575,8.43,4.119,5.865,-0.719,8.34,-4.17,35.191,-17.595,11.73
1.495,0.862,8.383,-4.024,11.73,-0.575,8.526,4.215,11.73,-0.719,8.34,-4.314,35.191,-11.73,11.73
1.5,0.91,8.526,-4.167,11.73,-0.623,8.574,4.407,11.73,-0.719,8.34,-4.458,29.326,-11.73,17.595
1.5050000000000001,0.958,8.718,-4.359,11.73,-0.623,8.718,4.598,11.73,-0.719,8.34,-4.602,29.326,-11.73,11.73
1.51,0.958,8.909,-4.598,11.73,-0.575,8.814,4.79,11.73,-0.575,8.484,-4.889,23.46,-11.73,11.73
1.5150000000000001,0.958,9.053,-4.742,11.73,-0.623,8.957,4.982,11.73,-0.575,8.484,-5.033,23.46,-11.73,17.595
1.52,1.054,9.197,-4.886,11.73,-0.623,9.101,5.077,5.865,-0.719,8.628,-5.033,17.595,-11.73,11.73
1.5250000000000001,1.054,9.245,-4.934,11.73,-0.623,9.149,5.077,5.865,-0.575,8.772,-5.033,11.73,-17.595,11.73
1.53,1.006,9.197,-4.838,11.73,-0.623,9.149,4.982,5.865,-0.575,8.916,-4.889,0.0,-17.595,11.73
1.5350000000000001,0.958,9.053,-4.79,11.73,-0.527,9.101,4.982,5.865,-0.575,8.916,-5.033,0.0,-17.595,11.73
1.54,0.862,9.053,-4.838,11.73,-0.479,9.149,5.03,5.865,-0.431,8.916,-5.033,0.0,-17.595,11.73
1.545,0.862,9.101,-4.886,5.865,-0.527,9.149,5.077,5.865,-0.575,8.916,-5.033,0.0,-17.595,11.73
1.55,0.862,9.149,-4.886,5.865,-0.527,9.197,5.125,5.865,-0.575,8.916,-5.033,-5.865,-17.595,11.73
1.555,0.91,9.293,-5.03,5.865,-0.527,9.293,5.221,5.865,-0.575,8.916,-5.177,-5.865,-17.595,5.865
1.56,0.91,9.341,-5.077,5.865,-0.575,9.293,5.269,0.0,-0.575,9.059,-5.321,-11.73,-17.595,5.865
1.565,0.814,9.293,-5.125,5.865,-0.479,9.293,5.317,0.0,-0.575,9.059,-5.321,-11.73,-17.595,5.865
1.57,0.719,9.197,-5.125,-0.0,-0.431,9.245,5.317,0.0,-0.575,9.059,-5.321,-17.595,-17.595,5.865
1.575,0.671,9.053,-5.125,-0.0,-0.431,9.197,5.221,0.0,-0.575,9.059,-5.321,-17.595,-17.595,0.0
1.58,0.623,8.957,-5.077,-0.0,-0.431,9.245,5.173,-5.865,-0.719,9.347,-5.177,-17.595,-17.595,0.0
1.585,0.527,8.862,-4.934,-0.0,-0.335,9.245,5.077,-5.865,-0.575,9.491,-5.033,-17.595,-11.73,0.0
1.59,0.479,8.814,-4.886,-0.0,-0.192,9.293,4.934,0.0,-0.575,9.635,-4.889,-17.595,-11.73,0.0
1.595,0.383,8.862,-4.598,-0.0,-0.144,9.341,4.694,0.0,-0.431,9.635,-4.745,-11.73,-5.865,0.0
1.6,0.431,8.957,-4.407,-0.0,-0.192,9.436,4.503,-5.865,-0.288,9.635,-4.458,-5.865,-5.865,0.0
1.605,0.479,9.101,-4.311,-0.0,-0.192,9.532,4.407,0.0,-0.288,9.635,-4.314,-5.865,0.0,0.0
1.61,0.479,9.245,-4.119,-0.0,-0.144,9.532,4.215,-5.865,-0.288,9.635,-4.17,0.0,0.0,0.0
1.615,0.479,9.197,-4.024,-0.0,-0.144,9.388,4.119,-5.865,-0.288,9.491,-4.17,0.0,0.0,0.0
1.62,0.479,9.197,-3.832,-0.0,-0.096,9.388,3.928,-5.865,-0.144,9.347,-3.883,0.0,0.0,0.0
1.625,0.383,9.245,-3.64,-0.0,0.0,9.436,3.736,-5.865,0.0,9.347,-3.739,0.0,0.0,0.0
1.6300000000000001,0.383,9.245,-3.497,-0.0,-0.048,9.436,3.64,-5.865,0.0,9.347,-3.595,0.0,0.0,0.0
1.635,0.431,9.341,-3.449,-0.0,-0.048,9.484,3.64,-5.865,0.0,9.347,-3.595,0.0,0.0,0.0
1.6400000000000001,0.431,9.388,-3.497,-0.0,0.0,9.436,3.688,-5.865,0.0,9.347,-3.739,0.0,0.0,0.0
1.645,0.431,9.341,-3.593,-0.0,0.0,9.436,3.784,-5.865,0.0,9.203,-3.739,0.0,0.0,0.0
1.6500000000000001,0.383,9.293,-3.64,-0.0,0.048,9.388,3.832,-5.865,0.0,9.347,-3.883,0.0,0.0,0.0
1.655,0.335,9.101,-3.736,-0.0,0.048,9.293,3.88,-5.865,0.0,9.203,-3.883,0.0,0.0,0.0
1.6600000000000001,0.287,8.957,-3.736,-0.0,0.144,9.149,3.928,-5.865,0.144,9.203,-4.026,0.0,0.0,0.0
1.665,0.24,8.862,-3.832,-0.0,0.192,9.005,4.024,-5.865,0.288,9.059,-4.026,0.0,0.0,0.0
1.67,0.192,8.622,-3.928,-0.0,0.192,8.814,4.072,-5.865,0.288,8.916,-4.026,0.0,0.0,0.0
1.675,0.192,8.478,-3.928,-0.0,0.144,8.67,4.167,0.0,0.144,8.628,-4.17,0.0,-5.865,0.0
1.68,0.192,8.383,-4.072,-0.0,0.144,8.574,4.263,0.0,0.0,8.628,-4.314,0.0,0.0,5.865
1.685,0.24,8.383,-4.167,5.865,0.096,8.574,4.407,0.0,0.0,8.484,-4.458,0.0,0.0,5.865
1.69,0.287,8.43,-4.311,5.865,0.096,8.622,4.503,0.0,0.0,8.484,-4.458,0.0,0.0,5.865
1.695,0.287,8.478,-4.311,5.865,0.048,8.622,4.455,0.0,0.0,8.484,-4.458,0.0,0.0,5.865
1.7,0.335,8.526,-4.263,5.865,0.0,8.67,4.407,0.0,0.0,8.484,-4.458,0.0,0.0,5.865
1.705,0.335,8.574,-4.215,5.865,0.048,8.718,4.359,0.0,0.0,8.628,-4.314,0.0,0.0,5.865
1.71,0.287,8.622,-4.119,5.865,0.048,8.766,4.263,0.0,0.0,8.772,-4.314,0.0,0.0,5.865
1.715,0.335,8.622,-4.072,-0.0,0.048,8.814,4.263,0.0,0.0,8.772,-4.314,-5.865,0.0,5.865
1.72,0.335,8.67,-4.072,-0.0,0.048,8.862,4.215,0.0,0.0,8.772,-4.17,0.0,0.0,5.865
1.725,0.335,8.718,-3.976,-0.0,0.096,8.862,4.167,0.0,0.144,8.772,-4.17,-5.865,0.0,5.865
1.73,0.287,8.718,-4.024,5.865,0.096,8.862,4.215,0.0,0.144,8.772,-4.17,-5.865,0.0,5.865
1.735,0.335,8.718,-4.024,5.865,0.096,8.862,4.215,0.0,0.0,8.772,-4.17,-5.865,-5.865,5.865
1.74,0.335,8.718,-4.072,5.865,0.0,8.909,4.263,0.0,0.0,8.916,-4.314,-5.865,-5.865,5.865
1.745,0.335,8.718,-4.119,5.865,0.0,8.957,4.311,0.0,-0.144,8.916,-4.314,-5.865,-5.865,5.865
1.75,0.383,8.718,-4.167,5.865,-0.048,8.957,4.311,0.0,-0.144,8.916,-4.314,-5.865,-5.865,5.865
1.7550000000000001,0.383,8.718,-4.119,5.865,-0.096,8.909,4.311,0.0,-0.144,8.916,-4.314,-5.865,0.0,5.865
1.76,0.383,8.67,-4.167,5.865,-0.048,8.862,4.311,0.0,-0.144,8.772,-4.314,-5.865,0.0,5.865
1.7650000000000001,0.383,8.718,-4.119,5.865,-0.048,8.957,4.311,0.0,-0.144,8.916,-4.314,-5.865,0.0,5.865
1.77,0.623,7.712,-4.167,5.865,0.862,11.544,4.455,0.0,0.288,9.778,-4.602,-5.865,0.0,5.865
1.7750000000000001,0.096,8.478,-4.551,5.865,0.144,9.293,4.598,0.0,0.288,9.347,-4.602,-17.595,0.0,5.865
1.78,0.287,9.82,-4.215,5.865,-0.383,8.287,4.263,0.0,-0.431,8.484,-4.17,-17.595,5.865,5.865
1.7850000000000001,0.383,9.532,-4.024,5.865,-0.335,8.383,4.167,0.0,-0.431,8.772,-4.17,-17.595,0.0,5.865
1.79,0.383,8.957,-3.976,5.865,-0.192,8.766,4.167,5.865,-0.288,8.916,-4.17,-11.73,5.865,5.865
1.795,0.431,8.957,-4.024,5.865,-0.048,9.197,4.167,5.865,-0.144,9.203,-4.17,-5.865,0.0,11.73
1.8,0.431,9.197,-4.072,5.865,-0.144,9.053,4.215,5.865,-0.144,9.059,-4.17,-5.865,0.0,5.865
1.805,0.479,8.957,-4.119,5.865,-0.048,9.197,4.263,0.0,-0.144,9.059,-4.314,-5.865,0.0,5.865
1.81,0.431,8.814,-4.119,5.865,-0.048,9.101,4.263,5.865,0.0,9.059,-4.314,-5.865,0.0,5.865
1.815,0.479,8.622,-4.024,5.865,-0.144,8.814,4.215,0.0,-0.144,8.916,-4.17,-5.865,0.0,5.865
1.82,0.479,8.766,-4.072,5.865,-0.144,8.909,4.215,0.0,-0.144,8.916,-4.17,-5.865,0.0,5.865
1.825,0.527,8.718,-4.167,-0.0,-0.144,9.101,4.359,0.0,-0.144,8.916,-4.314,-5.865,0.0,5.865
1.83,0.479,9.005,-4.215,-0.0,-0.24,8.814,4.407,0.0,-0.288,8.772,-4.458,-5.865,0.0,5.865
1.835,0.479,8.957,-4.263,-0.0,-0.144,8.957,4.455,0.0,-0.288,8.916,-4.458,-5.865,0.0,5.865
1.84,0.527,8.909,-4.311,-0.0,-0.192,9.005,4.407,-5.865,-0.288,9.059,-4.458,-5.865,0.0,0.0
1.845,0.479,9.101,-4.215,-0.0,-0.192,9.053,4.359,-5.865,-0.288,9.059,-4.314,-5.865,0.0,0.0
1.85,0.431,9.101,-4.119,-0.0,-0.144,9.149,4.311,0.0,-0.288,9.203,-4.314,-5.865,0.0,0.0
1.855,0.431,9.149,-4.119,-0.0,-0.144,9.149,4.215,0.0,-0.288,9.203,-4.314,-5.865,0.0,0.0
1.86,0.479,9.149,-4.024,-0.0,-0.192,9.245,4.215,-5.865,-0.288,9.347,-4.17,-5.865,0.0,0.0
1.865,0.479,9.149,-4.119,-0.0,-0.144,9.245,4.311,-5.865,-0.288,9.347,-4.314,0.0,0.0,0.0
1.87,0.527,9.149,-4.215,-0.0,-0.096,9.293,4.407,-5.865,-0.144,9.347,-4.314,0.0,0.0,0.0
1.875,0.575,9.149,-4.215,-0.0,-0.144,9.293,4.359,0.0,-0.144,9.203,-4.314,0.0,0.0,0.0
1.8800000000000001,0.623,9.101,-4.215,-0.0,-0.192,9.245,4.407,0.0,-0.144,9.203,-4.314,0.0,0.0,5.865
1.885,0.623,9.005,-4.215,-0.0,-0.192,9.197,4.407,0.0,-0.288,9.059,-4.314,0.0,0.0,5.865
1.8900000000000001,0.623,8.957,-4.215,-0.0,-0.24,9.101,4.407,0.0,-0.288,9.059,-4.314,0.0,0.0,5.865
1.895,0.671,8.909,-4.263,-0.0,-0.24,9.053,4.407,0.0,-0.288,8.916,-4.458,0.0,0.0,5.865
1.9000000000000001,0.623,8.862,-4.263,-0.0,-0.24,8.957,4.455,0.0,-0.288,8.772,-4.458,0.0,0.0,5.865
1.905,0.671,8.814,-4.311,-0.0,-0.287,8.862,4.503,0.0,-0.288,8.772,-4.458,-5.865,-5.865,5.865
1.9100000000000001,0.719,8.718,-4.311,-0.0,-0.335,8.766,4.455,0.0,-0.431,8.628,-4.458,-5.865,0.0,5.865
1.915,0.671,8.574,-4.263,-0.0,-0.287,8.718,4.455,0.0,-0.288,8.628,-4.458,-5.865,-5.865,5.865
1.92,0.623,8.526,-4.215,-0.0,-0.24,8.622,4.359,0.0,-0.288,8.484,-4.314,-5.865,-5.865,0.0
1.925,0.623,8.478,-4.167,-0.0,-0.24,8.622,4.359,0.0,-0.288,8.484,-4.314,-5.865,0.0,0.0
1.93,0.575,8.526,-4.167,-0.0,-0.192,8.718,4.359,0.0,-0.288,8.628,-4.314,-5.865,-5.865,5.865
1.935,0.575,8.622,-4.167,-0.0,-0.192,8.862,4.311,0.0,-0.288,8.916,-4.314,-11.73,0.0,5.865
1.94,0.575,8.718,-4.119,-0.0,-0.24,8.957,4.263,0.0,-0.288,8.916,-4.314,-11.73,0.0,0.0
1.945,0.575,8.766,-4.072,-0.0,-0.24,9.005,4.167,-5.865,-0.288,9.059,-4.17,-5.865,-5.865,0.0
1.95,0.575,8.814,-3.976,-0.0,-0.144,9.005,4.167,-5.865,-0.144,9.059,-4.17,-5.865,0.0,0.0
1.955,0.479,8.766,-3.976,-5.865,-0.048,8.957,4.167,-5.865,-0.144,8.916,-4.17,-5.865,-5.865,0.0
1.96,0.431,8.718,-4.024,-5.865,0.0,8.957,4.167,-5.865,0.0,8.916,-4.17,-5.865,-5.865,-5.865
1.965,0.431,8.766,-4.024,-5.865,-0.048,9.005,4.167,-5.865,0.0,9.059,-4.17,-5.865,-5.865,-5.865
1.97,0.479,8.862,-4.024,-5.865,-0.144,9.101,4.215,-5.865,-0.144,9.059,-4.17,-5.865,-5.865,-5.865
1.975,0.527,9.005,-4.119,-0.0,-0.144,9.293,4.311,-5.865,-0.144,9.203,-4.314,-5.865,-5.865,0.0
1.98,0.623,9.293,-4.359,-5.865,-0.096,9.436,4.503,-11.73,-0.144,9.347,-4.458,-5.865,-5.865,-5.865
1.985,0.527,9.245,-4.167,-5.865,-0.192,9.436,4.263,-11.73,-0.288,9.491,-4.314,-5.865,-5.865,-5.865
1.99,0.671,9.197,-4.072,-5.865,-0.192,9.388,4.215,-11.73,-0.144,9.347,-4.17,-5.865,-5.865,-5.865
1.995,0.527,9.053,-4.072,-5.865,-0.096,9.293,4.215,-5.865,-0.144,9.347,-4.314,-5.865,-5.865,-5.865
2.0,0.479,8.957,-4.119,-5.865,-0.048,9.197,4.311,-11.73,-0.144,9.203,-4.314,-5.865,-5.865,-5.865
2.005,0.527,9.005,-4.119,-5.865,-0.096,9.197,4.311,-5.865,-0.144,9.203,-4.314,-5.865,-5.865,0.0
2.0100000000000002,0.623,9.101,-4.119,-5.865,-0.24,9.245,4.263,-5.865,-0.288,9.059,-4.314,-5.865,-5.865,0.0
2.015,0.719,9.149,-4.119,-0.0,-0.287,9.245,4.263,-5.865,-0.288,9.059,-4.314,-5.865,-5.865,0.0
2.02,0.719,9.053,-4.119,-0.0,-0.335,9.197,4.263,-5.865,-0.431,9.059,-4.314,-5.865,-5.865,0.0
2.025,0.719,8.957,-4.072,-0.0,-0.383,9.053,4.215,0.0,-0.431,9.059,-4.17,-5.865,-11.73,0.0
2.0300000000000002,0.671,8.862,-3.928,-0.0,-0.335,9.101,3.976,-5.865,-0.575,9.059,-4.026,-5.865,-5.865,0.0
2.035,-0.335,8.909,-3.401,-0.0,0.527,8.957,3.401,-5.865,-0.288,9.203,-3.739,-5.865,-5.865,0.0
2.04,1.293,8.862,-3.593,-5.865,-0.479,9.388,3.784,-11.73,-0.144,9.203,-3.739,-5.865,-5.865,-5.865
2.045,0.862,10.299,-4.215,-11.73,0.096,9.676,4.263,-11.73,0.575,8.772,-4.17,-5.865,-5.865,-5.865
2.05,0.287,9.053,-3.832,-0.0,-0.096,8.957,3.928,0.0,-0.288,9.203,-3.883,-11.73,-17.595,5.865
2.055,0.527,8.43,-3.64,5.865,-0.479,8.957,3.688,0.0,-0.863,9.059,-3.739,-11.73,-17.595,5.865
2.06,0.766,9.101,-3.64,-0.0,-0.575,9.341,3.88,-5.865,-0.863,9.347,-3.883,-11.73,-11.73,0.0
2.065,0.671,9.245,-3.976,-0.0,-0.335,9.436,4.263,-5.865,-0.431,9.491,-4.314,-11.73,-11.73,0.0
2.07,0.527,9.197,-4.167,-5.865,-0.192,9.341,4.359,-11.73,-0.288,9.203,-4.314,-11.73,-5.865,-5.865
2.075,0.527,9.053,-4.167,-5.865,-0.096,9.053,4.359,-11.73,-0.144,8.916,-4.314,-11.73,-5.865,-5.865
2.08,0.383,8.622,-4.167,-5.865,-0.096,8.718,4.311,-5.865,-0.288,8.772,-4.314,-11.73,-5.865,0.0
2.085,0.431,8.383,-4.167,-0.0,-0.24,8.67,4.359,-5.865,-0.431,8.772,-4.314,-11.73,-5.865,0.0
2.09,0.527,8.574,-4.215,-0.0,-0.24,8.862,4.407,-5.865,-0.431,8.916,-4.458,-11.73,-5.865,0.0
2.095,0.479,8.814,-4.311,-0.0,-0.192,9.149,4.455,0.0,-0.288,9.203,-4.458,-11.73,0.0,5.865
2.1,0.575,9.053,-4.311,-0.0,-0.24,9.388,4.503,0.0,-0.288,9.491,-4.458,-11.73,0.0,5.865
2.105,0.575,9.293,-4.359,-0.0,-0.192,9.676,4.503,-5.865,-0.288,9.778,-4.458,-11.73,0.0,0.0
2.11,0.623,9.484,-4.359,-0.0,-0.24,9.82,4.455,-5.865,-0.288,9.922,-4.458,-5.865,0.0,0.0
2.115,0.623,9.436,-4.311,-0.0,-0.192,9.724,4.455,-5.865,-0.288,9.922,-4.458,-5.865,0.0,0.0
2.12,0.527,9.293,-4.359,-0.0,-0.144,9.676,4.551,-5.865,-0.288,9.778,-4.602,-5.865,0.0,0.0
2.125,0.527,9.197,-4.407,-5.865,-0.144,9.484,4.551,-5.865,-0.144,9.635,-4.602,0.0,0.0,0.0
2.13,0.527,9.005,-4.407,-5.865,-0.096,9.245,4.551,-5.865,-0.144,9.347,-4.602,0.0,0.0,-5.865
2.1350000000000002,0.479,8.814,-4.455,-5.865,-0.096,9.101,4.646,-5.865,-0.144,9.203,-4.602,0.0,0.0,0.0
2.14,0.623,8.862,-4.598,-5.865,-0.24,9.053,4.79,-5.865,-0.288,8.916,-4.745,0.0,0.0,-5.865
2.145,0.623,8.862,-4.742,-5.865,-0.287,8.957,4.934,-5.865,-0.288,8.916,-5.033,0.0,0.0,-5.865
2.15,0.671,8.814,-4.886,-5.865,-0.335,8.909,5.125,-11.73,-0.431,8.628,-5.177,0.0,0.0,-5.865
2.1550000000000002,0.719,8.814,-5.03,-5.865,-0.383,8.862,5.221,-5.865,-0.431,8.628,-5.177,0.0,0.0,0.0
2.16,0.719,8.766,-5.077,-5.865,-0.383,8.718,5.269,-5.865,-0.431,8.34,-5.321,0.0,0.0,-5.865
2.165,0.719,8.574,-5.125,-5.865,-0.335,8.526,5.269,-5.865,-0.431,8.34,-5.321,0.0,0.0,0.0
2.17,0.623,8.287,-5.03,-5.865,-0.335,8.287,5.173,-5.865,-0.575,8.197,-5.177,-5.865,0.0,0.0
2.1750000000000003,0.623,7.999,-4.934,-5.865,-0.383,8.095,5.125,-5.865,-0.575,8.053,-5.033,-5.865,0.0,0.0
2.18,0.623,7.856,-4.934,-0.0,-0.335,7.999,5.077,-5.865,-0.431,7.909,-5.177,-5.865,0.0,0.0
2.185,0.623,7.856,-4.934,-0.0,-0.287,7.999,5.125,-5.865,-0.431,7.909,-5.177,-5.865,0.0,0.0
2.19,0.623,7.904,-4.934,-0.0,-0.335,8.047,5.125,-5.865,-0.431,7.909,-5.177,-5.865,5.865,0.0
2.195,0.671,7.951,-4.934,-0.0,-0.287,8.047,5.125,-5.865,-0.431,7.909,-5.177,-11.73,5.865,0.0
2.2,0.623,7.951,-4.934,-0.0,-0.287,8.047,5.125,0.0,-0.288,7.909,-5.177,-11.73,5.865,0.0
2.205,0.575,7.999,-4.934,-0.0,-0.24,8.095,5.125,0.0,-0.288,7.909,-5.177,-11.73,5.865,0.0
2.21,0.671,8.047,-4.886,-0.0,-0.287,8.143,5.03,0.0,-0.288,7.909,-5.033,-11.73,5.865,0.0
2.215,0.671,8.095,-4.742,-0.0,-0.287,8.095,4.886,-5.865,-0.288,7.909,-4.889,-17.595,5.865,0.0
2.22,0.575,7.951,-4.694,-0.0,-0.192,8.047,4.886,-5.865,-0.288,7.909,-4.889,-17.595,5.865,0.0
2.225,0.527,7.856,-4.694,-0.0,-0.144,7.999,4.838,-5.865,-0.144,7.909,-4.889,-17.595,5.865,0.0
2.23,0.527,7.856,-4.598,-5.865,-0.144,7.999,4.742,-5.865,-0.144,7.909,-4.745,-23.46,5.865,0.0
2.235,0.527,7.808,-4.503,-5.865,-0.096,7.951,4.646,-5.865,-0.144,7.909,-4.602,-23.46,5.865,0.0
2.24,0.479,7.712,-4.407,-0.0,-0.096,7.904,4.598,-5.865,-0.144,7.909,-4.602,-23.46,0.0,0.0
2.245,0.383,7.568,-4.359,-0.0,-0.048,7.808,4.551,-5.865,0.0,7.909,-4.458,-23.46,0.0,0.0
2.25,0.383,7.568,-4.359,-5.865,-0.048,7.904,4.551,-5.865,0.0,8.053,-4.458,-17.595,0.0,0.0
2.255,0.671,8.095,-4.359,-5.865,-0.287,8.43,4.551,-5.865,-0.144,8.34,-4.602,-17.595,0.0,0.0
2.2600000000000002,1.15,9.676,-4.503,-0.0,-0.671,9.82,4.742,-5.865,-0.431,8.916,-4.745,-17.595,0.0,0.0
2.265,1.916,11.831,-4.694,-5.865,-1.198,11.209,4.79,-11.73,-0.719,10.21,-4.745,-29.326,-5.865,-5.865
2.27,1.772,11.161,-4.215,-11.73,-1.054,10.682,4.072,-17.595,-1.294,10.641,-4.17,-41.056,-11.73,-11.73
2.275,0.91,9.772,-2.922,-23.46,-0.719,10.921,2.587,-29.326,-1.15,12.079,-2.588,-46.921,-11.73,-23.46
2.2800000000000002,0.623,9.676,-2.251,-29.326,-0.144,9.676,2.73,-29.326,0.0,9.922,-2.732,-35.191,-11.73,-23.46
2.285,0.623,8.383,-3.449,-29.326,0.144,8.622,3.88,-35.191,0.431,8.916,-3.883,-29.326,-11.73,-29.326
2.29,0.527,8.143,-4.072,-29.326,-0.575,8.814,4.311,-35.191,-1.007,9.059,-4.314,-23.46,-11.73,-23.46
2.295,0.814,8.574,-4.311,-23.46,-0.766,9.341,4.503,-23.46,-1.15,9.778,-4.602,-17.595,-11.73,-17.595
2.3000000000000003,0.719,8.766,-4.263,-11.73,-0.575,9.341,4.359,-11.73,-0.863,9.778,-4.314,-11.73,-5.865,-5.865
2.305,0.862,8.814,-3.976,-0.0,-0.527,9.341,4.072,0.0,-0.575,9.635,-4.026,-5.865,-5.865,0.0
2.31,0.91,9.005,-3.928,-0.0,-0.575,9.388,4.119,0.0,-0.719,9.635,-4.17,0.0,0.0,5.865
2.315,1.054,8.909,-4.119,5.865,-0.719,9.149,4.359,0.0,-0.863,9.203,-4.314,0.0,0.0,5.865
2.32,1.054,9.005,-4.359,5.865,-0.671,9.101,4.551,0.0,-0.719,8.916,-4.602,0.0,0.0,5.865
2.325,1.054,9.053,-4.503,5.865,-0.671,9.005,4.694,0.0,-0.719,8.772,-4.745,0.0,0.0,5.865
2.33,1.054,8.957,-4.598,-0.0,-0.719,8.909,4.838,0.0,-0.719,8.772,-4.889,0.0,0.0,5.865
2.335,1.102,8.862,-4.742,-0.0,-0.766,8.814,4.934,-5.865,-0.863,8.628,-4.889,0.0,0.0,0.0
2.34,1.102,8.67,-4.838,-5.865,-0.766,8.622,5.077,-5.865,-0.863,8.34,-5.033,0.0,0.0,0.0
2.345,1.006,8.478,-4.982,-5.865,-0.671,8.43,5.173,-11.73,-0.863,8.197,-5.177,-5.865,0.0,-5.865
2.35,0.958,8.287,-5.03,-5.865,-0.623,8.287,5.173,-11.73,-0.719,8.053,-5.177,-5.865,0.0,-11.73
2.355,0.862,7.951,-4.886,-11.73,-0.575,8.143,5.077,-11.73,-0.719,8.053,-5.033,-5.865,0.0,-11.73
2.36,0.91,8.047,-5.03,-11.73,-0.527,8.191,5.269,-11.73,-0.575,8.053,-5.321,-11.73,0.0,-5.865
2.365,0.814,8.095,-5.125,-11.73,-0.479,8.287,5.317,-17.595,-0.575,8.34,-5.321,-11.73,0.0,-11.73
2.37,0.814,8.143,-5.077,-11.73,-0.575,8.335,5.221,-11.73,-0.719,8.34,-5.321,-11.73,0.0,-5.865
2.375,0.814,8.047,-5.077,-11.73,-0.527,8.287,5.269,-11.73,-0.719,8.484,-5.321,-11.73,0.0,-5.865
2.38,0.766,7.951,-5.077,-11.73,-0.479,8.239,5.269,-11.73,-0.719,8.34,-5.321,-5.865,5.865,-5.865
2.3850000000000002,0.719,7.904,-5.077,-11.73,-0.479,8.239,5.221,-11.73,-0.719,8.34,-5.321,-5.865,5.865,-5.865
2.39,0.671,7.904,-5.03,-5.865,-0.431,8.191,5.173,-11.73,-0.575,8.34,-5.177,-5.865,5.865,-5.865
2.395,0.719,7.951,-4.886,-5.865,-0.383,8.239,5.03,-11.73,-0.431,8.34,-5.033,0.0,11.73,-5.865
2.4,0.671,8.095,-4.742,-5.865,-0.287,8.335,4.886,-11.73,-0.288,8.34,-4.889,0.0,11.73,-5.865
2.4050000000000002,0.623,8.143,-4.598,-5.865,-0.287,8.43,4.742,-5.865,-0.288,8.484,-4.745,0.0,11.73,0.0
2.41,0.623,8.239,-4.551,-5.865,-0.287,8.526,4.742,-5.865,-0.431,8.628,-4.745,0.0,11.73,0.0
2.415,0.623,8.335,-4.551,-0.0,-0.287,8.622,4.694,-5.865,-0.431,8.628,-4.745,0.0,11.73,0.0
2.42,0.623,8.526,-4.503,-0.0,-0.335,8.766,4.694,-5.865,-0.431,8.772,-4.745,0.0,11.73,0.0
2.4250000000000003,0.671,8.67,-4.503,-0.0,-0.335,8.862,4.694,-5.865,-0.431,8.772,-4.602,0.0,11.73,0.0
2.43,0.671,8.766,-4.503,-0.0,-0.287,8.957,4.646,-5.865,-0.431,8.916,-4.602,0.0,11.73,0.0
2.435,0.719,8.862,-4.455,-0.0,-0.335,9.005,4.598,-5.865,-0.288,8.916,-4.602,0.0,11.73,0.0
2.44,0.719,8.957,-4.407,-5.865,-0.287,9.101,4.551,-5.865,-0.288,9.059,-4.602,0.0,11.73,0.0
2.445,0.719,9.053,-4.359,-5.865,-0.335,9.197,4.551,-5.865,-0.288,9.059,-4.602,0.0,11.73,0.0
2.45,0.766,9.149,-4.359,-5.865,-0.335,9.293,4.503,-5.865,-0.288,9.203,-4.458,0.0,11.73,0.0
2.455,0.814,9.245,-4.311,-0.0,-0.383,9.436,4.455,-5.865,-0.288,9.347,-4.458,0.0,11.73,0.0
2.46,0.862,9.341,-4.215,-5.865,-0.431,9.532,4.359,-5.865,-0.431,9.491,-4.314,0.0,5.865,0.0
2.465,0.91,9.436,-4.167,-5.865,-0.527,9.676,4.407,-5.865,-0.575,9.635,-4.314,0.0,5.865,0.0
2.47,0.958,9.58,-4.311,-5.865,-0.575,9.915,4.455,-5.865,-0.719,10.066,-4.458,0.0,5.865,0.0
2.475,1.054,9.676,-4.167,-5.865,-0.719,10.155,4.407,-5.865,-0.863,10.354,-4.458,0.0,5.865,-5.865
2.48,1.102,10.059,-4.455,-5.865,-0.719,10.442,4.646,-11.73,-0.719,10.497,-4.602,0.0,5.865,-5.865
2.485,1.054,10.203,-4.503,-5.865,-0.527,10.682,4.407,-11.73,-0.575,11.073,-4.314,0.0,5.865,-5.865
2.49,0.719,10.634,-4.311,-5.865,-0.192,11.065,4.407,-5.865,-0.288,11.073,-4.458,0.0,5.865,0.0
2.495,1.006,10.73,-4.215,-0.0,-0.91,11.304,4.311,0.0,-1.007,11.792,-4.314,11.73,0.0,5.865
2.5,1.581,11.304,-4.167,-0.0,-1.293,11.879,4.311,0.0,-1.582,12.223,-4.314,17.595,5.865,0.0
2.505,1.629,11.927,-4.311,-5.865,-1.293,12.358,4.503,-11.73,-1.438,12.511,-4.602,23.46,5.865,-5.865
2.5100000000000002,1.629,12.406,-4.551,-11.73,-1.198,12.694,4.694,-17.595,-1.15,12.654,-4.745,23.46,5.865,-11.73
2.515,1.724,12.694,-4.503,-17.595,-1.198,12.837,4.551,-23.46,-1.15,12.654,-4.602,23.46,5.865,-17.595
2.52,1.772,12.646,-4.311,-23.46,-1.198,12.741,4.359,-29.326,-1.15,12.654,-4.458,23.46,5.865,-23.46
2.525,1.724,12.358,-4.119,-23.46,-1.198,12.502,4.215,-35.191,-1.15,12.511,-4.17,23.46,0.0,-23.46
2.5300000000000002,1.677,12.023,-3.976,-29.326,-1.198,12.215,4.072,-35.191,-1.15,12.367,-4.026,23.46,0.0,-29.326
2.535,1.677,11.736,-3.976,-35.191,-1.15,12.023,4.072,-41.056,-1.15,12.223,-4.17,23.46,0.0,-35.191
2.54,1.629,11.592,-3.976,-35.191,-1.102,11.831,4.119,-46.921,-1.15,11.935,-4.026,29.326,0.0,-41.056
2.545,1.629,11.352,-3.976,-41.056,-1.15,11.496,4.119,-46.921,-1.15,11.648,-4.026,29.326,-5.865,-41.056
2.5500000000000003,1.629,10.969,-3.976,-41.056,-1.198,11.113,4.119,-46.921,-1.15,11.216,-4.17,29.326,-5.865,-41.056
2.555,1.629,10.634,-4.024,-41.056,-1.198,10.682,4.167,-46.921,-1.294,10.785,-4.17,35.191,-5.865,-46.921
2.56,1.629,10.299,-4.024,-46.921,-1.198,10.346,4.167,-52.786,-1.294,10.354,-4.17,35.191,-5.865,-46.921
2.565,1.629,10.059,-4.024,-46.921,-1.198,10.107,4.167,-52.786,-1.294,10.066,-4.17,35.191,-5.865,-46.921
2.57,1.581,9.867,-3.976,-46.921,-1.15,9.915,4.119,-52.786,-1.15,9.778,-4.17,35.191,-5.865,-46.921
2.575,1.581,9.628,-3.928,-46.921,-1.15,9.676,4.072,-52.786,-1.15,9.635,-4.026,35.191,-5.865,-52.786
2.58,1.581,9.341,-3.928,-46.921,-1.15,9.341,4.072,-58.651,-1.15,9.203,-4.026,35.191,-5.865,-52.786
2.585,1.485,8.957,-3.88,-52.786,-1.102,8.957,4.024,-58.651,-1.15,8.916,-4.026,35.191,-11.73,-52.786
2.59,1.437,8.574,-3.88,-52.786,-1.006,8.574,4.024,-58.651,-1.007,8.484,-4.026,29.326,-11.73,-52.786
2.595,1.341,8.191,-3.88,-52.786,-0.958,8.191,4.072,-58.651,-0.863,8.053,-4.17,29.326,-11.73,-52.786
2.6,1.245,7.808,-3.88,-52.786,-0.862,7.76,4.072,-58.651,-0.863,7.621,-4.026,29.326,-11.73,-58.651
2.605,1.198,7.472,-3.88,-52.786,-0.814,7.425,4.072,-58.651,-0.863,7.334,-4.026,29.326,-11.73,-52.786
2.61,1.102,7.137,-3.928,-52.786,-0.766,7.137,4.119,-58.651,-0.719,7.046,-4.17,29.326,-11.73,-52.786
2.615,1.102,6.898,-3.976,-52.786,-0.766,6.898,4.167,-58.651,-0.863,6.759,-4.17,23.46,-11.73,-52.786
2.62,1.102,6.658,-4.024,-46.921,-0.766,6.658,4.215,-52.786,-0.863,6.471,-4.17,23.46,-11.73,-46.921
2.625,1.054,6.371,-4.119,-46.921,-0.719,6.323,4.359,-52.786,-0.719,6.04,-4.314,23.46,-17.595,-46.921
2.63,0.862,6.083,-4.215,-41.056,-0.527,5.94,4.455,-46.921,-0.575,5.752,-4.458,23.46,-11.73,-41.056
2.6350000000000002,0.862,5.7,-4.263,-41.056,-0.575,5.7,4.455,-46.921,-0.719,5.464,-4.458,23.46,-11.73,-41.056
2.64,0.958,5.556,-4.215,-35.191,-0.719,5.509,4.455,-41.056,-0.719,5.177,-4.458,17.595,-11.73,-41.056
2.645,0.958,5.413,-4.311,-35.191,-0.623,5.317,4.598,-41.056,-0.719,5.033,-4.602,17.595,-11.73,-35.191
2.65,0.814,5.221,-4.455,-35.191,-0.527,5.077,4.694,-41.056,-0.575,4.745,-4.745,11.73,-11.73,-35.191
2.6550000000000002,0.814,4.982,-4.598,-29.326,-0.527,4.79,4.838,-35.191,-0.575,4.314,-4.889,0.0,-11.73,-29.326
2.66,0.766,4.742,-4.742,-29.326,-0.575,4.551,5.03,-29.326,-0.719,4.17,-5.033,0.0,-11.73,-23.46
2.665,0.766,4.503,-4.886,-23.46,-0.575,4.311,5.173,-23.46,-0.719,3.883,-5.177,0.0,-11.73,-23.46
2.67,0.719,4.215,-4.982,-17.595,-0.527,3.976,5.269,-23.46,-0.719,3.451,-5.321,-5.865,-11.73,-17.595
2.6750000000000003,0.719,3.736,-5.03,-11.73,-0.527,3.497,5.269,-17.595,-0.719,3.164,-5.321,-11.73,-11.73,-11.73
2.68,0.575,3.209,-4.982,-5.865,-0.383,3.114,5.221,-11.73,-0.575,2.876,-5.177,-11.73,-11.73,0.0
2.685,0.383,2.826,-4.982,-0.0,-0.24,2.922,5.269,0.0,-0.431,2.876,-5.177,-17.595,-5.865,5.865
2.69,0.287,2.73,-5.03,11.73,-0.144,3.066,5.317,5.865,-0.288,3.02,-5.321,-17.595,-5.865,11.73
2.695,0.24,2.97,-5.03,17.595,-0.192,3.305,5.269,17.595,-0.431,3.307,-5.321,-17.595,-5.865,23.46
2.7,0.335,3.209,-5.03,23.46,-0.287,3.545,5.269,23.46,-0.575,3.595,-5.321,-11.73,0.0,29.326
2.705,0.383,3.353,-5.077,29.326,-0.287,3.688,5.365,29.326,-0.575,3.739,-5.321,-11.73,0.0,29.326
2.71,0.335,3.497,-5.221,35.191,-0.24,3.784,5.461,29.326,-0.431,3.883,-5.464,-11.73,5.865,35.191
2.715,0.335,3.736,-5.317,35.191,-0.192,3.928,5.556,35.191,-0.431,3.883,-5.464,-5.865,5.865,41.056
2.72,0.383,3.928,-5.269,41.056,-0.24,4.024,5.509,35.191,-0.431,3.739,-5.464,-11.73,11.73,41.056
2.725,0.383,3.88,-5.317,41.056,-0.192,3.88,5.509,41.056,-0.288,3.595,-5.464,-11.73,11.73,46.921
2.73,0.287,3.688,-5.317,46.921,-0.096,3.64,5.556,41.056,-0.288,3.451,-5.464,-11.73,11.73,46.921
2.735,0.192,3.545,-5.317,46.921,0.0,3.545,5.556,41.056,-0.144,3.307,-5.608,-11.73,11.73,46.921
2.74,0.096,3.593,-5.413,46.921,0.144,3.593,5.652,46.921,0.0,3.164,-5.608,-17.595,11.73,52.786
2.745,-0.048,3.688,-5.509,52.786,0.287,3.736,5.748,52.786,0.288,3.451,-5.752,-23.46,17.595,52.786
2.75,-0.144,3.928,-5.509,58.651,0.24,4.024,5.748,58.651,0.0,3.739,-5.752,-23.46,17.595,58.651
2.755,0.0,4.263,-5.461,64.516,0.144,4.407,5.7,64.516,0.0,4.17,-5.752,-29.326,17.595,70.381
2.7600000000000002,0.0,4.742,-5.461,70.381,0.24,5.03,5.7,64.516,0.0,4.889,-5.752,-29.326,23.46,70.381
2.765,-0.048,5.317,-5.461,76.246,0.287,5.652,5.7,70.381,0.144,5.608,-5.752,-29.326,23.46,70.381
2.77,-0.048,5.892,-5.509,76.246,0.287,6.227,5.748,70.381,0.288,6.183,-5.752,-29.326,23.46,76.246
2.775,0.048,6.467,-5.556,76.246,0.287,6.754,5.748,76.246,0.288,6.615,-5.752,-29.326,29.326,76.246
2.7800000000000002,4.311,19.447,-5.988,76.246,-3.736,23.519,3.736,76.246,3.02,33.937,-3.739,-41.056,23.46,76.246
2.785,8.67,15.711,4.072,140.762,-6.946,20.118,-2.682,123.167,-5.177,20.563,2.445,-99.707,-11.73,123.167
2.79,-5.317,3.545,-5.413,146.628,3.305,6.85,3.784,58.651,0.144,9.491,-3.883,-99.707,-46.921,41.056
2.795,1.293,12.837,2.012,-23.46,-1.437,15.28,-2.156,-58.651,0.719,11.504,2.301,-105.572,-41.056,-76.246
2.8000000000000003,3.066,12.406,-0.383,-5.865,-1.102,12.741,1.533,17.595,-0.863,12.079,-1.726,-105.572,-41.056,0.0
2.805,-0.575,8.766,-2.491,82.111,-3.353,13.173,2.97,82.111,-7.19,18.982,-3.451,-82.111,-52.786,35.191
2.81,2.012,13.556,-3.209,70.381,-0.335,13.699,3.305,52.786,0.0,15.53,-3.307,-52.786,-29.326,11.73
2.815,1.006,13.843,-3.257,46.921,-1.293,14.322,3.545,35.191,-1.869,15.099,-3.595,-46.921,-23.46,11.73
2.82,1.772,12.837,-3.784,46.921,-1.82,13.604,3.88,41.056,-2.732,15.099,-3.883,-35.191,-23.46,23.46
2.825,1.437,12.215,-3.784,46.921,-1.389,12.789,3.784,41.056,-2.301,15.099,-3.739,-23.46,-11.73,23.46
2.83,1.772,12.119,-3.688,29.326,-1.485,12.598,3.832,23.46,-2.013,13.517,-3.883,-11.73,-11.73,17.595
2.835,1.629,11.927,-4.072,23.46,-1.102,12.167,4.455,17.595,-1.582,12.654,-4.458,-5.865,-5.865,17.595
2.84,1.389,11.352,-4.886,17.595,-1.15,11.496,5.173,11.73,-1.438,11.792,-5.177,0.0,-5.865,11.73
2.845,1.485,10.778,-5.365,11.73,-1.198,10.682,5.7,5.865,-1.726,10.641,-5.752,0.0,-5.865,11.73
2.85,1.198,9.676,-5.892,5.865,-1.054,9.628,6.275,0.0,-1.582,9.635,-6.327,0.0,-5.865,5.865
2.855,0.958,8.622,-6.467,-0.0,-0.91,8.718,6.754,0.0,-1.438,8.916,-6.759,0.0,-5.865,5.865
2.86,0.91,7.999,-6.754,-0.0,-0.862,8.143,6.946,0.0,-1.438,8.053,-6.902,0.0,0.0,5.865
2.865,0.958,7.76,-6.802,-0.0,-0.862,7.856,7.041,0.0,-1.294,7.621,-7.046,0.0,5.865,5.865
2.87,1.006,7.664,-6.754,-0.0,-0.862,7.808,6.946,0.0,-1.294,7.765,-6.902,0.0,5.865,0.0
2.875,1.102,7.951,-6.61,-0.0,-0.958,8.095,6.754,-5.865,-1.15,7.909,-6.759,0.0,11.73,0.0
2.88,1.245,8.383,-6.371,-5.865,-0.814,8.43,6.419,-11.73,-1.007,8.197,-6.327,0.0,11.73,-5.865
2.8850000000000002,1.102,8.622,-5.844,-11.73,-0.719,8.718,5.844,-17.595,-0.863,8.628,-5.896,0.0,11.73,-11.73
2.89,1.006,8.622,-5.317,-11.73,-0.623,8.862,5.365,-17.595,-0.863,8.916,-5.321,0.0,5.865,-17.595
2.895,0.91,8.718,-5.03,-17.595,-0.575,9.005,5.125,-23.46,-0.719,9.059,-5.177,0.0,5.865,-17.595
2.9,0.91,8.909,-4.79,-17.595,-0.527,9.197,4.886,-23.46,-0.863,9.203,-4.889,0.0,5.865,-23.46
2.9050000000000002,0.814,8.957,-4.551,-17.595,-0.527,9.293,4.598,-23.46,-0.719,9.347,-4.602,0.0,5.865,-17.595
2.91,0.766,9.005,-4.263,-17.595,-0.479,9.293,4.359,-23.46,-0.863,9.347,-4.314,0.0,5.865,-17.595
2.915,0.814,9.005,-4.072,-17.595,-0.527,9.293,4.167,-17.595,-0.719,9.347,-4.17,0.0,5.865,-11.73
2.92,0.862,9.101,-3.88,-11.73,-0.527,9.341,4.024,-17.595,-0.719,9.347,-4.026,0.0,5.865,-11.73
2.9250000000000003,0.814,9.149,-3.784,-11.73,-0.431,9.341,3.88,-11.73,-0.719,9.203,-3.883,0.0,5.865,-5.865
2.93,0.766,9.149,-3.688,-5.865,-0.383,9.293,3.832,-5.865,-0.575,9.203,-3.883,0.0,5.865,0.0
2.935,0.766,9.101,-3.688,-0.0,-0.383,9.245,3.88,-5.865,-0.575,9.059,-3.883,0.0,5.865,0.0
2.94,0.719,9.053,-3.784,-0.0,-0.383,9.197,3.976,0.0,-0.575,9.059,-3.883,0.0,0.0,0.0
2.945,0.719,9.005,-3.88,-0.0,-0.383,9.053,4.072,0.0,-0.575,8.916,-4.17,0.0,0.0,5.865
2.95,0.671,8.814,-3.976,5.865,-0.383,8.862,4.167,0.0,-0.575,8.772,-4.17,0.0,0.0,5.865
2.955,0.671,8.574,-4.072,5.865,-0.335,8.67,4.263,0.0,-0.575,8.628,-4.314,0.0,0.0,5.865
2.96,0.623,8.43,-4.167,5.865,-0.335,8.526,4.407,0.0,-0.575,8.34,-4.314,0.0,0.0,5.865
2.965,0.671,8.335,-4.263,5.865,-0.383,8.43,4.455,0.0,-0.575,8.197,-4.458,0.0,0.0,5.865
2.97,0.671,8.287,-4.311,5.865,-0.383,8.335,4.503,0.0,-0.575,8.197,-4.458,0.0,0.0,5.865
2.975,0.719,8.239,-4.311,5.865,-0.431,8.335,4.503,0.0,-0.719,8.197,-4.458,0.0,0.0,5.865
2.98,0.766,8.239,-4.359,-0.0,-0.431,8.335,4.551,-5.865,-0.575,8.197,-4.602,0.0,0.0,5.865
2.985,0.719,8.239,-4.359,-0.0,-0.431,8.335,4.503,-5.865,-0.719,8.197,-4.458,0.0,0.0,0.0
2.99,0.719,8.191,-4.359,-0.0,-0.431,8.287,4.551,-5.865,-0.719,8.197,-4.602,-5.865,0.0,0.0
2.995,0.766,8.143,-4.359,-0.0,-0.479,8.287,4.551,-5.865,-0.719,8.197,-4.602,-5.865,0.0,0.0
3.0,0.766,8.143,-4.359,-0.0,-0.479,8.335,4.551,-5.865,-0.719,8.197,-4.602,-5.865,0.0,0.0
3.005,0.766,8.191,-4.359,-0.0,-0.431,8.383,4.551,-5.865,-0.719,8.34,-4.602,-5.865,-5.865,0.0
3.0100000000000002,0.719,8.191,-4.407,-0.0,-0.431,8.43,4.646,-5.865,-0.719,8.484,-4.602,-5.865,-5.865,0.0
3.015,0.766,8.191,-4.503,-0.0,-0.479,8.478,4.694,-5.865,-0.719,8.484,-4.745,-5.865,-5.865,0.0
3.02,0.766,8.143,-4.551,-0.0,-0.527,8.43,4.742,-5.865,-0.719,8.484,-4.745,-5.865,-5.865,0.0
3.025,0.814,8.191,-4.598,-0.0,-0.527,8.478,4.79,-5.865,-0.863,8.484,-4.745,0.0,-5.865,0.0
3.0300000000000002,0.814,8.239,-4.646,-0.0,-0.527,8.478,4.838,-5.865,-0.863,8.484,-4.889,0.0,-5.865,0.0
3.035,0.766,8.239,-4.694,-0.0,-0.527,8.478,4.838,-5.865,-0.719,8.484,-4.889,0.0,0.0,0.0
3.04,0.814,8.239,-4.694,-0.0,-0.527,8.43,4.838,0.0,-0.719,8.484,-4.889,0.0,0.0,0.0
3.045,0.766,8.191,-4.646,-0.0,-0.431,8.383,4.838,0.0,-0.719,8.34,-4.889,0.0,0.0,0.0
3.0500000000000003,0.766,8.143,-4.694,5.865,-0.527,8.383,4.886,0.0,-0.719,8.34,-4.889,0.0,0.0,5.865
3.055,0.814,8.143,-4.694,5.865,-0.575,8.383,4.886,0.0,-0.863,8.34,-4.889,0.0,0.0,5.865
3.06,0.814,8.191,-4.742,5.865,-0.527,8.43,4.886,5.865,-0.863,8.484,-4.889,0.0,0.0,5.865
3.065,0.766,8.191,-4.694,5.865,-0.479,8.43,4.886,5.865,-0.863,8.34,-4.889,0.0,0.0,11.73
3.0700000000000003,0.766,8.191,-4.646,11.73,-0.527,8.43,4.79,5.865,-0.863,8.484,-4.745,0.0,0.0,11.73
3.075,0.766,8.143,-4.598,11.73,-0.527,8.383,4.79,5.865,-0.863,8.34,-4.745,11.73,0.0,11.73
3.08,0.766,8.143,-4.646,11.73,-0.527,8.335,4.838,5.865,-0.863,8.34,-4.889,11.73,0.0,11.73
3.085,0.766,8.095,-4.646,11.73,-0.527,8.239,4.838,11.73,-0.863,8.197,-4.889,11.73,0.0,11.73
3.09,0.766,8.095,-4.646,11.73,-0.527,8.239,4.79,11.73,-0.863,8.197,-4.889,11.73,5.865,11.73
3.095,0.766,8.095,-4.646,17.595,-0.479,8.239,4.838,11.73,-0.719,8.197,-4.889,11.73,5.865,17.595
3.1,0.719,8.095,-4.694,17.595,-0.479,8.287,4.838,11.73,-0.719,8.197,-4.889,11.73,5.865,17.595
3.105,0.766,8.143,-4.646,17.595,-0.431,8.287,4.838,11.73,-0.719,8.197,-4.889,11.73,5.865,17.595
3.11,0.719,8.143,-4.598,17.595,-0.383,8.287,4.79,17.595,-0.575,8.197,-4.889,11.73,5.865,23.46
3.115,0.671,8.143,-4.646,23.46,-0.383,8.287,4.886,17.595,-0.575,8.197,-4.889,11.73,5.865,23.46
3.12,0.671,8.239,-4.79,23.46,-0.335,8.478,5.03,23.46,-0.575,8.484,-5.033,11.73,5.865,23.46
3.125,0.623,8.526,-4.982,29.326,-0.431,8.814,5.221,23.46,-0.719,8.772,-5.177,11.73,5.865,29.326
3.13,0.766,8.814,-5.173,29.326,-0.527,9.053,5.413,23.46,-0.719,8.916,-5.464,11.73,5.865,29.326
3.1350000000000002,0.766,8.909,-5.317,29.326,-0.479,9.101,5.509,23.46,-0.719,9.059,-5.464,11.73,5.865,29.326
3.14,0.719,8.766,-5.413,29.326,-0.383,8.957,5.556,23.46,-0.575,8.916,-5.608,11.73,5.865,29.326
3.145,0.575,8.574,-5.461,23.46,-0.287,8.862,5.652,23.46,-0.575,8.916,-5.608,11.73,5.865,29.326
3.15,0.575,8.383,-5.509,23.46,-0.335,8.67,5.652,23.46,-0.575,8.772,-5.608,11.73,5.865,23.46
3.1550000000000002,0.575,8.191,-5.461,29.326,-0.335,8.478,5.604,23.46,-0.719,8.628,-5.608,17.595,5.865,29.326
3.16,0.527,7.951,-5.365,29.326,-0.335,8.239,5.556,23.46,-0.719,8.484,-5.608,23.46,5.865,29.326
3.165,0.431,7.76,-5.365,29.326,-0.24,8.095,5.509,23.46,-0.575,8.197,-5.464,23.46,11.73,29.326
3.17,0.335,7.568,-5.269,29.326,-0.192,7.951,5.461,23.46,-0.575,8.197,-5.464,23.46,11.73,29.326
3.1750000000000003,0.335,7.472,-5.173,29.326,-0.192,7.951,5.269,23.46,-0.575,8.197,-5.321,29.326,11.73,29.326
3.18,0.192,7.137,-4.694,29.326,-0.431,7.808,4.311,23.46,-1.438,8.772,-4.314,35.191,17.595,29.326
3.185,0.431,7.425,-4.598,29.326,-0.096,8.191,5.03,23.46,-0.288,8.484,-5.033,41.056,23.46,29.326
3.19,0.192,7.999,-5.03,29.326,0.048,8.239,5.173,23.46,-0.288,8.197,-5.177,46.921,23.46,29.326
3.1950000000000003,0.335,7.951,-4.886,35.191,-0.144,8.239,4.982,29.326,-0.431,8.34,-5.033,52.786,23.46,35.191
3.2,0.431,7.999,-4.598,35.191,-0.24,8.239,4.694,29.326,-0.575,8.197,-4.745,52.786,23.46,35.191
3.205,0.383,7.904,-4.311,35.191,-0.192,8.143,4.407,35.191,-0.575,8.053,-4.458,58.651,29.326,41.056
3.21,0.431,7.856,-4.072,41.056,-0.192,8.095,4.263,35.191,-0.575,8.053,-4.314,58.651,29.326,35.191
3.215,0.383,8.047,-4.072,35.191,-0.096,8.287,4.263,35.191,-0.288,8.197,-4.314,58.651,29.326,35.191
3.22,0.335,8.526,-4.072,35.191,-0.048,8.67,4.263,29.326,-0.288,8.34,-4.314,58.651,29.326,35.191
3.225,0.431,8.766,-3.88,35.191,-0.096,8.766,3.976,29.326,-0.288,8.484,-4.026,52.786,29.326,35.191
3.23,0.479,8.622,-3.593,35.191,-0.096,8.526,3.688,29.326,-0.288,8.34,-3.739,46.921,29.326,35.191
3.235,0.335,8.239,-3.305,35.191,-0.048,8.335,3.449,29.326,-0.288,8.197,-3.451,46.921,23.46,35.191
3.24,0.431,8.526,-3.114,35.191,-0.048,8.574,3.305,29.326,-0.288,8.197,-3.307,46.921,23.46,35.191
3.245,0.479,8.862,-3.114,29.326,-0.096,8.814,3.257,29.326,-0.144,8.34,-3.307,41.056,23.46,35.191
3.25,0.575,9.053,-3.018,35.191,-0.24,9.053,3.114,29.326,-0.288,8.484,-3.164,41.056,23.46,29.326
3.255,0.862,9.724,-2.73,29.326,-0.431,9.58,2.826,23.46,-0.575,8.916,-2.732,35.191,17.595,29.326
3.2600000000000002,1.006,10.203,-2.443,29.326,-0.479,9.963,2.587,23.46,-0.575,9.491,-2.588,29.326,17.595,29.326
3.265,0.91,10.299,-2.299,29.326,-0.24,9.963,2.491,23.46,-0.288,9.491,-2.445,23.46,11.73,29.326
3.27,0.623,9.915,-2.251,29.326,0.096,9.58,2.491,17.595,0.288,9.059,-2.445,11.73,11.73,23.46
3.275,0.383,9.436,-2.443,23.46,0.287,9.245,2.73,23.46,0.431,8.772,-2.732,0.0,5.865,23.46
3.2800000000000002,0.192,9.245,-2.682,29.326,0.287,9.388,2.874,23.46,0.144,9.203,-2.876,0.0,0.0,29.326
3.285,0.24,9.628,-2.73,29.326,0.096,9.963,2.97,29.326,-0.144,9.922,-2.876,0.0,-5.865,29.326
3.29,0.335,10.203,-2.874,35.191,-0.048,10.634,3.018,29.326,-0.431,10.785,-3.02,0.0,-5.865,35.191
3.295,0.479,10.634,-2.874,35.191,-0.192,10.969,3.018,35.191,-0.575,11.073,-3.02,0.0,-5.865,35.191
3.3000000000000003,0.527,10.825,-2.874,35.191,-0.144,11.065,3.018,29.326,-0.431,11.073,-3.02,0.0,-5.865,35.191
3.305,0.431,10.825,-2.874,29.326,-0.048,11.017,3.018,23.46,-0.288,10.929,-3.02,0.0,-5.865,29.326
3.31,0.335,10.634,-2.826,29.326,0.048,10.825,2.922,23.46,-0.288,10.785,-2.876,0.0,-5.865,29.326
3.315,0.527,10.442,-3.018,23.46,-0.048,10.682,3.209,23.46,-0.288,10.785,-3.307,0.0,-5.865,23.46
3.3200000000000003,0.192,10.394,-3.066,23.46,0.144,10.49,3.257,17.595,-0.144,10.497,-3.164,0.0,-5.865,23.46
3.325,0.287,10.203,-3.257,17.595,0.144,10.299,3.449,17.595,-0.144,10.21,-3.451,0.0,-5.865,17.595
3.33,0.144,10.011,-3.305,17.595,0.24,10.059,3.497,11.73,0.0,9.922,-3.451,0.0,-5.865,17.595
3.335,0.048,9.772,-3.449,17.595,0.287,9.867,3.64,11.73,0.0,9.778,-3.595,0.0,-5.865,17.595
3.34,0.0,9.628,-3.545,17.595,0.287,9.82,3.736,11.73,0.0,9.778,-3.739,0.0,-5.865,17.595
3.345,0.0,9.58,-3.688,17.595,0.24,9.772,3.88,11.73,-0.144,9.778,-3.883,0.0,-5.865,17.595
3.35,0.048,9.484,-3.832,11.73,0.24,9.676,4.024,11.73,-0.144,9.635,-4.026,0.0,-5.865,17.595
3.355,0.0,9.341,-3.88,11.73,0.192,9.532,4.072,11.73,-0.288,9.491,-4.026,0.0,-5.865,17.595
3.36,0.048,9.245,-3.928,11.73,0.192,9.436,4.119,11.73,-0.144,9.347,-4.17,0.0,0.0,11.73
3.365,0.048,9.149,-3.928,11.73,0.192,9.293,4.072,5.865,-0.144,9.203,-4.17,0.0,0.0,11.73
3.37,0.048,9.101,-3.976,11.73,0.24,9.293,4.167,5.865,0.0,9.347,-4.17,0.0,0.0,11.73
3.375,0.0,9.101,-3.976,11.73,0.287,9.293,4.167,11.73,0.0,9.347,-4.17,0.0,0.0,11.73
3.38,0.048,9.101,-3.928,11.73,0.287,9.293,4.024,5.865,0.0,9.203,-4.026,0.0,0.0,11.73
3.3850000000000002,0.048,9.053,-3.784,11.73,0.24,9.245,3.928,11.73,0.0,9.203,-3.883,0.0,0.0,17.595
3.39,0.048,8.909,-3.688,11.73,0.24,9.149,3.88,11.73,-0.144,9.203,-3.883,0.0,0.0,11.73
3.395,0.0,8.862,-3.688,11.73,0.287,9.053,3.88,11.73,0.0,9.059,-3.883,0.0,0.0,17.595
3.4,-0.096,8.862,-3.736,17.595,0.383,9.005,3.928,11.73,0.0,8.916,-3.883,0.0,5.865,17.595
3.4050000000000002,-0.096,8.862,-3.688,17.595,0.431,9.053,3.88,11.73,0.144,8.916,-3.883,0.0,5.865,17.595
3.41,-0.096,8.909,-3.593,11.73,0.431,9.101,3.736,11.73,0.144,9.059,-3.739,0.0,5.865,17.595
3.415,-0.096,9.005,-3.593,11.73,0.431,9.149,3.688,11.73,0.144,9.059,-3.739,0.0,5.865,11.73
3.42,-0.192,9.005,-3.593,11.73,0.527,9.245,3.784,5.865,0.288,9.203,-3.739,0.0,5.865,11.73
3.4250000000000003,-0.287,9.197,-3.593,11.73,0.623,9.484,3.736,5.865,0.431,9.491,-3.739,0.0,5.865,11.73
3.43,-0.24,9.341,-3.545,11.73,0.527,9.628,3.64,5.865,0.288,9.635,-3.595,0.0,5.865,11.73
3.435,-0.144,9.436,-3.401,5.865,0.479,9.676,3.545,0.0,0.288,9.635,-3.595,0.0,5.865,5.865
3.44,-0.144,9.388,-3.353,5.865,0.527,9.628,3.497,0.0,0.431,9.635,-3.451,0.0,5.865,5.865
3.4450000000000003,-0.24,9.341,-3.353,5.865,0.623,9.532,3.497,0.0,0.575,9.491,-3.451,0.0,5.865,5.865
3.45,-0.287,9.293,-3.353,5.865,0.671,9.388,3.497,0.0,0.575,9.347,-3.451,0.0,0.0,5.865
3.455,-0.287,9.149,-3.353,5.865,0.671,9.293,3.545,0.0,0.431,9.203,-3.595,0.0,0.0,5.865
3.46,-0.287,9.053,-3.449,5.865,0.623,9.197,3.64,0.0,0.431,9.059,-3.595,0.0,0.0,11.73
3.465,-0.287,8.957,-3.497,5.865,0.623,9.101,3.64,0.0,0.431,8.916,-3.595,0.0,0.0,5.865
3.47,-0.287,8.862,-3.449,5.865,0.575,9.005,3.593,5.865,0.431,8.916,-3.595,0.0,0.0,11.73
3.475,-0.24,8.766,-3.449,5.865,0.575,8.957,3.64,5.865,0.431,8.916,-3.595,-5.865,0.0,11.73
3.48,-0.287,8.766,-3.497,5.865,0.623,9.053,3.688,5.865,0.575,9.059,-3.739,-5.865,0.0,11.73
3.485,-0.335,8.909,-3.545,11.73,0.671,9.245,3.688,5.865,0.431,9.347,-3.739,-5.865,0.0,11.73
3.49,-0.24,9.101,-3.497,11.73,0.527,9.388,3.64,5.865,0.288,9.491,-3.595,-5.865,0.0,17.595
3.495,-0.144,9.197,-3.449,5.865,0.431,9.436,3.545,5.865,0.288,9.347,-3.595,0.0,0.0,17.595
3.5,-0.096,9.149,-3.401,5.865,0.479,9.341,3.593,5.865,0.288,9.347,-3.595,0.0,0.0,11.73
3.505,-0.144,9.101,-3.401,11.73,0.527,9.245,3.593,5.865,0.431,9.203,-3.595,0.0,0.0,11.73
3.5100000000000002,-0.192,9.053,-3.449,5.865,0.575,9.245,3.64,0.0,0.431,9.203,-3.595,0.0,0.0,11.73
3.515,-0.192,9.005,-3.497,5.865,0.527,9.149,3.688,0.0,0.431,9.203,-3.739,0.0,0.0,11.73
3.52,-0.192,8.957,-3.545,-0.0,0.479,9.005,3.688,0.0,0.288,9.059,-3.739,-5.865,0.0,11.73
3.525,-0.192,8.909,-3.545,-0.0,0.431,9.149,3.736,-5.865,0.288,9.059,-3.739,-5.865,0.0,5.865
3.5300000000000002,-0.144,9.005,-3.593,-5.865,0.479,9.197,3.784,-11.73,0.288,9.203,-3.739,-5.865,0.0,5.865
3.535,-0.144,9.101,-3.593,-5.865,0.479,9.293,3.736,-11.73,0.288,9.203,-3.739,-5.865,0.0,0.0
3.54,-0.192,9.053,-3.545,-5.865,0.527,9.341,3.688,-11.73,0.431,9.347,-3.739,-5.865,0.0,0.0
3.545,-0.527,8.191,-3.497,-11.73,0.24,10.778,3.593,-17.595,0.288,9.922,-3.595,-5.865,0.0,0.0
3.5500000000000003,0.048,9.772,-3.497,-11.73,0.527,8.909,3.736,-17.595,0.431,9.347,-3.739,-11.73,-5.865,0.0
3.555,0.0,9.388,-3.497,-11.73,0.527,9.005,3.64,-17.595,0.431,9.059,-3.595,-11.73,-5.865,-5.865
3.56,-0.144,9.005,-3.401,-11.73,0.527,9.197,3.593,-17.595,0.431,9.059,-3.595,-11.73,-5.865,-5.865
3.565,-0.096,9.149,-3.497,-11.73,0.575,8.909,3.688,-17.595,0.431,8.916,-3.739,-11.73,-5.865,0.0
3.5700000000000003,-0.192,9.005,-3.593,-11.73,0.575,9.005,3.784,-17.595,0.431,8.916,-3.739,-5.865,-5.865,-5.865
3.575,-0.24,8.862,-3.593,-11.73,0.527,9.005,3.736,-17.595,0.431,8.916,-3.739,-5.865,-5.865,-5.865
3.58,-0.144,8.814,-3.545,-11.73,0.479,9.005,3.736,-17.595,0.431,8.916,-3.739,-5.865,-5.865,-5.865
3.585,-0.192,8.814,-3.545,-11.73,0.527,9.005,3.688,-17.595,0.431,8.916,-3.739,-11.73,-5.865,-5.865
3.59,-0.24,8.814,-3.497,-11.73,0.623,9.005,3.688,-17.595,0.575,9.059,-3.739,-11.73,-5.865,-5.865
3.595,-0.287,8.814,-3.545,-11.73,0.623,9.149,3.688,-17.595,0.575,9.059,-3.739,-11.73,-5.865,0.0
3.6,-0.287,8.862,-3.593,-11.73,0.575,9.245,3.736,-17.595,0.431,9.203,-3.739,-11.73,-5.865,0.0
3.605,-0.24,9.005,-3.593,-11.73,0.527,9.293,3.688,-17.595,0.431,9.491,-3.739,-11.73,-5.865,0.0
3.61,-0.144,9.149,-3.593,-11.73,0.479,9.532,3.688,-11.73,0.431,9.491,-3.739,-5.865,-5.865,0.0
3.615,-0.144,9.293,-3.545,-5.865,0.431,9.58,3.64,-11.73,0.288,9.778,-3.739,-5.865,-5.865,0.0
3.62,-0.048,9.436,-3.545,-5.865,0.335,9.772,3.688,-11.73,0.288,9.778,-3.739,-5.865,-5.865,5.865
3.625,0.048,9.58,-3.593,-0.0,0.24,9.915,3.784,-5.865,0.288,9.778,-3.739,0.0,-5.865,5.865
3.63,0.144,9.628,-3.593,-0.0,0.096,9.915,3.736,0.0,0.0,9.778,-3.739,0.0,0.0,5.865
3.6350000000000002,0.144,9.532,-3.593,5.865,0.144,9.772,3.784,0.0,0.0,9.778,-3.739,0.0,0.0,5.865
3.64,0.0,9.484,-3.688,5.865,0.287,9.676,3.832,5.865,0.288,9.635,-3.883,0.0,0.0,11.73
3.645,0.048,9.436,-3.784,5.865,0.24,9.628,4.024,5.865,0.288,9.491,-4.026,0.0,0.0,5.865
3.65,0.0,9.388,-3.88,5.865,0.24,9.484,4.072,0.0,0.144,9.347,-4.17,0.0,0.0,5.865
3.6550000000000002,0.096,9.245,-3.928,5.865,0.144,9.293,4.072,0.0,0.0,9.203,-4.17,0.0,0.0,5.865
3.66,0.096,9.101,-3.928,5.865,0.192,9.197,4.024,0.0,0.0,9.059,-4.026,0.0,0.0,5.865
3.665,0.096,9.053,-3.832,-0.0,0.192,9.101,4.024,0.0,0.144,8.916,-4.026,0.0,0.0,5.865
3.67,0.096,8.957,-3.784,-0.0,0.287,9.005,3.928,-5.865,0.288,8.772,-3.883,0.0,0.0,0.0
3.6750000000000003,0.0,8.909,-3.688,-0.0,0.383,8.957,3.832,-5.865,0.431,8.772,-3.739,0.0,0.0,0.0
3.68,-0.048,8.814,-3.545,-5.865,0.383,8.909,3.736,-11.73,0.431,8.772,-3.739,-5.865,0.0,-5.865
3.685,-0.048,8.766,-3.497,-5.865,0.383,8.957,3.688,-11.73,0.431,8.916,-3.739,-5.865,0.0,-5.865
3.69,-0.048,8.718,-3.497,-5.865,0.383,8.957,3.688,-11.73,0.431,9.059,-3.595,-5.865,0.0,-5.865
3.6950000000000003,-0.096,8.718,-3.545,-5.865,0.383,9.005,3.688,-11.73,0.431,9.059,-3.739,-5.865,0.0,-5.865
3.7,-0.096,8.67,-3.545,-5.865,0.383,8.957,3.736,-5.865,0.288,9.059,-3.739,-5.865,0.0,0.0
3.705,-0.048,8.622,-3.593,-0.0,0.335,8.909,3.736,-5.865,0.288,8.916,-3.739,-5.865,0.0,0.0
3.71,-0.048,8.622,-3.593,-0.0,0.335,8.862,3.736,0.0,0.288,8.916,-3.739,0.0,0.0,0.0
3.715,-0.048,8.67,-3.593,-0.0,0.335,8.909,3.784,0.0,0.288,8.916,-3.739,0.0,0.0,5.865
3.72,-0.048,8.718,-3.593,-0.0,0.383,8.957,3.736,0.0,0.288,8.916,-3.739,0.0,0.0,5.865
3.725,-0.048,8.814,-3.593,5.865,0.383,9.005,3.688,0.0,0.431,8.916,-3.739,0.0,0.0,5.865
3.73,-0.048,8.862,-3.545,5.865,0.383,9.101,3.688,0.0,0.431,9.059,-3.595,0.0,0.0,5.865
3.735,-0.048,8.909,-3.497,5.865,0.383,9.101,3.64,0.0,0.431,9.059,-3.595,0.0,0.0,5.865
3.74,-0.048,8.957,-3.497,-0.0,0.383,9.149,3.64,0.0,0.288,9.059,-3.595,0.0,0.0,0.0
3.745,-0.048,9.005,-3.497,-0.0,0.383,9.197,3.688,-5.865,0.431,9.059,-3.595,0.0,0.0,0.0
3.75,-0.048,9.053,-3.545,-0.0,0.383,9.245,3.736,0.0,0.431,9.203,-3.739,0.0,0.0,0.0
3.755,-0.048,9.101,-3.593,-0.0,0.383,9.245,3.784,-5.865,0.431,9.203,-3.739,0.0,0.0,0.0
3.7600000000000002,-0.096,9.101,-3.545,-0.0,0.383,9.197,3.688,-5.865,0.288,9.059,-3.739,-5.865,0.0,0.0
3.765,-0.096,9.053,-3.497,-0.0,0.383,9.197,3.688,-5.865,0.288,9.059,-3.739,-5.865,0.0,0.0
3.77,-0.096,9.005,-3.545,-0.0,0.431,9.149,3.688,-5.865,0.431,9.059,-3.739,-5.865,0.0,0.0
3.775,-0.096,8.909,-3.593,-0.0,0.383,9.101,3.784,-5.865,0.288,9.059,-3.739,-5.865,0.0,0.0
3.7800000000000002,-0.096,8.814,-3.688,-0.0,0.383,9.005,3.88,-5.865,0.288,8.916,-3.883,-5.865,0.0,0.0
3.785,-0.096,8.766,-3.736,-0.0,0.383,8.957,3.928,-5.865,0.288,8.916,-3.883,-5.865,0.0,0.0
3.79,-0.096,8.718,-3.784,-0.0,0.335,8.957,3.928,-5.865,0.288,8.916,-3.883,-5.865,0.0,0.0
3.795,-0.096,8.718,-3.784,-0.0,0.335,8.957,3.976,-5.865,0.288,8.916,-4.026,-5.865,0.0,0.0
3.8000000000000003,-0.048,8.766,-3.784,-0.0,0.383,9.005,3.928,-5.865,0.431,8.916,-3.883,-5.865,0.0,0.0
3.805,-0.096,8.814,-3.736,-0.0,0.479,9.053,3.88,0.0,0.431,8.916,-3.883,-5.865,0.0,0.0
3.81,-0.144,8.862,-3.688,-0.0,0.479,9.149,3.88,0.0,0.575,9.203,-3.883,-5.865,0.0,5.865
3.815,-0.144,8.909,-3.736,-0.0,0.431,9.149,3.88,0.0,0.431,9.203,-3.883,-5.865,0.0,5.865
3.8200000000000003,-0.048,8.862,-3.688,5.865,0.335,9.149,3.88,0.0,0.288,9.203,-3.883,-5.865,0.0,5.865
3.825,-0.048,8.862,-3.736,5.865,0.335,9.149,3.88,0.0,0.288,9.203,-3.883,-5.865,0.0,5.865
3.83,-0.048,8.909,-3.688,5.865,0.383,9.149,3.832,0.0,0.431,9.203,-3.883,0.0,0.0,5.865
3.835,-0.096,8.909,-3.688,5.865,0.431,9.149,3.832,0.0,0.431,9.203,-3.883,0.0,0.0,5.865
3.84,-0.096,8.957,-3.688,5.865,0.479,9.197,3.832,0.0,0.431,9.059,-3.739,0.0,0.0,5.865
3.845,-0.144,9.005,-3.64,5.865,0.479,9.197,3.784,0.0,0.431,9.059,-3.739,0.0,0.0,5.865
3.85,-0.144,9.101,-3.593,5.865,0.479,9.245,3.784,0.0,0.431,9.203,-3.739,0.0,0.0,5.865
3.855,-0.096,9.149,-3.593,5.865,0.383,9.341,3.736,0.0,0.431,9.347,-3.739,-5.865,0.0,11.73
3.86,-0.048,9.245,-3.497,5.865,0.335,9.436,3.593,0.0,0.431,9.491,-3.595,-5.865,-5.865,5.865
3.865,-0.048,9.341,-3.401,5.865,0.383,9.58,3.545,0.0,0.431,9.491,-3.595,-5.865,-5.865,11.73
3.87,-0.096,9.436,-3.401,5.865,0.383,9.724,3.545,0.0,0.288,9.635,-3.451,-5.865,-5.865,5.865
3.875,-0.096,9.532,-3.401,-0.0,0.383,9.867,3.593,0.0,0.431,9.778,-3.595,-5.865,0.0,5.865
3.88,-0.096,9.628,-3.353,-0.0,0.431,9.963,3.497,0.0,0.431,10.066,-3.451,-5.865,-5.865,0.0
3.8850000000000002,-0.144,9.772,-3.305,-0.0,0.383,10.155,3.401,-5.865,0.288,10.354,-3.451,0.0,0.0,0.0
3.89,-0.048,9.867,-3.257,-0.0,0.335,10.251,3.401,-5.865,0.288,10.354,-3.451,0.0,0.0,0.0
3.895,0.0,9.963,-3.305,-5.865,0.287,10.394,3.449,-11.73,0.288,10.497,-3.451,0.0,0.0,-5.865
3.9,-0.048,10.011,-3.401,-5.865,0.335,10.394,3.593,-11.73,0.288,10.641,-3.595,0.0,0.0,-5.865
3.9050000000000002,-0.144,10.011,-3.545,-11.73,0.431,10.346,3.736,-11.73,0.431,10.497,-3.739,0.0,0.0,-11.73
3.91,-0.192,10.011,-3.593,-11.73,0.383,10.251,3.736,-17.595,0.288,10.354,-3.739,11.73,0.0,-11.73
3.915,-0.096,9.963,-3.593,-11.73,0.335,10.203,3.736,-17.595,0.288,10.21,-3.739,11.73,0.0,-11.73
3.92,-0.048,10.107,-3.545,-11.73,0.335,10.346,3.64,-17.595,0.288,10.354,-3.595,11.73,0.0,-11.73
3.9250000000000003,-0.048,10.299,-3.401,-11.73,0.383,10.49,3.497,-17.595,0.431,10.354,-3.451,11.73,0.0,-11.73
3.93,-0.144,10.346,-3.161,-11.73,0.527,10.346,3.257,-17.595,0.575,10.066,-3.307,11.73,0.0,-11.73
3.935,0.0,10.394,-3.018,-11.73,0.527,10.346,3.114,-17.595,0.719,9.922,-3.02,11.73,0.0,-11.73
3.94,0.048,10.346,-2.778,-17.595,0.431,10.251,2.874,-17.595,0.719,9.778,-2.876,0.0,0.0,-11.73
3.9450000000000003,0.096,10.251,-2.539,-11.73,0.431,10.107,2.635,-17.595,0.575,9.778,-2.588,0.0,-5.865,-11.73
3.95,0.048,10.107,-2.299,-11.73,0.527,9.963,2.443,-17.595,0.863,9.491,-2.445,-5.865,-5.865,-11.73
3.955,0.192,10.155,-2.203,-11.73,0.479,9.772,2.395,-17.595,1.007,9.203,-2.301,-11.73,-11.73,-17.595
3.96,0.766,10.299,-2.443,-17.595,0.048,9.963,2.73,-23.46,1.007,8.916,-2.588,-17.595,-17.595,-17.595
3.9650000000000003,-0.24,9.915,-1.677,-17.595,1.389,9.388,0.623,-23.46,0.719,8.34,-0.719,-23.46,-29.326,-17.595
3.97,0.144,8.718,-0.527,-23.46,0.383,9.005,1.102,-29.326,1.15,9.347,-0.863,-35.191,-29.326,-23.46
3.975,0.048,9.005,-1.389,-29.326,0.623,9.101,1.437,-35.191,1.007,8.916,-1.438,-35.191,-35.191,-29.326
3.98,-0.24,9.293,-0.862,-35.191,0.862,9.197,1.15,-41.056,1.15,8.916,-1.15,-35.191,-41.056,-35.191
3.985,-0.192,8.862,-1.245,-35.191,0.623,8.909,1.437,-41.056,0.863,8.916,-1.438,-41.056,-46.921,-35.191
3.99,-0.335,8.287,-1.006,-35.191,1.198,8.909,0.814,-41.056,1.294,9.491,-0.719,-41.056,-46.921,-35.191
3.995,-1.437,7.041,0.958,-35.191,1.533,8.239,-0.958,-41.056,1.438,9.635,1.294,-35.191,-46.921,-35.191
4.0,-0.766,7.089,0.862,-29.326,1.293,8.239,-0.527,-35.191,1.582,9.347,0.719,-17.595,-52.786,-29.326
4.005,-0.766,7.76,0.287,-29.326,1.389,8.622,0.096,-41.056,1.582,9.203,-0.0,-5.865,-52.786,-35.191
4.01,-0.814,8.335,-0.479,-35.191,1.198,9.005,0.91,-41.056,1.438,9.347,-0.863,0.0,-58.651,-35.191
4.015,-0.575,8.814,-1.15,-29.326,0.958,9.245,1.485,-35.191,1.15,9.347,-1.438,11.73,-58.651,-23.46
4.0200000000000005,-0.287,9.101,-1.581,-29.326,0.719,9.293,1.916,-35.191,0.863,9.203,-1.869,17.595,-64.516,-23.46
4.025,-0.192,9.245,-1.964,-23.46,0.575,9.293,2.299,-29.326,0.719,9.059,-2.301,17.595,-64.516,-23.46
4.03,-0.144,9.293,-2.443,-23.46,0.623,9.293,2.778,-35.191,0.719,8.916,-2.732,17.595,-70.381,-23.46
4.035,-0.287,9.341,-2.874,-29.326,0.719,9.341,3.209,-35.191,0.863,8.916,-3.164,11.73,-70.381,-29.326
4.04,-0.192,9.341,-3.305,-29.326,0.671,9.293,3.688,-35.191,0.863,8.916,-3.739,0.0,-70.381,-29.326
4.045,-0.144,9.341,-3.928,-29.326,0.623,9.293,4.359,-35.191,0.863,8.916,-4.314,0.0,-76.246,-23.46
4.05,-0.144,9.293,-4.79,-29.326,0.527,9.341,5.269,-29.326,0.719,9.059,-5.321,0.0,-76.246,-23.46
4.055,-0.048,9.341,-5.844,-23.46,0.335,9.388,6.419,-29.326,0.288,9.059,-6.471,-5.865,-76.246,-23.46
4.0600000000000005,0.096,9.436,-7.089,-23.46,0.0,9.532,7.712,-29.326,-0.288,9.203,-7.909,-5.865,-82.111,-23.46
4.065,0.24,9.676,-8.383,-23.46,-0.383,9.676,9.005,-23.46,-0.863,9.203,-9.059,-11.73,-76.246,-23.46
4.07,0.479,9.82,-9.58,-17.595,-0.814,9.724,10.059,-23.46,-1.438,9.203,-10.21,-11.73,-76.246,-17.595
4.075,0.671,9.915,-10.49,-17.595,-1.102,9.724,10.873,-23.46,-1.869,9.203,-11.073,-23.46,-64.516,-17.595
4.08,0.766,9.82,-11.161,-23.46,-1.245,9.676,11.496,-29.326,-2.157,9.203,-11.648,-29.326,-58.651,-23.46
4.085,0.719,9.532,-11.592,-23.46,-1.293,9.532,11.831,-29.326,-2.301,9.203,-11.935,-29.326,-46.921,-23.46
4.09,0.671,9.101,-11.736,-29.326,-1.198,9.245,11.879,-35.191,-2.301,9.203,-12.079,-35.191,-35.191,-23.46
4.095,0.527,8.526,-11.688,-29.326,-1.054,8.909,11.783,-35.191,-2.157,9.059,-11.935,-35.191,-17.595,-29.326
4.1,0.335,8.143,-11.448,-29.326,-0.91,8.67,11.544,-35.191,-2.013,8.916,-11.648,-35.191,-5.865,-23.46
4.105,0.192,7.856,-11.209,-29.326,-0.766,8.43,11.304,-29.326,-1.869,8.772,-11.36,-29.326,11.73,-23.46
4.11,0.144,7.568,-10.873,-23.46,-0.719,8.143,10.969,-29.326,-1.726,8.484,-11.073,-23.46,23.46,-23.46
4.115,0.144,7.377,-10.586,-23.46,-0.671,7.856,10.634,-23.46,-1.582,8.053,-10.641,-17.595,35.191,-17.595
4.12,0.192,7.377,-10.155,-17.595,-0.719,7.664,10.203,-17.595,-1.582,7.621,-10.354,-11.73,52.786,-11.73
4.125,0.431,7.329,-9.676,-11.73,-0.671,7.52,9.724,-17.595,-1.294,7.334,-9.778,-11.73,58.651,-11.73
4.13,0.24,7.377,-9.101,-11.73,-0.479,7.472,9.149,-11.73,-1.007,7.334,-9.203,-11.73,70.381,-5.865
4.135,0.192,7.52,-8.478,-5.865,-0.383,7.616,8.478,-11.73,-1.007,7.334,-8.484,-11.73,76.246,-5.865
4.14,0.287,7.664,-7.712,-5.865,-0.431,7.712,7.712,-5.865,-1.007,7.478,-7.765,-11.73,87.977,-5.865
4.1450000000000005,0.383,7.76,-6.754,-5.865,-0.431,7.808,6.61,-5.865,-0.719,7.621,-6.615,-17.595,93.842,0.0
4.15,0.431,7.856,-5.461,-5.865,-0.24,7.951,5.269,-11.73,-0.431,7.909,-5.321,-23.46,99.707,-5.865
4.155,0.287,7.856,-4.119,-11.73,0.096,8.047,3.928,-17.595,0.144,8.053,-4.026,-23.46,99.707,-11.73
4.16,0.144,7.951,-2.826,-17.595,0.479,8.143,2.682,-23.46,0.863,8.197,-2.732,-23.46,99.707,-17.595
4.165,0.048,7.999,-1.629,-17.595,0.719,8.287,1.437,-17.595,1.294,8.34,-1.438,-23.46,93.842,-17.595
4.17,0.048,8.191,-0.335,-17.595,0.814,8.383,0.192,-17.595,1.438,8.34,-0.144,-23.46,87.977,-11.73
4.175,0.192,8.383,0.814,-17.595,0.814,8.526,-0.91,-17.595,1.582,8.484,1.15,-23.46,82.111,-11.73
4.18,0.24,8.526,1.82,-11.73,0.814,8.622,-1.868,-17.595,1.726,8.484,2.013,-23.46,70.381,-11.73
4.1850000000000005,0.287,8.718,2.635,-17.595,0.766,8.718,-2.682,-17.595,1.582,8.484,2.876,-23.46,58.651,-11.73
4.19,0.383,8.862,3.305,-17.595,0.719,8.718,-3.305,-17.595,1.582,8.484,3.451,-23.46,46.921,-11.73
4.195,0.335,8.814,3.784,-17.595,0.814,8.718,-3.784,-23.46,1.726,8.628,4.026,-29.326,35.191,-17.595
4.2,0.287,8.766,4.263,-17.595,0.814,8.814,-4.215,-23.46,1.726,8.772,4.458,-35.191,17.595,-11.73
4.205,0.335,8.814,4.598,-17.595,0.766,8.957,-4.503,-17.595,1.582,9.059,4.745,-35.191,5.865,-11.73
4.21,0.383,8.957,4.79,-11.73,0.671,9.245,-4.694,-17.595,1.438,9.491,4.889,-35.191,-5.865,-11.73
4.215,0.575,9.341,4.838,-11.73,0.479,9.628,-4.694,-17.595,1.294,9.778,4.889,-29.326,-17.595,-11.73
4.22,0.719,9.676,4.646,-11.73,0.335,9.963,-4.407,-17.595,1.15,10.21,4.602,-29.326,-29.326,-11.73
4.225,0.766,10.011,4.263,-11.73,0.287,10.203,-3.976,-17.595,1.007,10.354,4.026,-29.326,-41.056,-11.73
4.23,0.766,9.963,3.64,-17.595,0.287,10.203,-3.305,-23.46,1.007,10.354,3.451,-29.326,-52.786,-17.595
4.235,0.575,9.867,2.97,-17.595,0.24,10.107,-2.539,-23.46,0.719,10.354,2.732,-23.46,-64.516,-17.595
4.24,0.719,9.772,2.156,-17.595,0.0,10.107,-1.772,-29.326,0.431,10.497,1.869,-23.46,-76.246,-23.46
4.245,0.623,9.628,1.293,-23.46,0.096,10.011,-0.862,-35.191,0.431,10.354,0.863,-17.595,-82.111,-23.46
4.25,0.479,9.484,0.24,-29.326,0.144,9.82,0.287,-35.191,0.431,10.066,-0.288,-11.73,-87.977,-23.46
4.255,0.431,9.341,-0.958,-29.326,0.144,9.676,1.533,-35.191,0.431,9.922,-1.438,-5.865,-93.842,-23.46
4.26,0.431,9.341,-2.156,-23.46,0.0,9.628,2.73,-29.326,0.288,9.778,-2.732,-5.865,-93.842,-23.46
4.265,0.527,9.341,-3.449,-23.46,-0.24,9.628,4.072,-29.326,-0.288,9.635,-4.17,0.0,-99.707,-23.46
4.2700000000000005,0.623,9.484,-4.838,-23.46,-0.479,9.676,5.461,-23.46,-0.719,9.491,-5.608,0.0,-99.707,-23.46
4.275,0.814,9.628,-6.227,-17.595,-0.719,9.628,6.85,-23.46,-1.007,9.347,-7.046,0.0,-99.707,-17.595
4.28,0.862,9.676,-7.52,-17.595,-0.91,9.532,8.095,-23.46,-1.294,9.059,-8.197,0.0,-99.707,-17.595
4.285,0.91,9.532,-8.622,-17.595,-1.15,9.293,9.053,-23.46,-1.726,8.772,-9.203,-5.865,-93.842,-17.595
4.29,0.958,9.197,-9.388,-17.595,-1.293,9.005,9.772,-23.46,-2.013,8.484,-9.922,-11.73,-87.977,-17.595
4.295,0.91,8.718,-9.963,-17.595,-1.293,8.67,10.299,-23.46,-2.157,8.34,-10.497,-17.595,-76.246,-17.595
4.3,0.766,8.191,-10.346,-17.595,-1.198,8.239,10.634,-23.46,-2.013,8.053,-10.785,-23.46,-64.516,-17.595
4.305,0.671,7.664,-10.586,-17.595,-1.102,7.856,10.825,-23.46,-2.013,7.909,-10.929,-23.46,-58.651,-17.595
4.3100000000000005,0.575,7.329,-10.682,-11.73,-0.958,7.568,10.825,-17.595,-1.726,7.621,-10.929,-23.46,-46.921,-11.73
4.315,0.527,7.137,-10.634,-11.73,-0.91,7.425,10.825,-11.73,-1.582,7.334,-10.929,-23.46,-35.191,-11.73
4.32,0.527,7.137,-10.634,-5.865,-0.814,7.425,10.778,-11.73,-1.438,7.334,-10.929,-17.595,-23.46,-5.865
4.325,0.623,7.233,-10.49,-5.865,-0.91,7.377,10.682,-5.865,-1.582,7.19,-10.785,-17.595,-17.595,0.0
4.33,0.719,7.233,-10.346,-0.0,-1.006,7.281,10.49,-5.865,-1.582,7.046,-10.497,-23.46,-5.865,0.0
4.335,0.766,7.233,-10.107,-0.0,-0.958,7.233,10.203,-5.865,-1.438,6.902,-10.21,-23.46,0.0,0.0
4.34,0.719,7.137,-9.772,-0.0,-0.814,7.089,9.867,-5.865,-1.294,6.759,-9.922,-23.46,5.865,0.0
4.345,0.575,6.946,-9.436,-5.865,-0.575,6.898,9.532,-5.865,-1.007,6.615,-9.491,-29.326,17.595,-5.865
4.3500000000000005,0.527,6.85,-9.053,-5.865,-0.575,6.85,9.149,-5.865,-0.863,6.471,-9.203,-35.191,17.595,-5.865
4.355,0.527,6.898,-8.526,-5.865,-0.527,6.85,8.574,-5.865,-0.719,6.471,-8.628,-35.191,23.46,0.0
4.36,0.575,6.658,-8.047,-0.0,-0.287,6.754,7.999,0.0,-0.575,6.615,-8.053,-41.056,29.326,0.0
4.365,0.719,6.802,-7.041,5.865,-0.479,6.993,7.089,0.0,-0.863,6.902,-7.046,-46.921,29.326,0.0
4.37,0.096,6.562,-6.706,-0.0,-0.096,7.089,6.802,-5.865,-0.431,7.334,-6.759,-46.921,35.191,0.0
4.375,0.287,6.802,-6.227,-0.0,-0.096,7.185,6.275,0.0,-0.288,7.334,-6.327,-41.056,35.191,0.0
4.38,0.814,6.993,-5.461,-0.0,-0.335,7.281,5.413,0.0,-0.144,7.19,-5.321,-35.191,41.056,5.865
4.385,-0.192,6.802,-4.982,5.865,0.431,7.089,5.125,5.865,0.288,7.478,-5.177,-35.191,41.056,11.73
4.39,0.096,6.419,-4.551,17.595,0.096,7.137,4.551,11.73,0.0,7.621,-4.458,-35.191,41.056,17.595
4.3950000000000005,0.383,6.802,-3.928,17.595,-0.24,7.425,4.024,17.595,-0.288,7.909,-4.026,-29.326,41.056,17.595
4.4,0.479,7.185,-3.64,17.595,-0.192,7.808,3.784,11.73,-0.144,8.197,-3.739,-23.46,41.056,17.595
4.405,0.527,7.664,-3.449,11.73,-0.144,8.191,3.545,11.73,0.0,8.484,-3.451,-17.595,41.056,17.595
4.41,0.671,8.143,-3.209,11.73,-0.144,8.526,3.353,5.865,0.0,8.628,-3.307,-11.73,35.191,11.73
4.415,0.575,8.287,-3.066,11.73,0.0,8.622,3.209,11.73,0.288,8.772,-3.164,-5.865,35.191,17.595
4.42,0.575,8.478,-2.97,17.595,-0.144,8.718,3.114,11.73,0.144,8.772,-3.02,-5.865,29.326,17.595
4.425,0.862,8.718,-2.826,11.73,-0.335,8.862,3.018,11.73,0.0,8.772,-3.02,-5.865,29.326,17.595
4.43,0.862,8.909,-2.874,17.595,-0.287,8.957,3.066,11.73,0.0,8.772,-3.02,-5.865,23.46,17.595
4.4350000000000005,2.97,15.041,-1.677,11.73,-2.443,14.657,0.719,5.865,-1.007,13.517,-0.431,-11.73,17.595,11.73
4.44,3.736,14.753,0.24,-11.73,-2.922,15.663,-0.287,-23.46,-3.164,16.106,0.288,-23.46,0.0,-17.595
4.445,1.054,12.167,-0.527,-23.46,0.958,10.825,1.485,-29.326,1.726,10.785,-1.438,-23.46,-5.865,-23.46
4.45,-1.006,8.574,-2.539,-17.595,1.772,7.904,3.066,-23.46,2.732,7.334,-3.02,-23.46,-11.73,-17.595
4.455,0.766,7.856,-2.97,-23.46,-1.006,7.951,2.826,-23.46,-1.15,7.478,-2.732,-29.326,-23.46,-23.46
4.46,1.581,8.287,-2.299,-11.73,-1.916,9.149,2.539,-11.73,-2.732,9.922,-2.588,-29.326,-29.326,-5.865
4.465,1.006,8.862,-2.874,-5.865,-0.766,9.58,3.353,-5.865,-1.15,10.21,-3.451,-23.46,-23.46,0.0
4.47,0.719,9.388,-3.832,-5.865,-0.24,9.532,4.119,-5.865,0.0,9.203,-4.17,-17.595,-17.595,-5.865
4.4750000000000005,1.102,9.484,-4.072,-5.865,-0.719,9.388,4.215,-11.73,-0.575,9.059,-4.17,-17.595,-17.595,-5.865
4.48,1.293,9.197,-4.167,-0.0,-1.006,9.388,4.407,-5.865,-1.007,9.491,-4.314,-23.46,-17.595,0.0
4.485,1.15,9.005,-4.311,-0.0,-0.814,9.341,4.551,-5.865,-0.863,9.491,-4.602,-17.595,-23.46,0.0
4.49,1.054,8.909,-4.598,-0.0,-0.623,9.197,4.886,-5.865,-0.575,9.347,-4.889,-17.595,-23.46,0.0
4.495,0.862,8.67,-4.982,-0.0,-0.575,8.957,5.317,-5.865,-0.719,9.203,-5.321,-11.73,-23.46,0.0
4.5,0.862,8.287,-5.413,-5.865,-0.671,8.574,5.7,-5.865,-0.863,8.772,-5.752,-11.73,-23.46,0.0
4.505,0.766,7.951,-5.844,-0.0,-0.719,8.239,6.131,-5.865,-1.007,8.484,-6.183,-5.865,-23.46,0.0
4.51,0.719,7.664,-6.131,-0.0,-0.814,7.999,6.323,-5.865,-1.294,8.197,-6.327,-5.865,-17.595,0.0
4.515,0.766,7.568,-6.179,-0.0,-0.862,7.856,6.371,-5.865,-1.294,8.053,-6.327,0.0,-11.73,0.0
4.5200000000000005,0.766,7.664,-6.083,-0.0,-0.766,7.951,6.275,-5.865,-1.15,8.053,-6.327,0.0,-5.865,0.0
4.525,0.814,7.76,-5.988,-0.0,-0.719,7.951,6.131,-5.865,-0.863,8.053,-6.183,0.0,-5.865,0.0
4.53,0.862,7.856,-5.748,-0.0,-0.671,8.047,5.892,-5.865,-0.863,7.909,-5.896,0.0,0.0,0.0
4.535,0.91,7.951,-5.509,-0.0,-0.671,8.047,5.604,-5.865,-0.719,7.909,-5.608,0.0,0.0,0.0
4.54,0.91,8.047,-5.269,-5.865,-0.623,8.143,5.413,-5.865,-0.719,7.909,-5.464,0.0,0.0,0.0
4.545,0.91,8.143,-5.125,-5.865,-0.575,8.239,5.269,-5.865,-0.575,8.053,-5.321,0.0,0.0,0.0
4.55,0.91,8.239,-4.982,-5.865,-0.575,8.239,5.077,-5.865,-0.575,7.909,-5.033,0.0,0.0,0.0
4.555,0.814,8.143,-4.742,-5.865,-0.527,8.191,4.934,-5.865,-0.575,8.053,-4.889,0.0,0.0,0.0
4.5600000000000005,0.814,8.143,-4.598,-0.0,-0.527,8.239,4.742,-5.865,-0.575,8.053,-4.745,-5.865,0.0,0.0
4.565,0.814,8.095,-4.503,-0.0,-0.527,8.239,4.646,-5.865,-0.575,8.197,-4.745,-5.865,0.0,0.0
4.57,0.766,8.191,-4.407,-0.0,-0.527,8.335,4.551,-5.865,-0.575,8.34,-4.602,-5.865,0.0,0.0
4.575,0.766,8.287,-4.311,-0.0,-0.479,8.43,4.407,-5.865,-0.431,8.34,-4.458,-5.865,0.0,0.0
4.58,0.766,8.478,-4.215,-0.0,-0.383,8.622,4.407,-5.865,-0.431,8.484,-4.458,-5.865,0.0,0.0
4.585,0.766,8.574,-4.263,-0.0,-0.431,8.718,4.407,-5.865,-0.431,8.628,-4.458,-11.73,0.0,0.0
4.59,0.766,8.67,-4.263,-0.0,-0.431,8.814,4.455,0.0,-0.431,8.628,-4.458,-11.73,-5.865,5.865
4.595,0.814,8.622,-4.359,-0.0,-0.479,8.718,4.551,0.0,-0.431,8.628,-4.602,-11.73,-5.865,5.865
4.6000000000000005,0.719,8.622,-4.407,5.865,-0.383,8.67,4.598,0.0,-0.431,8.628,-4.602,-11.73,-5.865,5.865
4.605,0.623,8.43,-4.503,5.865,-0.383,8.622,4.742,0.0,-0.431,8.628,-4.745,-11.73,-5.865,5.865
4.61,0.623,8.43,-4.646,5.865,-0.383,8.622,4.838,5.865,-0.575,8.628,-4.889,-11.73,-5.865,11.73
4.615,0.671,8.383,-4.742,5.865,-0.479,8.622,4.934,5.865,-0.575,8.628,-4.889,-11.73,-5.865,11.73
4.62,0.719,8.478,-4.79,5.865,-0.527,8.67,4.982,5.865,-0.575,8.628,-5.033,-11.73,-5.865,5.865
4.625,0.719,8.478,-4.886,5.865,-0.479,8.67,5.077,0.0,-0.575,8.628,-5.033,-11.73,-5.865,5.865
4.63,0.671,8.478,-4.934,5.865,-0.383,8.67,5.125,0.0,-0.431,8.628,-5.177,-11.73,0.0,5.865
4.635,0.671,8.43,-4.934,5.865,-0.431,8.67,5.077,0.0,-0.431,8.772,-5.033,-11.73,-5.865,5.865
4.64,0.671,8.383,-4.934,5.865,-0.431,8.67,5.077,0.0,-0.575,8.628,-5.177,-11.73,-5.865,5.865
4.6450000000000005,0.671,8.383,-5.03,5.865,-0.383,8.718,5.221,0.0,-0.431,8.772,-5.177,-11.73,-5.865,5.865
4.65,0.671,8.478,-5.077,5.865,-0.431,8.766,5.269,0.0,-0.431,8.772,-5.321,-5.865,-5.865,5.865
4.655,0.719,8.574,-5.077,5.865,-0.479,8.814,5.221,0.0,-0.575,8.916,-5.177,-5.865,0.0,5.865
4.66,0.766,8.574,-5.03,5.865,-0.527,8.862,5.173,0.0,-0.575,8.916,-5.177,-5.865,0.0,5.865
4.665,0.766,8.622,-5.03,5.865,-0.527,8.909,5.173,0.0,-0.575,8.916,-5.177,-5.865,0.0,5.865
4.67,0.814,8.718,-4.982,-0.0,-0.575,8.957,5.125,0.0,-0.575,9.059,-5.177,0.0,0.0,5.865
4.675,0.862,8.814,-4.982,5.865,-0.575,9.053,5.125,0.0,-0.719,9.059,-5.177,0.0,-5.865,5.865
4.68,0.91,8.909,-4.934,-0.0,-0.623,9.149,5.125,0.0,-0.719,9.203,-5.177,0.0,0.0,5.865
4.6850000000000005,0.958,9.005,-4.934,-0.0,-0.671,9.245,5.077,0.0,-0.719,9.203,-5.033,0.0,0.0,5.865
4.69,0.958,9.053,-4.934,-0.0,-0.719,9.341,5.077,-5.865,-0.719,9.347,-5.033,0.0,0.0,0.0
4.695,0.958,9.149,-4.886,-0.0,-0.719,9.388,5.077,-5.865,-0.719,9.491,-5.033,0.0,0.0,0.0
4.7,0.958,9.245,-4.886,-0.0,-0.671,9.484,5.077,-5.865,-0.719,9.635,-5.033,0.0,0.0,0.0
4.705,1.006,9.388,-4.982,-0.0,-0.719,9.676,5.173,-5.865,-0.719,9.635,-5.177,0.0,0.0,0.0
4.71,1.054,9.532,-4.982,-5.865,-0.719,9.867,5.125,-5.865,-0.719,9.922,-5.177,0.0,0.0,0.0
4.715,1.054,9.867,-5.03,-5.865,-0.814,10.251,5.125,-5.865,-0.719,10.354,-5.177,0.0,0.0,0.0
4.72,1.341,10.346,-4.694,-5.865,-1.006,10.825,4.646,-11.73,-0.863,10.929,-4.602,0.0,0.0,-5.865
4.7250000000000005,1.245,10.873,-4.503,-5.865,-0.958,11.209,4.79,-11.73,-0.863,11.216,-4.745,11.73,-5.865,-5.865
4.73,1.341,11.448,-4.886,-11.73,-0.958,11.736,4.982,-11.73,-0.863,11.648,-5.033,11.73,-5.865,-11.73
4.735,1.341,11.831,-4.551,-11.73,-1.054,12.167,4.694,-17.595,-1.007,12.223,-4.602,11.73,-5.865,-11.73
4.74,1.724,12.119,-4.598,-11.73,-1.245,12.215,4.742,-17.595,-1.15,12.223,-4.745,11.73,-5.865,-11.73
4.745,1.677,12.119,-4.598,-17.595,-1.293,12.215,4.742,-23.46,-1.294,12.223,-4.745,11.73,-11.73,-17.595
4.75,1.629,11.975,-4.598,-23.46,-1.245,12.071,4.694,-29.326,-1.294,12.079,-4.745,11.73,-11.73,-23.46
4.755,1.581,11.783,-4.551,-29.326,-1.15,11.831,4.694,-35.191,-1.15,11.792,-4.745,11.73,-11.73,-29.326
4.76,1.581,11.592,-4.503,-29.326,-1.15,11.64,4.598,-41.056,-1.007,11.504,-4.602,11.73,-11.73,-35.191
4.765,1.533,11.352,-4.407,-35.191,-1.102,11.4,4.551,-41.056,-1.15,11.36,-4.602,11.73,-17.595,-35.191
4.7700000000000005,1.485,11.017,-4.359,-41.056,-1.054,11.113,4.503,-46.921,-1.007,11.073,-4.458,11.73,-17.595,-41.056
4.775,1.389,10.682,-4.359,-41.056,-1.006,10.825,4.455,-46.921,-1.007,10.929,-4.458,11.73,-17.595,-46.921
4.78,1.341,10.442,-4.359,-46.921,-1.006,10.586,4.503,-52.786,-1.007,10.641,-4.458,11.73,-23.46,-46.921
4.785,1.341,10.203,-4.311,-46.921,-1.006,10.346,4.455,-52.786,-1.007,10.354,-4.458,11.73,-23.46,-46.921
4.79,1.293,9.867,-4.263,-46.921,-0.958,9.963,4.407,-52.786,-1.007,10.066,-4.458,17.595,-23.46,-46.921
4.795,1.15,9.388,-4.263,-46.921,-0.862,9.532,4.407,-52.786,-0.863,9.635,-4.458,17.595,-23.46,-52.786
4.8,1.102,9.005,-4.311,-52.786,-0.766,9.101,4.503,-58.651,-0.863,9.203,-4.458,17.595,-23.46,-52.786
4.805,1.054,8.622,-4.359,-52.786,-0.766,8.718,4.551,-58.651,-0.863,8.628,-4.602,17.595,-23.46,-52.786
4.8100000000000005,1.054,8.335,-4.455,-46.921,-0.766,8.383,4.646,-52.786,-0.719,8.34,-4.602,17.595,-23.46,-52.786
4.815,1.006,8.095,-4.551,-46.921,-0.719,8.143,4.742,-52.786,-0.719,8.053,-4.745,23.46,-23.46,-46.921
4.82,1.006,7.904,-4.646,-46.921,-0.719,7.951,4.886,-52.786,-0.719,7.765,-4.889,17.595,-23.46,-46.921
4.825,1.006,7.712,-4.742,-46.921,-0.719,7.76,4.982,-52.786,-0.719,7.621,-5.033,17.595,-23.46,-46.921
4.83,0.958,7.472,-4.886,-41.056,-0.623,7.52,5.173,-52.786,-0.719,7.478,-5.177,17.595,-23.46,-46.921
4.835,0.862,7.233,-5.125,-41.056,-0.575,7.281,5.365,-46.921,-0.575,7.19,-5.321,17.595,-23.46,-46.921
4.84,0.766,6.898,-5.317,-41.056,-0.527,6.946,5.556,-46.921,-0.575,6.902,-5.608,17.595,-23.46,-41.056
4.845,0.671,6.467,-5.509,-41.056,-0.479,6.514,5.748,-46.921,-0.575,6.327,-5.752,17.595,-23.46,-41.056
4.8500000000000005,0.575,6.083,-5.7,-41.056,-0.431,6.083,5.988,-41.056,-0.575,5.896,-5.896,17.595,-23.46,-41.056
4.855,0.527,5.748,-5.796,-35.191,-0.383,5.748,6.083,-41.056,-0.575,5.608,-6.04,17.595,-23.46,-35.191
4.86,0.479,5.365,-5.94,-35.191,-0.335,5.365,6.227,-41.056,-0.575,5.177,-6.327,11.73,-23.46,-35.191
4.865,0.383,5.03,-6.083,-29.326,-0.335,5.03,6.323,-35.191,-0.575,4.889,-6.327,11.73,-17.595,-23.46
4.87,0.287,4.79,-6.131,-23.46,-0.24,4.79,6.419,-29.326,-0.431,4.602,-6.471,11.73,-17.595,-23.46
4.875,0.287,4.503,-6.227,-23.46,-0.192,4.503,6.467,-23.46,-0.431,4.314,-6.471,0.0,-11.73,-17.595
4.88,0.24,4.215,-6.275,-17.595,-0.24,4.167,6.514,-23.46,-0.575,3.883,-6.471,0.0,-11.73,-17.595
4.885,0.24,3.928,-6.323,-11.73,-0.24,3.832,6.61,-17.595,-0.575,3.595,-6.615,0.0,-5.865,-11.73
4.89,0.192,3.401,-6.371,-5.865,-0.144,3.257,6.61,-11.73,-0.431,2.876,-6.615,0.0,-5.865,-5.865
4.8950000000000005,0.0,2.874,-6.371,-0.0,0.048,2.826,6.61,-5.865,-0.288,2.588,-6.615,0.0,0.0,0.0
4.9,-0.096,2.539,-6.323,5.865,0.144,2.539,6.562,5.865,-0.144,2.301,-6.615,0.0,5.865,11.73
4.905,-0.144,2.395,-6.275,17.595,0.24,2.443,6.562,11.73,0.0,2.157,-6.471,-5.865,5.865,17.595
4.91,-0.192,2.347,-6.179,23.46,0.192,2.491,6.467,23.46,0.0,2.157,-6.471,-5.865,11.73,29.326
4.915,-0.096,2.491,-6.131,35.191,0.192,2.635,6.419,35.191,0.0,2.445,-6.471,-11.73,11.73,41.056
4.92,-0.096,2.826,-6.179,41.056,0.192,3.066,6.419,41.056,0.0,2.876,-6.471,-11.73,17.595,46.921
4.925,-0.048,3.161,-6.083,46.921,0.144,3.305,6.371,46.921,0.0,3.164,-6.327,-11.73,17.595,46.921
4.93,0.0,3.257,-6.083,52.786,0.192,3.353,6.323,46.921,0.0,3.164,-6.327,-11.73,23.46,52.786
4.9350000000000005,-0.192,3.161,-6.083,52.786,0.287,3.401,6.323,52.786,0.144,3.451,-6.327,-11.73,23.46,52.786
4.94,-0.24,3.161,-5.94,58.651,0.335,3.401,6.131,52.786,0.144,3.451,-6.183,-11.73,23.46,58.651
4.945,-0.287,3.161,-5.796,58.651,0.479,3.401,6.035,52.786,0.288,3.451,-6.04,-11.73,23.46,58.651
4.95,-0.479,3.305,-5.7,58.651,0.575,3.64,5.892,58.651,0.431,3.595,-5.896,-11.73,29.326,64.516
4.955,-0.383,3.497,-5.509,64.516,0.527,3.736,5.652,58.651,0.431,3.739,-5.608,-11.73,29.326,64.516
4.96,-0.431,3.64,-5.317,64.516,0.623,3.88,5.509,64.516,0.575,3.883,-5.464,-11.73,29.326,70.381
4.965,-0.527,3.736,-5.125,70.381,0.623,4.024,5.269,70.381,0.575,4.026,-5.177,-11.73,35.191,70.381
4.97,-0.527,3.928,-4.886,76.246,0.671,4.263,5.125,70.381,0.575,4.17,-5.033,-11.73,35.191,76.246
4.9750000000000005,-0.527,4.359,-4.838,76.246,0.814,4.646,5.077,76.246,0.863,4.602,-5.033,-11.73,35.191,76.246
4.98,-0.527,4.982,-4.838,82.111,-0.766,15.424,2.635,76.246,0.719,19.269,-2.588,-11.73,35.191,82.111
4.985,18.921,24.142,10.059,41.056,-17.148,23.663,-7.951,0.0,-15.962,25.165,7.621,-23.46,23.46,5.865
4.99,-8.574,10.299,-5.03,-0.0,12.741,13.939,6.61,5.865,12.942,12.654,-6.759,-35.191,-5.865,11.73
4.995,0.431,14.131,-4.311,-11.73,-1.341,10.155,4.455,-29.326,2.445,6.04,-4.17,-46.921,-17.595,-23.46
5.0,3.593,12.933,-2.778,-29.326,-3.497,11.688,2.108,-17.595,-5.752,11.216,-2.445,-82.111,-52.786,-5.865
5.005,0.719,7.041,-1.868,41.056,-2.012,8.718,2.539,46.921,-3.595,11.216,-2.732,-93.842,-46.921,52.786
5.01,1.389,9.341,-3.209,52.786,-1.533,11.113,3.449,41.056,-2.445,12.223,-3.451,-82.111,-29.326,46.921
5.015,1.724,11.736,-3.209,29.326,-1.677,13.125,3.305,17.595,-1.869,14.092,-3.307,-64.516,-17.595,23.46
5.0200000000000005,1.581,13.173,-3.353,17.595,-1.198,14.37,3.449,17.595,-1.438,15.387,-3.451,-52.786,-11.73,23.46
5.025,1.533,13.173,-3.305,23.46,-1.102,14.131,3.449,17.595,-1.007,15.387,-3.451,-35.191,-11.73,23.46
5.03,1.485,12.406,-3.593,23.46,-1.102,13.268,3.832,17.595,-1.15,14.38,-3.883,-23.46,-5.865,23.46
5.035,1.293,11.64,-4.215,23.46,-0.958,12.215,4.551,17.595,-1.007,12.942,-4.602,-5.865,-5.865,23.46
5.04,1.198,10.778,-5.03,23.46,-0.958,11.113,5.365,17.595,-1.15,11.504,-5.321,0.0,-5.865,23.46
5.045,1.198,10.155,-5.796,23.46,-1.102,10.346,6.179,17.595,-1.438,10.497,-6.183,17.595,-5.865,23.46
5.05,1.102,9.676,-6.467,23.46,-1.054,9.676,6.802,17.595,-1.438,9.491,-6.902,17.595,-5.865,23.46
5.055,1.054,9.197,-6.993,17.595,-1.006,9.005,7.233,11.73,-1.294,8.772,-7.334,17.595,0.0,17.595
5.0600000000000005,1.006,8.574,-7.185,11.73,-0.958,8.478,7.281,11.73,-1.294,8.34,-7.334,17.595,0.0,11.73
5.065,0.958,8.335,-7.089,11.73,-0.814,8.287,7.281,5.865,-1.007,8.053,-7.334,17.595,5.865,11.73
5.07,0.91,8.287,-7.089,5.865,-0.623,8.287,7.281,0.0,-0.575,7.909,-7.19,11.73,5.865,5.865
5.075,0.958,8.383,-7.041,5.865,-0.671,8.383,7.089,0.0,-0.719,8.053,-7.046,0.0,5.865,0.0
5.08,1.006,8.526,-6.658,-0.0,-0.671,8.478,6.802,-5.865,-0.575,8.053,-6.759,0.0,5.865,0.0
5.085,1.054,8.622,-6.514,-5.865,-0.623,8.574,6.658,-5.865,-0.575,8.34,-6.615,0.0,5.865,0.0
5.09,0.958,8.478,-6.083,-5.865,-0.766,8.67,6.179,-11.73,-0.863,8.772,-6.183,-5.865,0.0,-5.865
5.095,0.958,8.526,-5.748,-11.73,-0.719,8.814,5.844,-17.595,-0.863,8.916,-5.896,0.0,0.0,-11.73
5.1000000000000005,0.91,8.574,-5.556,-11.73,-0.623,8.957,5.652,-17.595,-0.719,9.059,-5.608,0.0,0.0,-11.73
5.105,0.862,8.574,-5.269,-17.595,-0.527,8.909,5.317,-17.595,-0.719,9.059,-5.321,0.0,5.865,-11.73
5.11,0.671,8.383,-4.838,-11.73,-0.527,8.862,4.934,-17.595,-0.575,9.059,-4.889,0.0,5.865,-11.73
5.115,0.623,8.478,-4.598,-17.595,-0.431,8.862,4.694,-17.595,-0.431,8.916,-4.745,0.0,5.865,-11.73
5.12,0.671,8.622,-4.455,-11.73,-0.24,8.862,4.551,-17.595,-0.288,8.916,-4.602,11.73,5.865,-11.73
5.125,0.527,8.526,-4.215,-5.865,-0.24,8.814,4.359,-11.73,-0.288,8.772,-4.314,11.73,5.865,-5.865
5.13,0.623,8.478,-4.167,-5.865,-0.287,8.718,4.311,-5.865,-0.288,8.628,-4.314,11.73,5.865,0.0
5.135,0.575,8.622,-4.024,-0.0,-0.24,8.718,4.215,-5.865,-0.144,8.628,-4.17,11.73,5.865,0.0
5.14,0.575,8.622,-4.072,-0.0,-0.24,8.718,4.215,-5.865,-0.144,8.628,-4.17,11.73,5.865,0.0
5.1450000000000005,0.575,8.622,-4.119,-0.0,-0.287,8.718,4.263,0.0,-0.288,8.484,-4.314,11.73,0.0,5.865
5.15,0.623,8.622,-4.167,-0.0,-0.24,8.622,4.359,0.0,-0.288,8.34,-4.314,11.73,0.0,5.865
5.155,0.623,8.574,-4.215,-0.0,-0.287,8.526,4.407,0.0,-0.288,8.34,-4.458,0.0,0.0,0.0
5.16,0.623,8.526,-4.311,-0.0,-0.287,8.478,4.503,-5.865,-0.288,8.197,-4.458,0.0,0.0,0.0
5.165,0.575,8.43,-4.407,-0.0,-0.287,8.43,4.598,-5.865,-0.288,8.197,-4.602,0.0,-5.865,0.0
5.17,0.623,8.43,-4.503,-0.0,-0.287,8.43,4.694,-5.865,-0.288,8.197,-4.745,0.0,-5.865,0.0
5.175,0.575,8.43,-4.551,-5.865,-0.287,8.478,4.742,-11.73,-0.288,8.34,-4.745,-5.865,-5.865,-5.865
5.18,0.575,8.335,-4.598,-5.865,-0.287,8.43,4.838,-11.73,-0.288,8.34,-4.745,-5.865,-5.865,-5.865
5.1850000000000005,0.575,8.287,-4.694,-5.865,-0.335,8.43,4.934,-11.73,-0.431,8.34,-4.889,-5.865,-5.865,-5.865
5.19,0.575,8.287,-4.838,-11.73,-0.287,8.526,5.03,-11.73,-0.288,8.484,-5.033,-5.865,-5.865,-5.865
5.195,0.575,8.383,-4.886,-11.73,-0.287,8.67,5.03,-11.73,-0.431,8.628,-5.033,-5.865,-5.865,-5.865
5.2,0.623,8.478,-4.886,-11.73,-0.383,8.718,5.077,-11.73,-0.431,8.772,-5.033,-5.865,-5.865,-5.865
5.205,0.671,8.478,-4.886,-11.73,-0.431,8.718,5.077,-11.73,-0.575,8.772,-5.033,-5.865,-5.865,-11.73
5.21,0.719,8.43,-4.934,-11.73,-0.431,8.67,5.125,-11.73,-0.575,8.772,-5.177,-5.865,-5.865,-5.865
5.215,0.671,8.43,-4.982,-11.73,-0.431,8.67,5.173,-11.73,-0.575,8.628,-5.177,-5.865,-5.865,-11.73
5.22,0.671,8.335,-5.03,-11.73,-0.479,8.574,5.221,-11.73,-0.575,8.628,-5.177,-5.865,-5.865,-11.73
5.2250000000000005,0.719,8.287,-5.077,-11.73,-0.479,8.526,5.269,-11.73,-0.575,8.628,-5.321,0.0,-5.865,-11.73
5.23,0.671,8.287,-5.125,-11.73,-0.479,8.574,5.317,-11.73,-0.575,8.628,-5.321,0.0,-5.865,-5.865
5.235,0.671,8.335,-5.125,-5.865,-0.527,8.622,5.269,-11.73,-0.719,8.628,-5.321,0.0,-5.865,-5.865
5.24,0.766,8.335,-5.125,-5.865,-0.575,8.574,5.317,-11.73,-0.719,8.484,-5.321,0.0,0.0,-5.865
5.245,0.766,8.335,-5.125,-5.865,-0.575,8.526,5.317,-11.73,-0.719,8.484,-5.321,0.0,0.0,-5.865
5.25,0.766,8.335,-5.173,-5.865,-0.575,8.574,5.365,-11.73,-0.719,8.628,-5.321,0.0,0.0,-5.865
5.255,0.719,8.383,-5.173,-5.865,-0.623,8.574,5.365,-11.73,-0.863,8.484,-5.321,0.0,0.0,-5.865
5.26,0.766,8.43,-5.221,-5.865,-0.671,8.574,5.413,-11.73,-0.863,8.484,-5.464,0.0,5.865,-5.865
5.265,0.766,8.43,-5.365,-5.865,-0.671,8.574,5.509,-11.73,-1.007,8.628,-5.608,0.0,5.865,-5.865
5.2700000000000005,0.766,8.622,-5.365,-5.865,-0.719,8.766,5.509,-11.73,-1.007,8.628,-5.464,0.0,11.73,-5.865
5.275,0.766,8.718,-5.317,-11.73,-0.766,8.862,5.461,-11.73,-1.15,8.772,-5.464,0.0,11.73,-5.865
5.28,0.766,8.862,-5.365,-11.73,-0.814,9.005,5.509,-11.73,-1.15,8.916,-5.608,0.0,17.595,-5.865
5.285,0.766,9.053,-5.317,-11.73,-0.814,9.197,5.413,-11.73,-1.294,9.059,-5.464,0.0,23.46,-11.73
5.29,0.814,9.197,-5.125,-11.73,-0.814,9.293,5.125,-17.595,-1.294,9.203,-5.177,0.0,29.326,-11.73
5.295,0.623,9.149,-4.79,-11.73,-0.671,9.245,4.886,-17.595,-1.007,9.203,-4.889,-5.865,35.191,-11.73
5.3,0.91,9.149,-4.646,-11.73,-0.671,9.197,4.694,-17.595,-0.863,8.916,-4.745,-5.865,35.191,-11.73
5.305,0.91,9.149,-4.215,-17.595,-0.527,9.101,4.263,-23.46,-0.431,8.772,-4.314,-5.865,41.056,-17.595
5.3100000000000005,0.862,9.005,-3.784,-23.46,-0.383,9.005,3.832,-23.46,-0.144,8.772,-3.883,-11.73,41.056,-23.46
5.315,0.814,8.862,-3.353,-23.46,-0.192,8.909,3.353,-29.326,0.144,8.772,-3.307,-11.73,35.191,-23.46
5.32,0.814,8.67,-2.587,-23.46,-0.096,8.909,2.73,-29.326,0.431,8.916,-2.588,-11.73,29.326,-23.46
5.325,0.91,8.814,-2.347,-23.46,0.048,8.909,2.491,-29.326,0.863,8.772,-2.301,-11.73,23.46,-23.46
5.33,0.862,8.957,-1.772,-23.46,0.048,9.149,1.724,-29.326,0.863,9.203,-1.582,-11.73,11.73,-23.46
5.335,1.102,8.622,-0.671,-23.46,-0.24,9.149,0.671,-23.46,0.288,9.635,-0.575,-11.73,5.865,-17.595
5.34,1.006,8.718,-0.383,-23.46,0.0,9.149,0.575,-29.326,0.863,9.347,-0.431,-5.865,-5.865,-23.46
5.345,0.862,8.957,-0.527,-23.46,0.096,9.149,0.814,-29.326,0.863,9.203,-0.719,0.0,-17.595,-23.46
5.3500000000000005,0.91,9.149,-0.814,-23.46,-0.192,9.197,1.054,-29.326,0.431,9.059,-1.007,0.0,-29.326,-23.46
5.355,1.15,9.341,-0.958,-17.595,-0.479,9.293,1.15,-23.46,-0.144,8.916,-1.007,0.0,-35.191,-17.595
5.36,1.293,9.484,-0.91,-17.595,-0.671,9.341,1.054,-23.46,-0.288,9.059,-1.007,-5.865,-41.056,-17.595
5.365,1.341,9.676,-0.719,-23.46,-0.671,9.532,0.814,-29.326,-0.288,9.203,-0.863,-5.865,-46.921,-23.46
5.37,1.341,9.867,-0.527,-23.46,-0.527,9.628,0.671,-35.191,0.0,9.203,-0.575,-11.73,-52.786,-23.46
5.375,1.293,9.915,-0.335,-29.326,-0.383,9.676,0.527,-35.191,0.288,9.347,-0.431,-17.595,-64.516,-29.326
5.38,1.245,9.772,-0.24,-35.191,-0.287,9.58,0.431,-41.056,0.431,9.203,-0.288,-23.46,-70.381,-35.191
5.385,1.102,9.484,-0.192,-35.191,-0.144,9.436,0.431,-46.921,0.575,9.347,-0.431,-23.46,-82.111,-41.056
5.39,0.958,9.149,-0.335,-41.056,-0.096,9.245,0.623,-46.921,0.431,9.347,-0.575,-29.326,-93.842,-41.056
5.3950000000000005,0.814,8.814,-0.671,-41.056,-0.096,9.053,1.006,-52.786,0.431,9.347,-1.007,-29.326,-99.707,-46.921
5.4,0.719,8.526,-1.054,-46.921,0.0,8.814,1.437,-52.786,0.431,9.059,-1.438,-23.46,-111.437,-46.921
5.405,0.527,7.951,-1.724,-46.921,0.144,8.335,2.203,-52.786,0.431,8.772,-2.157,-17.595,-111.437,-46.921
5.41,0.0,7.568,-2.491,-46.921,0.479,8.095,2.97,-52.786,0.575,8.628,-3.02,-11.73,-117.302,-46.921
5.415,0.096,7.425,-3.305,-46.921,0.144,7.999,3.784,-52.786,0.288,8.484,-3.883,-5.865,-123.167,-46.921
5.42,0.144,7.568,-4.167,-46.921,0.192,8.047,4.646,-52.786,0.144,8.34,-4.745,0.0,-123.167,-46.921
5.425,0.048,7.472,-5.125,-41.056,0.24,7.856,5.748,-46.921,0.288,7.909,-5.896,0.0,-123.167,-41.056
5.43,-0.144,7.281,-6.275,-41.056,0.383,7.568,6.898,-46.921,0.288,7.621,-6.902,11.73,-123.167,-41.056
5.4350000000000005,-0.048,7.041,-7.377,-35.191,0.144,7.329,7.999,-41.056,0.0,7.334,-8.053,11.73,-123.167,-35.191
5.44,-0.096,6.993,-8.526,-29.326,0.096,7.233,9.197,-35.191,-0.288,7.046,-9.347,17.595,-117.302,-29.326
5.445,0.0,6.993,-9.724,-23.46,-0.096,7.329,10.346,-29.326,-0.431,7.19,-10.497,17.595,-117.302,-23.46
5.45,0.048,7.233,-10.873,-17.595,-0.335,7.472,11.448,-23.46,-0.863,7.334,-11.648,17.595,-111.437,-17.595
5.455,0.144,7.329,-11.927,-17.595,-0.527,7.52,12.454,-23.46,-1.15,7.334,-12.654,11.73,-105.572,-17.595
5.46,0.192,7.281,-12.885,-17.595,-0.623,7.425,13.412,-17.595,-1.438,7.19,-13.517,11.73,-93.842,-11.73
5.465,0.24,7.185,-13.843,-11.73,-0.766,7.281,14.274,-17.595,-1.726,6.902,-14.38,11.73,-87.977,-11.73
5.47,0.24,6.946,-14.61,-5.865,-0.958,7.041,14.993,-11.73,-2.013,6.759,-15.099,0.0,-76.246,-5.865
5.4750000000000005,0.24,6.706,-15.136,-5.865,-1.102,6.85,15.424,-5.865,-2.445,6.471,-15.53,0.0,-58.651,-5.865
5.48,0.335,6.467,-15.472,-5.865,-1.198,6.61,15.711,-5.865,-2.588,6.327,-15.818,0.0,-41.056,0.0
5.485,0.24,6.179,-15.615,-0.0,-1.198,6.371,15.807,0.0,-2.588,6.183,-15.962,0.0,-23.46,5.865
5.49,0.24,5.988,-15.568,5.865,-1.198,6.275,15.759,5.865,-2.588,6.04,-15.818,0.0,-5.865,5.865
5.495,0.287,5.94,-15.424,5.865,-1.198,6.227,15.52,5.865,-2.445,6.04,-15.53,0.0,11.73,11.73
5.5,0.383,6.083,-15.041,11.73,-1.102,6.275,15.089,5.865,-2.301,5.896,-15.243,0.0,29.326,11.73
5.505,0.287,6.179,-14.657,11.73,-1.006,6.227,14.801,11.73,-2.157,5.752,-14.955,0.0,46.921,17.595
5.51,0.383,6.227,-14.37,17.595,-1.15,6.275,14.418,17.595,-2.157,5.752,-14.524,-5.865,64.516,23.46
5.515,0.623,6.419,-13.699,23.46,-1.293,6.323,13.747,17.595,-2.301,5.752,-13.949,-11.73,76.246,23.46
5.5200000000000005,0.766,6.467,-13.077,23.46,-1.245,6.323,13.125,23.46,-2.157,5.752,-13.23,-17.595,87.977,23.46
5.525,0.719,6.562,-12.406,23.46,-1.102,6.419,12.454,17.595,-1.869,5.752,-12.654,-23.46,99.707,23.46
5.53,0.671,6.802,-11.688,23.46,-1.006,6.658,11.736,17.595,-1.582,6.04,-11.935,-29.326,111.437,23.46
5.535,0.719,7.041,-11.017,17.595,-1.006,6.85,11.161,17.595,-1.582,6.183,-11.36,-35.191,123.167,23.46
5.54,0.719,7.137,-10.442,17.595,-1.006,6.993,10.49,17.595,-1.582,6.471,-10.641,-46.921,129.032,17.595
5.545,0.719,7.233,-9.676,17.595,-0.91,7.185,9.676,11.73,-1.438,6.759,-9.778,-52.786,134.897,17.595
5.55,0.671,7.233,-8.574,11.73,-0.814,7.233,8.526,11.73,-1.294,7.046,-8.772,-58.651,146.628,17.595
5.555,0.623,7.041,-7.377,11.73,-0.527,7.233,7.281,11.73,-0.863,7.334,-7.478,-58.651,152.493,11.73
5.5600000000000005,0.383,6.946,-5.892,5.865,-0.144,7.377,5.748,5.865,-0.144,7.765,-5.896,-58.651,152.493,11.73
5.565,0.287,6.85,-4.359,5.865,0.192,7.52,4.167,5.865,0.431,8.053,-4.314,-52.786,158.358,11.73
5.57,0.24,6.754,-2.73,11.73,0.383,7.616,2.491,11.73,0.863,8.484,-2.445,-46.921,152.493,11.73
5.575,0.24,6.754,-1.054,11.73,0.527,7.712,0.862,11.73,1.15,8.628,-0.863,-35.191,152.493,17.595
5.58,0.287,6.706,0.383,17.595,0.719,7.808,-0.527,17.595,1.582,8.916,0.719,-23.46,140.762,23.46
5.585,0.335,6.946,1.677,23.46,0.719,8.047,-1.772,23.46,1.726,9.059,2.013,-11.73,134.897,29.326
5.59,0.527,7.616,2.682,29.326,0.479,8.526,-2.778,29.326,1.438,9.347,3.02,0.0,123.167,35.191
5.595,0.958,8.335,3.545,35.191,0.144,8.957,-3.545,29.326,1.15,9.491,3.739,17.595,111.437,35.191
5.6000000000000005,1.102,9.005,4.072,35.191,0.096,9.341,-4.024,29.326,1.15,9.491,4.17,23.46,93.842,35.191
5.605,1.245,9.532,4.407,35.191,0.0,9.676,-4.359,29.326,1.15,9.635,4.602,29.326,82.111,35.191
5.61,1.389,10.107,4.742,35.191,-0.096,10.011,-4.694,29.326,1.15,9.635,4.889,29.326,64.516,35.191
5.615,1.629,10.538,4.934,35.191,-0.335,10.346,-4.886,29.326,0.863,9.922,5.033,23.46,46.921,35.191
5.62,1.868,10.969,5.173,29.326,-0.575,10.634,-5.125,23.46,0.575,10.21,5.321,17.595,29.326,29.326
5.625,2.108,11.496,5.413,23.46,-0.575,10.969,-5.317,17.595,0.719,10.354,5.464,11.73,11.73,17.595
5.63,2.012,11.64,5.365,11.73,-0.527,11.065,-5.173,5.865,0.719,10.497,5.321,0.0,-5.865,11.73
5.635,1.916,11.496,5.221,-0.0,-0.383,10.969,-5.03,-5.865,1.007,10.497,5.177,-5.865,-23.46,0.0
5.64,1.868,11.209,5.125,-5.865,-0.335,10.682,-4.934,-17.595,1.007,10.21,5.177,-11.73,-41.056,-11.73
5.6450000000000005,1.677,10.873,4.934,-17.595,-0.144,10.394,-4.646,-29.326,1.15,10.066,4.889,-23.46,-64.516,-23.46
5.65,1.389,10.538,4.598,-23.46,0.048,10.155,-4.263,-35.191,1.294,9.778,4.458,-29.326,-82.111,-23.46
5.655,1.245,10.299,4.167,-29.326,0.144,9.915,-3.784,-41.056,1.294,9.635,3.883,-29.326,-99.707,-35.191
5.66,1.006,9.867,3.593,-41.056,0.192,9.676,-3.161,-46.921,1.15,9.491,3.164,-35.191,-117.302,-46.921
5.665,0.862,9.341,2.778,-46.921,0.144,9.293,-2.299,-52.786,1.007,9.347,2.301,-41.056,-129.032,-46.921
5.67,0.383,9.101,1.964,-46.921,0.479,9.245,-1.437,-58.651,1.007,9.491,1.438,-41.056,-140.762,-52.786
5.675,0.24,8.574,0.958,-52.786,0.479,8.957,-0.335,-58.651,0.863,9.491,0.288,-35.191,-152.493,-52.786
5.68,-0.144,8.095,-0.24,-52.786,0.671,8.814,0.862,-58.651,0.863,9.491,-1.007,-29.326,-158.358,-52.786
5.6850000000000005,-0.287,7.856,-1.437,-46.921,0.623,8.718,2.06,-52.786,0.719,9.635,-2.157,-23.46,-164.223,-46.921
5.69,-0.24,7.856,-2.73,-41.056,0.575,8.862,3.449,-52.786,0.575,9.778,-3.595,-11.73,-164.223,-41.056
5.695,-0.287,7.904,-4.215,-35.191,0.383,8.957,4.982,-41.056,0.288,9.778,-5.177,0.0,-164.223,-35.191
5.7,-0.096,8.239,-5.748,-29.326,0.144,9.149,6.514,-35.191,-0.144,9.635,-6.759,17.595,-164.223,-29.326
5.705,0.192,8.766,-7.329,-23.46,-0.192,9.341,8.143,-29.326,-0.431,9.491,-8.34,23.46,-158.358,-23.46
5.71,0.383,9.053,-9.053,-23.46,-0.479,9.436,9.963,-29.326,-0.863,9.491,-10.066,29.326,-158.358,-23.46
5.715,0.527,9.293,-10.873,-17.595,-0.719,9.484,11.736,-29.326,-1.294,9.203,-11.935,35.191,-152.493,-17.595
5.72,0.623,9.388,-12.598,-17.595,-1.006,9.293,13.364,-29.326,-1.726,8.772,-13.661,35.191,-146.628,-17.595
5.7250000000000005,0.719,9.197,-14.178,-17.595,-1.341,9.005,14.849,-23.46,-2.301,8.484,-15.099,29.326,-134.897,-17.595
5.73,0.719,8.862,-15.376,-17.595,-1.485,8.718,15.855,-23.46,-2.732,8.197,-16.106,23.46,-129.032,-17.595
5.735,0.814,8.526,-16.19,-17.595,-1.724,8.335,16.621,-23.46,-3.164,7.765,-16.825,17.595,-111.437,-11.73
5.74,0.719,7.856,-16.813,-11.73,-1.82,7.808,17.1,-17.595,-3.451,7.478,-17.256,11.73,-93.842,-11.73
5.745,0.671,7.233,-17.1,-11.73,-1.916,7.281,17.292,-17.595,-3.595,7.046,-17.544,0.0,-70.381,-11.73
5.75,0.814,6.898,-17.1,-11.73,-1.868,6.946,17.244,-17.595,-3.451,6.615,-17.4,0.0,-52.786,-11.73
5.755,0.719,6.562,-16.957,-5.865,-1.772,6.658,17.052,-11.73,-3.307,6.327,-17.112,0.0,-29.326,-5.865
5.76,0.766,6.371,-16.526,-5.865,-1.677,6.467,16.526,-11.73,-2.876,6.04,-16.537,0.0,-5.865,-5.865
5.765,0.671,6.179,-15.759,-5.865,-1.341,6.179,15.663,-5.865,-2.588,5.896,-15.818,0.0,11.73,0.0
5.7700000000000005,0.479,5.892,-14.945,-0.0,-1.293,6.131,14.849,0.0,-2.445,6.04,-14.955,-5.865,29.326,0.0
5.775,0.623,5.844,-13.987,-0.0,-1.341,6.083,13.891,0.0,-2.301,6.04,-13.949,-5.865,46.921,5.865
5.78,0.719,6.083,-12.646,-0.0,-1.054,6.323,12.741,0.0,-2.013,6.183,-12.798,-5.865,58.651,5.865
5.785,0.287,6.035,-12.023,-0.0,-0.958,6.275,12.023,-5.865,-1.726,6.183,-12.079,-5.865,70.381,0.0
5.79,0.91,5.988,-10.969,-0.0,-0.671,5.988,10.778,-5.865,-0.863,5.752,-10.785,-5.865,82.111,0.0
5.795,0.192,5.796,-9.772,5.865,-0.766,5.988,9.532,5.865,-1.15,6.04,-9.491,-11.73,87.977,5.865
5.8,0.719,5.748,-8.383,5.865,-0.91,6.083,8.383,5.865,-1.294,6.183,-8.484,-5.865,93.842,11.73
5.805,0.814,5.844,-7.712,5.865,-0.527,6.131,7.712,5.865,-0.431,6.04,-7.765,-5.865,93.842,5.865
5.8100000000000005,0.719,6.131,-6.61,11.73,0.048,6.227,6.514,11.73,0.431,5.896,-6.471,-5.865,99.707,17.595
5.815,0.623,6.083,-5.317,17.595,0.0,6.227,5.221,17.595,0.575,6.183,-5.177,-5.865,93.842,23.46
5.82,0.719,6.227,-4.215,29.326,-0.192,6.562,4.119,23.46,0.144,6.615,-4.026,-5.865,87.977,29.326
5.825,0.91,6.658,-3.305,35.191,-0.383,7.041,3.353,29.326,0.0,7.19,-3.307,-5.865,82.111,35.191
5.83,1.389,7.281,-2.587,35.191,-0.623,7.568,2.587,29.326,0.0,7.478,-2.588,-5.865,76.246,35.191
5.835,1.437,8.095,-2.108,29.326,-0.623,8.191,2.299,23.46,0.0,7.909,-2.301,-5.865,70.381,29.326
5.84,1.389,8.574,-2.06,23.46,-0.527,8.526,2.251,17.595,0.288,8.197,-2.157,-11.73,58.651,23.46
5.845,1.629,8.957,-1.82,23.46,-0.671,8.622,1.916,17.595,0.288,8.053,-1.869,-11.73,52.786,23.46
5.8500000000000005,1.533,8.909,-1.581,23.46,-0.575,8.574,1.724,17.595,0.288,8.053,-1.726,-17.595,41.056,23.46
5.855,1.389,8.766,-1.485,17.595,-0.527,8.622,1.629,17.595,0.144,8.34,-1.582,-23.46,29.326,17.595
5.86,1.437,8.862,-1.389,17.595,-0.671,8.718,1.533,11.73,-0.144,8.484,-1.438,-29.326,17.595,17.595
5.865,1.533,9.005,-1.389,11.73,-0.862,8.957,1.629,5.865,-0.431,8.772,-1.582,-35.191,5.865,11.73
5.87,1.581,9.149,-1.581,5.865,-0.91,9.053,1.82,0.0,-0.431,8.916,-1.726,-35.191,0.0,5.865
5.875,1.485,9.197,-1.772,-0.0,-0.766,9.053,2.06,-5.865,-0.288,8.772,-2.013,-41.056,-5.865,0.0
5.88,1.437,9.149,-2.012,-5.865,-0.623,8.909,2.299,-11.73,0.0,8.484,-2.301,-46.921,-17.595,-5.865
5.885,1.293,8.814,-2.203,-5.865,-0.527,8.574,2.395,-11.73,0.0,8.34,-2.445,-46.921,-23.46,-5.865
5.89,1.15,8.383,-2.299,-11.73,-0.527,8.335,2.539,-11.73,-0.144,8.34,-2.588,-52.786,-29.326,-5.865
5.8950000000000005,1.15,8.095,-2.395,-11.73,-0.671,8.191,2.635,-17.595,-0.431,8.197,-2.588,-52.786,-41.056,-11.73
5.9,1.15,7.999,-2.587,-17.595,-0.575,8.095,2.874,-23.46,-0.288,8.053,-2.876,-52.786,-41.056,-17.595
5.905,1.006,7.808,-2.826,-17.595,-0.527,7.999,3.066,-23.46,-0.431,8.197,-3.02,-52.786,-46.921,-17.595
5.91,0.958,7.664,-2.922,-17.595,-0.671,8.143,3.018,-23.46,-0.719,8.772,-3.02,-52.786,-52.786,-17.595
5.915,1.054,7.856,-2.491,-23.46,-1.006,8.814,2.587,-29.326,-1.294,9.635,-2.588,-46.921,-52.786,-23.46
5.92,1.293,8.526,-2.778,-29.326,-0.814,8.862,3.353,-35.191,-0.575,9.059,-3.307,-35.191,-52.786,-29.326
5.925,1.054,8.526,-4.215,-35.191,-0.383,8.383,4.838,-41.056,-0.144,8.053,-4.889,-35.191,-52.786,-35.191
5.93,0.671,7.808,-5.221,-35.191,-0.479,7.76,5.556,-41.056,-0.719,7.621,-5.608,-35.191,-58.651,-35.191
5.9350000000000005,0.862,7.233,-5.556,-29.326,-0.91,7.329,5.796,-29.326,-1.294,7.334,-5.896,-35.191,-58.651,-23.46
5.94,1.006,6.85,-5.7,-17.595,-1.006,7.137,6.035,-23.46,-1.438,7.334,-6.04,-35.191,-52.786,-17.595
5.945,0.766,6.658,-6.035,-17.595,-0.814,7.089,6.371,-17.595,-1.294,7.334,-6.471,-29.326,-52.786,-17.595
5.95,0.671,6.658,-6.323,-17.595,-0.766,7.233,6.61,-17.595,-1.15,7.478,-6.615,-29.326,-46.921,-11.73
5.955,0.719,6.802,-6.467,-11.73,-0.814,7.425,6.706,-17.595,-1.294,7.765,-6.759,-23.46,-41.056,-11.73
5.96,0.766,6.993,-6.562,-5.865,-0.766,7.568,6.802,-11.73,-1.15,7.909,-6.902,-17.595,-35.191,-5.865
5.965,0.766,7.233,-6.658,-5.865,-0.671,7.76,6.898,-5.865,-0.863,8.053,-6.902,-11.73,-29.326,-5.865
5.97,0.671,7.329,-6.754,-0.0,-0.623,7.856,6.993,-5.865,-0.863,8.053,-7.046,-5.865,-29.326,0.0
5.9750000000000005,0.719,7.377,-6.85,5.865,-0.671,7.76,7.041,0.0,-1.007,7.909,-7.046,0.0,-23.46,5.865
5.98,0.719,7.425,-6.85,5.865,-0.766,7.76,7.041,5.865,-1.15,7.765,-7.046,0.0,-17.595,11.73
5.985,0.814,7.52,-6.898,11.73,-0.862,7.76,7.089,5.865,-1.294,7.765,-7.19,0.0,-17.595,11.73
5.99,0.862,7.568,-6.85,11.73,-0.91,7.808,7.041,11.73,-1.294,7.765,-7.046,0.0,-11.73,11.73
5.995,0.91,7.712,-6.754,11.73,-0.958,7.904,6.85,5.865,-1.294,7.909,-6.902,0.0,-5.865,11.73
6.0,0.958,7.904,-6.514,11.73,-0.862,8.095,6.658,5.865,-1.15,8.053,-6.615,0.0,0.0,11.73
6.005,0.958,8.047,-6.323,5.865,-0.814,8.239,6.467,0.0,-1.007,8.197,-6.471,0.0,0.0,11.73
6.01,1.054,8.143,-6.227,5.865,-0.862,8.287,6.371,0.0,-1.007,8.197,-6.327,0.0,0.0,5.865
6.015000000000001,1.102,8.143,-6.131,-0.0,-0.958,8.239,6.275,-5.865,-1.15,8.197,-6.327,0.0,5.865,0.0
6.0200000000000005,1.006,8.191,-5.988,-0.0,-0.766,8.335,6.275,-5.865,-1.007,8.34,-6.327,0.0,5.865,0.0
6.025,1.293,8.239,-5.988,-5.865,-1.15,8.239,6.035,-11.73,-1.15,8.053,-6.04,0.0,5.865,-5.865
6.03,1.102,8.143,-5.652,-11.73,-0.766,8.095,5.844,-17.595,-0.863,7.909,-5.752,0.0,5.865,-11.73
6.035,0.958,7.664,-5.509,-11.73,-0.623,7.808,5.604,-11.73,-0.719,7.765,-5.608,0.0,5.865,-11.73
6.04,0.862,7.52,-5.461,-11.73,-0.719,7.76,5.652,-11.73,-0.719,7.765,-5.608,0.0,5.865,-5.865
6.045,1.054,7.52,-5.413,-11.73,-0.814,7.76,5.652,-11.73,-0.863,7.765,-5.608,0.0,5.865,-5.865
6.05,0.958,7.472,-5.509,-5.865,-0.719,7.712,5.748,-11.73,-0.719,7.765,-5.752,0.0,5.865,-5.865
6.055,0.958,7.472,-5.604,-5.865,-0.766,7.712,5.748,-5.865,-0.863,7.765,-5.752,0.0,5.865,0.0
6.0600000000000005,1.15,7.52,-5.509,-0.0,-0.814,7.664,5.7,-5.865,-0.863,7.621,-5.752,0.0,5.865,0.0
6.065,0.91,7.52,-5.556,-0.0,-0.671,7.712,5.796,0.0,-0.719,7.621,-5.752,0.0,5.865,5.865
6.07,1.006,7.472,-5.604,5.865,-0.814,7.664,5.796,0.0,-0.863,7.621,-5.752,0.0,5.865,5.865
6.075,1.102,7.568,-5.604,5.865,-0.814,7.664,5.844,5.865,-0.863,7.478,-5.896,0.0,5.865,11.73
6.08,1.006,7.568,-5.7,11.73,-0.766,7.664,5.94,5.865,-0.719,7.478,-5.896,0.0,5.865,11.73
6.085,1.006,7.616,-5.796,11.73,-0.814,7.712,6.035,5.865,-0.863,7.621,-6.04,0.0,5.865,11.73
6.09,1.054,7.664,-5.844,11.73,-0.814,7.76,6.083,11.73,-0.863,7.621,-6.04,0.0,5.865,11.73
6.095,1.006,7.664,-5.892,11.73,-0.766,7.808,6.083,5.865,-0.863,7.765,-6.04,0.0,5.865,11.73
6.1000000000000005,0.958,7.664,-5.892,11.73,-0.719,7.808,6.083,5.865,-0.863,7.765,-6.04,0.0,5.865,11.73
6.105,0.958,7.664,-5.844,11.73,-0.671,7.808,6.035,5.865,-0.719,7.765,-6.04,0.0,5.865,11.73
6.11,0.91,7.616,-5.844,11.73,-0.623,7.808,6.035,5.865,-0.719,7.765,-6.04,0.0,5.865,11.73
6.115,0.91,7.568,-5.844,11.73,-0.623,7.76,6.035,5.865,-0.719,7.765,-6.04,0.0,5.865,11.73
6.12,0.862,7.568,-5.844,11.73,-0.623,7.712,6.035,5.865,-0.719,7.765,-6.04,0.0,5.865,11.73
6.125,0.862,7.568,-5.796,5.865,-0.623,7.76,5.988,5.865,-0.719,7.765,-6.04,0.0,5.865,11.73
6.13,0.862,7.664,-5.796,5.865,-0.623,7.808,5.988,0.0,-0.575,7.765,-5.896,0.0,5.865,5.865
6.135,0.862,7.712,-5.748,5.865,-0.527,7.856,5.94,0.0,-0.575,7.765,-5.896,0.0,5.865,5.865
6.140000000000001,0.814,7.712,-5.748,5.865,-0.527,7.856,5.94,0.0,-0.575,7.909,-5.896,0.0,5.865,5.865
6.1450000000000005,0.814,7.664,-5.748,5.865,-0.527,7.904,5.94,0.0,-0.575,7.909,-5.896,0.0,5.865,5.865
6.15,0.814,7.664,-5.748,-0.0,-0.575,7.904,5.94,0.0,-0.719,7.909,-5.896,0.0,5.865,5.865
6.155,0.766,7.664,-5.748,-0.0,-0.575,7.904,5.94,0.0,-0.719,7.909,-5.896,0.0,5.865,5.865
6.16,0.814,7.712,-5.7,-0.0,-0.575,7.951,5.892,0.0,-0.719,7.909,-5.896,0.0,5.865,5.865
6.165,0.814,7.76,-5.652,5.865,-0.575,7.999,5.844,0.0,-0.719,8.053,-5.896,0.0,5.865,5.865
6.17,0.814,7.856,-5.652,5.865,-0.575,8.047,5.796,0.0,-0.719,8.053,-5.752,0.0,5.865,5.865
6.175,0.814,7.904,-5.604,5.865,-0.575,8.095,5.796,0.0,-0.575,8.053,-5.752,0.0,5.865,5.865
6.18,0.862,7.904,-5.556,5.865,-0.575,8.095,5.7,0.0,-0.575,8.053,-5.752,0.0,5.865,5.865
6.1850000000000005,0.862,7.904,-5.509,5.865,-0.575,8.047,5.652,0.0,-0.575,8.053,-5.608,0.0,5.865,5.865
6.19,0.862,7.951,-5.461,5.865,-0.575,8.095,5.652,0.0,-0.575,8.053,-5.608,0.0,5.865,5.865
6.195,0.91,7.951,-5.461,-0.0,-0.575,8.143,5.652,0.0,-0.575,8.053,-5.608,0.0,5.865,5.865
6.2,0.862,7.999,-5.509,5.865,-0.623,8.095,5.7,0.0,-0.575,8.053,-5.752,0.0,5.865,5.865
6.205,0.91,7.951,-5.556,5.865,-0.671,8.095,5.748,0.0,-0.719,8.053,-5.752,0.0,5.865,5.865
6.21,0.958,7.951,-5.604,5.865,-0.671,8.095,5.796,0.0,-0.719,8.053,-5.752,0.0,5.865,5.865
6.215,0.91,7.951,-5.652,5.865,-0.671,8.143,5.844,0.0,-0.719,8.053,-5.896,0.0,0.0,5.865
6.22,0.958,7.999,-5.7,5.865,-0.719,8.143,5.892,0.0,-0.719,8.053,-5.896,0.0,0.0,5.865
6.2250000000000005,1.006,7.999,-5.748,5.865,-0.719,8.143,5.988,0.0,-0.719,8.053,-6.04,0.0,0.0,5.865
6.23,1.006,7.951,-5.844,5.865,-0.766,8.143,6.083,0.0,-0.863,8.053,-6.04,0.0,0.0,5.865
6.235,1.006,7.999,-5.892,5.865,-0.766,8.143,6.083,0.0,-0.863,8.053,-6.04,0.0,0.0,5.865
6.24,1.054,7.999,-5.94,5.865,-0.766,8.143,6.179,0.0,-0.863,8.053,-6.183,0.0,0.0,5.865
6.245,1.054,7.999,-5.94,5.865,-0.766,8.143,6.131,0.0,-0.719,8.053,-6.183,0.0,0.0,5.865
6.25,1.054,7.999,-5.892,5.865,-0.766,8.143,6.131,0.0,-0.863,8.053,-6.04,0.0,0.0,5.865
6.255,1.006,7.951,-5.892,-0.0,-0.766,8.143,6.131,0.0,-0.863,8.053,-6.04,0.0,0.0,5.865
6.26,1.006,7.951,-5.892,5.865,-0.814,8.143,6.131,0.0,-0.863,8.197,-6.04,0.0,0.0,5.865
6.265000000000001,1.054,7.951,-5.94,-0.0,-0.814,8.143,6.131,0.0,-0.863,8.053,-6.183,0.0,0.0,5.865
6.2700000000000005,1.054,7.904,-5.892,-0.0,-0.814,8.095,6.131,0.0,-0.863,8.053,-6.04,0.0,0.0,5.865
6.275,1.054,7.856,-5.892,-0.0,-0.766,8.047,6.083,0.0,-0.863,8.053,-6.04,0.0,0.0,0.0
6.28,1.006,7.808,-5.844,-0.0,-0.814,7.999,6.035,0.0,-0.863,8.053,-6.04,0.0,0.0,0.0
