time_aligned_sec,L_Acc_X_aligned,L_Acc_Y_aligned,L_Acc_Z_aligned,L_Gyro_Z_aligned,R_Acc_X_aligned,R_Acc_Y_aligned,R_Acc_Z_aligned,R_Gyro_Z_aligned,T_Acc_X_aligned,T_Acc_Y_aligned,T_Acc_Z_aligned,T_Gyro_X_aligned,T_Gyro_Y_aligned,T_Gyro_Z_aligned
0.0,-1.006,-3.928,-8.957,87.977,0.335,-2.922,9.484,87.977,-0.575,-1.438,-9.491,99.707,41.056,82.111
0.005,-1.102,-3.688,-8.957,87.977,0.575,-2.922,9.484,87.977,-0.288,-1.726,-9.491,117.302,52.786,87.977
0.01,-1.006,-3.353,-9.005,87.977,0.671,-2.778,9.532,87.977,0.0,-1.869,-9.635,129.032,58.651,87.977
0.015,-0.862,-3.018,-9.005,93.842,0.623,-2.443,9.532,93.842,0.288,-1.726,-9.635,146.628,64.516,87.977
0.02,-0.719,-2.73,-8.957,99.707,0.431,-2.156,9.532,99.707,0.288,-1.438,-9.778,158.358,64.516,93.842
0.025,-0.479,-2.587,-8.909,105.572,0.192,-1.964,9.484,105.572,-0.144,-1.15,-9.635,164.223,70.381,99.707
0.03,-0.479,-2.299,-8.909,111.437,0.144,-1.724,9.484,111.437,-0.288,-1.007,-9.778,175.953,70.381,105.572
0.035,-0.479,-1.868,-8.909,111.437,0.144,-1.437,9.532,111.437,-0.288,-0.719,-9.778,187.683,70.381,105.572
0.04,-0.192,-1.389,-8.957,117.302,0.048,-1.102,9.532,117.302,-0.288,-0.575,-9.778,193.548,76.246,111.437
0.045,-0.048,-0.862,-9.005,117.302,-0.144,-0.719,9.628,117.302,-0.288,-0.288,-9.922,205.279,76.246,111.437
0.05,0.24,-0.383,-9.005,123.167,-0.335,-0.383,9.628,123.167,-0.431,-0.144,-9.922,217.009,76.246,117.302
0.055,0.575,-0.048,-9.053,123.167,-0.623,-0.144,9.676,123.167,-0.719,-0.144,-10.066,217.009,76.246,117.302
0.06,0.719,0.24,-9.053,123.167,-0.862,0.144,9.676,123.167,-1.007,0.0,-10.066,222.874,76.246,123.167
0.065,0.814,0.479,-9.005,123.167,-0.91,0.335,9.628,123.167,-1.007,0.288,-10.066,222.874,76.246,117.302
0.07,0.862,0.766,-8.957,117.302,-0.91,0.623,9.532,117.302,-1.15,0.431,-10.066,222.874,76.246,117.302
0.075,0.958,1.102,-8.909,117.302,-1.006,0.958,9.532,117.302,-1.15,0.863,-9.922,222.874,76.246,117.302
0.08,1.054,1.341,-8.814,111.437,-1.054,1.198,9.436,111.437,-1.15,1.15,-9.922,217.009,70.381,111.437
0.085,0.958,1.485,-8.718,105.572,-1.006,1.293,9.341,111.437,-1.15,1.294,-9.778,217.009,70.381,105.572
0.09,0.719,1.485,-8.766,99.707,-0.91,1.389,9.293,105.572,-1.007,1.438,-9.635,217.009,70.381,105.572
0.095,0.766,1.389,-9.053,99.707,-0.958,1.389,9.532,99.707,-1.15,1.582,-9.778,217.009,64.516,99.707
0.1,0.862,1.581,-9.341,99.707,-1.15,1.389,9.867,99.707,-1.438,1.582,-10.066,217.009,64.516,93.842
0.105,1.15,1.82,-9.484,93.842,-1.389,1.485,10.059,99.707,-1.726,1.438,-10.354,217.009,70.381,93.842
0.11,1.245,1.916,-9.484,93.842,-1.533,1.533,10.059,93.842,-1.869,1.294,-10.497,217.009,70.381,93.842
0.115,1.245,2.012,-9.484,87.977,-1.485,1.629,10.059,93.842,-1.869,1.294,-10.354,211.144,76.246,93.842
0.12,1.006,2.012,-9.484,87.977,-1.341,1.772,10.059,87.977,-1.726,1.438,-10.354,205.279,76.246,87.977
0.125,0.958,2.012,-9.58,82.111,-1.245,1.82,10.107,87.977,-1.726,1.726,-10.497,199.413,76.246,82.111
0.13,1.15,1.868,-9.484,87.977,-1.341,1.82,10.107,87.977,-1.726,1.869,-10.497,193.548,82.111,82.111
0.135,1.198,1.82,-9.293,87.977,-1.437,1.82,9.915,87.977,-1.726,2.013,-10.354,193.548,87.977,82.111
0.14,1.102,1.82,-9.101,87.977,-1.437,1.916,9.676,87.977,-1.869,2.157,-10.066,193.548,87.977,87.977
0.145,1.006,1.868,-8.909,87.977,-1.293,2.06,9.532,87.977,-1.726,2.445,-9.922,193.548,93.842,87.977
0.15,1.054,2.156,-8.718,87.977,-1.341,2.299,9.341,93.842,-1.726,2.732,-9.778,199.413,93.842,87.977
0.155,1.102,2.587,-8.67,93.842,-1.293,2.682,9.197,93.842,-1.582,3.02,-9.635,205.279,93.842,93.842
0.16,1.198,3.018,-8.718,93.842,-1.293,3.066,9.293,93.842,-1.438,3.307,-9.635,205.279,99.707,93.842
0.165,1.198,3.401,-8.718,93.842,-1.293,3.305,9.293,99.707,-1.438,3.595,-9.635,211.144,105.572,93.842
0.17,1.341,3.88,-8.766,99.707,-1.437,3.64,9.293,99.707,-1.582,3.739,-9.635,217.009,105.572,93.842
0.17500000000000002,1.629,4.359,-8.814,99.707,-1.629,3.976,9.388,99.707,-1.726,3.883,-9.778,217.009,105.572,93.842
0.18,1.82,4.838,-8.814,99.707,-1.868,4.263,9.341,99.707,-1.869,3.883,-9.778,217.009,105.572,99.707
0.185,1.868,5.125,-8.622,99.707,-1.868,4.551,9.245,99.707,-1.869,4.026,-9.778,211.144,105.572,99.707
0.19,1.868,5.317,-8.478,99.707,-1.82,4.694,9.005,99.707,-1.869,4.17,-9.491,205.279,105.572,93.842
0.195,1.772,5.461,-8.239,93.842,-1.772,4.838,8.766,93.842,-1.869,4.314,-9.347,193.548,105.572,93.842
0.2,1.772,5.461,-7.904,87.977,-1.724,4.934,8.43,93.842,-1.869,4.458,-8.916,187.683,105.572,93.842
0.20500000000000002,1.82,5.604,-7.568,87.977,-1.724,5.077,8.095,87.977,-1.726,4.602,-8.628,181.818,105.572,87.977
0.21,1.916,5.94,-7.233,82.111,-1.724,5.413,7.76,82.111,-1.582,5.033,-8.197,175.953,105.572,82.111
0.215,1.964,6.131,-6.898,76.246,-1.629,5.7,7.425,82.111,-1.294,5.321,-7.909,170.088,99.707,76.246
0.22,1.964,5.988,-6.706,70.381,-1.677,5.796,7.137,76.246,-1.15,5.752,-7.621,158.358,99.707,76.246
0.225,1.916,5.604,-6.562,70.381,-1.629,5.652,6.946,70.381,-1.294,5.896,-7.334,158.358,93.842,70.381
0.23,1.677,5.365,-6.706,70.381,-1.581,5.509,7.089,70.381,-1.294,6.04,-7.334,152.493,87.977,70.381
0.23500000000000001,1.677,5.556,-6.754,70.381,-1.485,5.604,7.185,70.381,-1.294,6.04,-7.478,152.493,82.111,70.381
0.24,1.868,5.844,-6.802,70.381,-1.724,5.748,7.233,70.381,-1.438,6.04,-7.478,158.358,82.111,70.381
0.245,1.964,6.179,-6.85,70.381,-1.916,5.988,7.281,70.381,-1.726,6.183,-7.478,158.358,82.111,70.381
0.25,2.108,6.419,-6.946,70.381,-2.06,6.179,7.281,76.246,-2.013,6.183,-7.621,164.223,82.111,70.381
0.255,2.06,6.61,-6.706,70.381,-2.108,6.419,7.185,70.381,-2.013,6.183,-7.621,158.358,76.246,70.381
0.26,2.06,6.993,-6.323,64.516,-2.203,6.802,6.802,70.381,-2.301,6.902,-7.334,158.358,76.246,70.381
0.265,2.347,7.377,-6.275,58.651,-2.251,6.85,6.706,64.516,-2.445,6.759,-6.902,158.358,82.111,64.516
0.27,2.395,7.616,-6.371,58.651,-2.156,6.946,6.802,58.651,-2.013,6.471,-7.046,152.493,82.111,58.651
0.275,2.635,7.856,-6.514,58.651,-2.203,7.137,6.85,58.651,-1.869,6.471,-7.046,146.628,82.111,52.786
0.28,2.73,8.239,-6.275,52.786,-2.443,7.568,6.706,52.786,-1.869,6.902,-7.046,140.762,82.111,52.786
0.28500000000000003,2.922,8.383,-5.892,52.786,-2.635,7.808,6.371,52.786,-2.301,7.334,-6.759,129.032,76.246,52.786
0.29,3.018,8.478,-5.604,46.921,-2.778,7.999,5.94,46.921,-2.445,7.621,-6.327,123.167,76.246,46.921
0.295,2.826,8.383,-5.365,41.056,-2.539,8.095,5.7,41.056,-2.301,7.909,-6.04,117.302,70.381,41.056
0.3,2.682,8.095,-5.317,35.191,-2.299,7.856,5.604,41.056,-1.869,7.909,-5.896,111.437,70.381,35.191
0.305,2.682,7.904,-5.365,35.191,-2.251,7.616,5.604,35.191,-1.726,7.621,-5.752,105.572,64.516,35.191
0.31,2.778,8.095,-5.413,35.191,-2.395,7.52,5.652,35.191,-1.869,7.334,-5.896,99.707,58.651,35.191
0.315,3.018,8.766,-5.556,35.191,-2.491,7.951,5.796,35.191,-1.869,7.334,-5.896,93.842,52.786,35.191
0.32,3.305,9.58,-5.461,35.191,-2.682,8.67,5.748,35.191,-1.869,7.909,-6.04,87.977,52.786,35.191
0.325,3.449,9.963,-5.317,35.191,-2.874,9.101,5.604,35.191,-2.013,8.34,-5.896,76.246,46.921,35.191
0.33,3.353,9.772,-5.125,29.326,-2.874,9.197,5.365,29.326,-2.157,8.484,-5.608,64.516,41.056,35.191
0.335,3.114,9.149,-4.982,23.46,-2.73,8.862,5.269,23.46,-2.157,8.628,-5.464,52.786,29.326,29.326
0.34,2.778,8.287,-4.982,17.595,-2.587,8.239,5.221,17.595,-2.157,8.484,-5.321,46.921,23.46,23.46
0.34500000000000003,2.491,7.568,-4.982,11.73,-2.347,7.712,5.221,17.595,-2.157,8.197,-5.321,41.056,17.595,11.73
0.35000000000000003,2.491,7.137,-4.982,11.73,-2.347,7.233,5.221,11.73,-2.157,7.765,-5.321,35.191,17.595,11.73
0.355,2.443,7.041,-5.077,11.73,-2.395,7.041,5.317,11.73,-2.157,7.478,-5.321,35.191,17.595,11.73
0.36,2.539,7.185,-5.221,11.73,-2.395,7.089,5.461,11.73,-2.301,7.478,-5.464,41.056,17.595,11.73
0.365,2.539,7.425,-5.317,11.73,-2.395,7.281,5.556,11.73,-2.157,7.478,-5.608,41.056,17.595,11.73
0.37,2.635,7.568,-5.365,11.73,-2.491,7.377,5.604,17.595,-2.301,7.478,-5.752,41.056,17.595,11.73
0.375,2.682,7.616,-5.365,11.73,-2.539,7.425,5.604,11.73,-2.301,7.621,-5.752,41.056,17.595,11.73
0.38,2.682,7.52,-5.365,11.73,-2.635,7.425,5.556,11.73,-2.445,7.621,-5.608,41.056,17.595,11.73
0.385,2.73,7.568,-5.365,11.73,-2.635,7.425,5.604,11.73,-2.445,7.621,-5.752,35.191,17.595,11.73
0.39,2.778,7.664,-5.461,11.73,-2.635,7.472,5.7,11.73,-2.445,7.621,-5.752,35.191,17.595,11.73
0.395,2.73,7.712,-5.604,5.865,-2.635,7.472,5.844,5.865,-2.445,7.621,-5.896,35.191,17.595,5.865
0.4,2.682,7.664,-5.796,5.865,-2.539,7.425,5.988,5.865,-2.301,7.478,-6.04,35.191,17.595,5.865
0.405,2.73,7.616,-5.892,5.865,-2.587,7.329,6.131,5.865,-2.301,7.334,-6.183,29.326,17.595,5.865
0.41000000000000003,2.73,7.568,-5.988,5.865,-2.635,7.185,6.227,11.73,-2.445,7.19,-6.327,29.326,17.595,5.865
0.41500000000000004,2.635,7.52,-6.131,5.865,-2.587,7.137,6.371,5.865,-2.445,7.046,-6.471,23.46,17.595,5.865
0.42,2.587,7.52,-6.179,5.865,-2.539,7.185,6.467,5.865,-2.445,7.046,-6.615,17.595,17.595,5.865
0.425,2.539,7.472,-6.131,5.865,-2.491,7.233,6.419,5.865,-2.445,7.19,-6.615,5.865,17.595,5.865
0.43,2.491,7.377,-6.035,5.865,-2.443,7.137,6.323,5.865,-2.445,7.19,-6.471,5.865,17.595,5.865
0.435,2.491,7.329,-5.94,5.865,-2.395,7.089,6.227,5.865,-2.301,7.19,-6.327,5.865,17.595,5.865
0.44,2.443,7.281,-5.796,5.865,-2.299,6.993,6.083,5.865,-2.157,7.046,-6.183,0.0,17.595,5.865
0.445,2.395,7.281,-5.796,5.865,-2.251,7.041,6.035,5.865,-2.013,7.046,-6.183,0.0,17.595,5.865
0.45,2.443,7.281,-5.7,5.865,-2.251,7.089,5.988,5.865,-2.013,7.19,-6.183,-5.865,17.595,5.865
0.455,2.395,7.233,-5.748,5.865,-2.203,7.089,5.988,5.865,-2.013,7.19,-6.04,-5.865,17.595,5.865
0.46,2.347,7.137,-5.748,5.865,-2.156,7.041,5.988,5.865,-1.869,7.19,-6.04,-11.73,17.595,0.0
0.465,2.299,6.993,-5.796,5.865,-2.108,6.946,6.035,5.865,-1.869,7.19,-6.183,-11.73,17.595,0.0
0.47000000000000003,2.251,6.898,-5.844,5.865,-2.156,6.898,6.131,5.865,-1.869,7.19,-6.183,-11.73,17.595,0.0
0.47500000000000003,2.347,6.898,-5.844,5.865,-2.203,6.946,6.131,5.865,-2.013,7.334,-6.183,-11.73,11.73,5.865
0.48,2.347,6.946,-5.94,5.865,-2.251,6.946,6.179,5.865,-2.013,7.334,-6.183,-11.73,11.73,5.865
0.485,2.395,6.993,-6.035,11.73,-2.299,6.946,6.275,11.73,-2.157,7.334,-6.327,-5.865,17.595,5.865
0.49,2.443,7.137,-6.035,11.73,-2.347,7.041,6.323,11.73,-2.157,7.334,-6.471,-5.865,11.73,5.865
0.495,2.491,7.137,-5.988,11.73,-2.395,7.089,6.323,11.73,-2.157,7.334,-6.471,-5.865,11.73,11.73
0.5,2.491,7.185,-5.94,11.73,-2.395,7.137,6.227,11.73,-2.301,7.334,-6.327,-5.865,11.73,11.73
0.505,2.539,7.329,-5.892,11.73,-2.443,7.185,6.131,11.73,-2.301,7.478,-6.327,-5.865,17.595,11.73
0.51,2.587,7.52,-5.844,11.73,-2.443,7.377,6.131,11.73,-2.301,7.478,-6.183,-5.865,17.595,11.73
0.515,2.635,7.808,-5.796,11.73,-2.491,7.568,6.083,11.73,-2.301,7.621,-6.183,-5.865,17.595,11.73
0.52,2.635,7.951,-5.604,11.73,-2.443,7.76,5.892,11.73,-2.157,7.765,-6.04,-5.865,17.595,11.73
0.525,2.587,7.951,-5.269,11.73,-2.443,7.808,5.604,11.73,-2.157,7.909,-5.896,-5.865,17.595,11.73
0.53,2.443,7.808,-4.742,11.73,-2.299,7.808,5.077,11.73,-2.013,8.053,-5.464,-11.73,17.595,11.73
0.535,2.299,7.664,-4.072,11.73,-2.156,7.808,4.503,11.73,-2.013,8.197,-4.889,-11.73,11.73,11.73
0.54,2.156,7.76,-3.449,5.865,-2.012,7.951,3.832,11.73,-1.869,8.484,-4.17,-11.73,11.73,11.73
0.545,2.203,8.047,-2.826,5.865,-1.916,8.239,3.209,5.865,-1.582,8.772,-3.595,-5.865,11.73,5.865
0.55,2.251,8.287,-2.299,5.865,-1.868,8.574,2.635,5.865,-1.438,9.203,-3.02,0.0,5.865,5.865
0.555,2.251,8.622,-1.772,5.865,-1.772,8.909,2.108,5.865,-1.294,9.635,-2.445,5.865,5.865,5.865
0.56,2.347,8.909,-1.293,5.865,-1.724,9.197,1.629,5.865,-1.007,9.922,-1.869,5.865,0.0,5.865
0.5650000000000001,2.443,9.149,-0.91,-0.0,-1.772,9.341,1.198,5.865,-1.007,10.066,-1.438,17.595,-5.865,5.865
0.5700000000000001,2.587,9.293,-0.623,-0.0,-1.772,9.436,0.862,0.0,-0.863,10.066,-1.007,23.46,-11.73,0.0
0.5750000000000001,2.682,9.532,-0.479,-0.0,-1.82,9.484,0.671,0.0,-0.719,9.922,-0.863,29.326,-17.595,0.0
0.58,2.826,9.82,-0.383,-5.865,-1.772,9.532,0.623,-5.865,-0.575,9.778,-0.863,35.191,-29.326,-5.865
0.585,2.826,10.107,-0.527,-11.73,-1.772,9.724,0.671,-11.73,-0.575,9.635,-0.719,35.191,-41.056,-11.73
0.59,2.97,10.251,-0.623,-11.73,-1.868,9.676,0.814,-11.73,-0.575,9.491,-1.007,35.191,-52.786,-11.73
0.595,2.922,10.394,-0.814,-17.595,-1.868,9.772,1.006,-23.46,-0.575,9.347,-1.007,29.326,-70.381,-17.595
0.6,2.826,10.346,-1.102,-29.326,-1.82,9.772,1.245,-29.326,-0.575,9.347,-1.294,23.46,-82.111,-23.46
0.605,2.682,10.059,-1.533,-35.191,-1.772,9.58,1.677,-35.191,-0.575,9.203,-1.726,5.865,-93.842,-35.191
0.61,2.443,9.628,-2.108,-41.056,-1.581,9.245,2.203,-46.921,-0.575,9.059,-2.157,5.865,-111.437,-41.056
0.615,2.203,9.101,-2.778,-46.921,-1.437,8.814,2.874,-46.921,-0.431,8.628,-2.876,-5.865,-123.167,-46.921
0.62,2.06,8.574,-3.497,-46.921,-1.389,8.43,3.64,-52.786,-0.431,8.484,-3.595,-11.73,-134.897,-52.786
0.625,1.868,7.999,-4.455,-52.786,-1.341,7.999,4.551,-52.786,-0.575,8.197,-4.458,-17.595,-140.762,-52.786
0.63,1.581,7.425,-5.652,-52.786,-1.198,7.616,5.7,-52.786,-0.575,8.053,-5.464,-23.46,-152.493,-58.651
0.635,1.293,6.802,-7.089,-46.921,-1.102,7.185,7.137,-52.786,-0.719,7.909,-6.759,-23.46,-158.358,-58.651
0.64,1.102,6.275,-8.67,-46.921,-1.054,6.754,8.67,-52.786,-0.863,7.621,-8.197,-17.595,-164.223,-52.786
0.645,1.054,5.844,-10.538,-35.191,-1.15,6.371,10.49,-46.921,-1.007,7.334,-9.778,-17.595,-164.223,-46.921
0.65,0.91,5.365,-12.406,-35.191,-1.389,5.94,12.358,-41.056,-1.438,6.902,-11.648,-5.865,-164.223,-41.056
0.655,0.862,4.838,-14.274,-23.46,-1.724,5.413,14.274,-29.326,-2.301,6.471,-13.517,0.0,-158.358,-35.191
0.66,1.006,4.455,-16.094,-17.595,-2.108,4.886,16.094,-23.46,-3.164,5.752,-15.387,5.865,-146.628,-23.46
0.665,1.102,4.215,-17.723,-11.73,-2.491,4.407,17.771,-17.595,-3.739,5.177,-16.968,5.865,-134.897,-17.595
0.67,1.341,4.024,-19.016,-5.865,-2.922,3.976,19.112,-11.73,-4.458,4.458,-18.694,17.595,-117.302,-11.73
0.675,1.437,3.688,-19.783,-5.865,-3.209,3.593,20.022,-5.865,-5.033,3.739,-19.701,17.595,-87.977,-11.73
0.68,1.389,3.353,-20.214,-0.0,-3.305,3.257,20.549,0.0,-5.464,3.307,-20.42,17.595,-64.516,0.0
0.685,1.102,3.209,-20.262,5.865,-3.066,3.209,20.645,5.865,-5.464,3.307,-20.707,5.865,-35.191,0.0
0.6900000000000001,0.958,3.161,-19.831,5.865,-2.778,3.209,20.31,5.865,-5.177,3.307,-20.563,5.865,-5.865,5.865
0.6950000000000001,0.862,3.353,-19.16,11.73,-2.491,3.305,19.735,11.73,-4.602,3.451,-19.988,5.865,29.326,5.865
0.7000000000000001,0.862,3.784,-18.537,17.595,-2.299,3.64,19.112,17.595,-4.17,3.595,-19.413,5.865,58.651,17.595
0.705,1.15,4.167,-17.771,29.326,-2.347,3.928,18.394,29.326,-4.026,3.739,-18.838,5.865,82.111,23.46
0.71,1.341,4.551,-16.813,35.191,-2.299,4.072,17.531,35.191,-3.739,3.739,-18.119,5.865,105.572,29.326
0.715,1.485,4.838,-15.424,35.191,-2.395,4.359,16.19,35.191,-3.451,3.883,-16.968,0.0,129.032,35.191
0.72,1.341,4.934,-14.274,35.191,-2.156,4.503,14.993,35.191,-3.307,4.026,-15.674,-5.865,146.628,35.191
0.725,1.293,4.934,-13.125,29.326,-1.916,4.598,13.987,35.191,-2.876,4.458,-14.668,-11.73,158.358,35.191
0.73,0.958,5.077,-11.975,29.326,-1.389,4.742,12.837,29.326,-2.301,4.458,-13.517,-17.595,175.953,29.326
0.735,1.15,5.173,-10.203,29.326,-1.15,4.982,11.257,35.191,-1.582,4.889,-12.367,-23.46,187.683,29.326
0.74,1.102,5.077,-8.191,29.326,-1.054,5.077,9.197,35.191,-1.15,5.033,-10.354,-29.326,193.548,29.326
0.745,0.383,4.838,-6.562,35.191,-0.335,5.173,7.377,35.191,-0.288,5.464,-8.34,-29.326,199.413,29.326
0.75,0.24,4.838,-4.886,41.056,0.096,5.413,5.748,46.921,0.288,6.183,-6.759,-29.326,193.548,41.056
0.755,0.623,5.317,-3.066,46.921,-0.096,5.94,3.928,46.921,0.575,6.902,-5.033,-23.46,193.548,46.921
0.76,0.958,5.988,-1.437,52.786,-0.287,6.562,2.203,52.786,0.431,7.478,-3.307,-11.73,187.683,46.921
0.765,0.91,6.658,-0.096,58.651,-0.192,7.137,0.766,58.651,0.719,8.053,-1.582,0.0,187.683,52.786
0.77,1.102,7.377,1.054,58.651,-0.192,7.712,-0.431,64.516,0.863,8.484,-0.288,17.595,175.953,58.651
0.775,1.581,8.191,2.108,64.516,-0.527,8.287,-1.581,64.516,0.719,8.916,0.863,29.326,164.223,58.651
0.78,1.916,8.909,2.97,64.516,-0.814,8.766,-2.539,64.516,0.575,9.059,1.869,41.056,158.358,64.516
0.785,2.251,9.58,3.64,64.516,-0.958,9.197,-3.305,64.516,0.431,9.203,2.732,46.921,140.762,64.516
0.79,2.635,10.203,4.311,58.651,-1.198,9.676,-4.024,58.651,0.431,9.491,3.451,46.921,129.032,58.651
0.795,2.97,10.73,4.982,52.786,-1.437,10.155,-4.694,58.651,0.288,9.778,4.17,46.921,111.437,58.651
0.8,3.209,11.209,5.461,46.921,-1.629,10.586,-5.269,46.921,0.288,10.21,4.889,41.056,93.842,46.921
0.805,3.401,11.544,5.844,35.191,-1.677,10.873,-5.7,35.191,0.288,10.497,5.321,41.056,76.246,41.056
0.81,3.545,11.831,6.035,23.46,-1.724,11.113,-5.988,29.326,0.431,10.785,5.752,29.326,52.786,29.326
0.8150000000000001,3.64,12.023,5.94,17.595,-1.82,11.257,-5.94,17.595,0.431,10.785,5.896,23.46,29.326,23.46
0.8200000000000001,3.736,12.119,5.7,5.865,-1.916,11.304,-5.7,5.865,0.288,10.785,5.608,5.865,0.0,11.73
0.8250000000000001,3.736,12.119,5.317,-5.865,-2.012,11.257,-5.317,-5.865,0.144,10.641,5.321,5.865,-23.46,0.0
0.8300000000000001,3.688,11.927,4.886,-17.595,-2.012,11.017,-4.886,-11.73,0.144,10.354,4.889,-5.865,-46.921,-11.73
0.835,3.449,11.688,4.359,-23.46,-1.916,10.778,-4.359,-23.46,0.0,10.066,4.458,-17.595,-70.381,-17.595
0.84,3.114,11.113,3.784,-35.191,-1.677,10.394,-3.736,-35.191,0.0,9.778,3.739,-29.326,-93.842,-35.191
0.845,2.635,10.299,2.97,-46.921,-1.389,9.915,-2.922,-46.921,0.288,9.635,3.02,-46.921,-117.302,-41.056
0.85,2.108,9.341,2.012,-52.786,-1.102,9.341,-1.964,-58.651,0.288,9.491,2.157,-52.786,-140.762,-52.786
0.855,1.629,8.335,0.766,-58.651,-0.91,8.718,-0.719,-64.516,0.288,9.347,1.007,-64.516,-158.358,-58.651
0.86,1.102,7.425,-0.814,-58.651,-0.719,8.239,0.814,-64.516,0.0,9.347,-0.288,-64.516,-170.088,-64.516
0.865,0.623,6.61,-2.682,-58.651,-0.575,7.712,2.635,-64.516,-0.288,9.347,-2.013,-58.651,-181.818,-64.516
0.87,0.527,6.035,-4.742,-52.786,-0.719,7.281,4.646,-58.651,-0.575,9.203,-3.883,-41.056,-187.683,-58.651
0.875,0.575,5.748,-6.993,-41.056,-1.006,6.946,6.85,-46.921,-1.15,8.916,-6.04,-23.46,-181.818,-52.786
0.88,0.766,5.604,-9.197,-35.191,-1.437,6.658,9.101,-41.056,-1.869,8.34,-8.197,-5.865,-181.818,-46.921
0.885,0.91,5.556,-11.304,-29.326,-1.868,6.371,11.257,-35.191,-2.588,7.909,-10.354,5.865,-170.088,-35.191
0.89,1.245,5.556,-13.173,-23.46,-2.347,6.083,13.173,-23.46,-3.307,7.334,-12.367,29.326,-152.493,-23.46
0.895,1.677,5.604,-14.705,-17.595,-2.874,5.844,14.753,-17.595,-4.026,6.615,-14.092,41.056,-134.897,-23.46
0.9,1.916,5.604,-15.855,-11.73,-3.257,5.652,15.999,-11.73,-4.602,6.183,-15.53,52.786,-117.302,-17.595
0.905,2.156,5.652,-16.621,-5.865,-3.497,5.509,16.861,-11.73,-4.889,5.752,-16.537,52.786,-93.842,-11.73
0.91,2.299,5.652,-17.052,-5.865,-3.64,5.413,17.34,-5.865,-5.033,5.464,-17.112,58.651,-70.381,-11.73
0.915,2.299,5.7,-17.148,-5.865,-3.545,5.365,17.531,-5.865,-5.033,5.177,-17.544,52.786,-46.921,-5.865
0.92,2.395,5.652,-16.909,-0.0,-3.449,5.221,17.34,-5.865,-4.745,5.033,-17.4,46.921,-29.326,-5.865
0.925,2.299,5.413,-16.478,-0.0,-3.209,5.03,16.909,0.0,-4.458,4.745,-17.112,41.056,-5.865,0.0
0.93,2.156,5.269,-15.903,5.865,-2.922,4.838,16.382,5.865,-3.883,4.602,-16.681,35.191,11.73,0.0
0.935,2.108,5.125,-15.232,11.73,-2.73,4.694,15.711,11.73,-3.595,4.458,-16.106,29.326,29.326,5.865
0.9400000000000001,2.012,5.03,-14.657,11.73,-2.635,4.551,15.089,11.73,-3.307,4.314,-15.387,17.595,41.056,11.73
0.9450000000000001,1.82,4.982,-13.987,17.595,-2.395,4.551,14.514,17.595,-3.02,4.17,-14.811,5.865,52.786,17.595
0.9500000000000001,1.82,4.982,-13.173,23.46,-2.395,4.646,13.747,23.46,-3.02,4.314,-14.236,0.0,58.651,23.46
0.9550000000000001,1.772,4.982,-12.071,23.46,-2.299,4.694,12.741,23.46,-3.02,4.458,-13.373,-5.865,70.381,23.46
0.96,1.533,4.886,-10.682,29.326,-1.916,4.742,11.4,29.326,-2.588,4.602,-12.079,-11.73,82.111,23.46
0.965,1.581,4.455,-8.766,29.326,-1.772,4.551,9.628,29.326,-1.726,5.608,-10.785,-17.595,87.977,29.326
0.97,0.144,4.263,-7.616,29.326,-0.335,4.646,8.191,29.326,-0.719,4.745,-8.772,-17.595,93.842,29.326
0.975,0.671,4.167,-6.035,35.191,-0.431,4.646,6.802,35.191,-0.431,5.608,-7.765,-17.595,93.842,35.191
0.98,0.479,5.03,-5.317,41.056,-0.766,5.413,5.796,41.056,-0.719,6.615,-6.04,-5.865,99.707,41.056
0.985,1.724,5.652,-4.982,41.056,-1.581,5.844,5.317,41.056,-1.294,6.471,-5.608,5.865,99.707,41.056
0.99,1.533,6.514,-4.407,41.056,-1.341,6.514,4.886,41.056,-1.294,6.902,-5.321,5.865,105.572,41.056
0.995,1.772,7.137,-3.976,35.191,-1.15,6.706,4.359,41.056,-0.863,6.902,-4.745,23.46,105.572,41.056
1.0,1.772,7.329,-3.257,46.921,-1.054,6.85,3.688,41.056,-0.144,6.615,-4.314,23.46,105.572,41.056
1.0050000000000001,1.916,7.377,-2.395,52.786,-1.054,7.185,2.874,52.786,0.0,7.046,-3.451,23.46,93.842,46.921
1.01,2.108,7.616,-1.724,52.786,-1.389,7.52,2.06,52.786,-0.288,7.621,-2.588,17.595,82.111,46.921
1.0150000000000001,2.156,7.999,-1.389,46.921,-1.485,7.951,1.629,52.786,-0.719,8.197,-1.869,5.865,76.246,46.921
1.02,2.299,8.335,-1.437,46.921,-1.485,8.143,1.629,46.921,-0.575,8.34,-1.726,17.595,64.516,46.921
1.025,2.299,8.478,-1.629,41.056,-1.533,8.287,1.772,46.921,-0.575,8.34,-1.869,17.595,58.651,46.921
1.03,2.443,8.622,-1.772,41.056,-1.772,8.383,1.964,41.056,-0.863,8.484,-2.013,17.595,46.921,41.056
1.035,2.587,8.909,-1.964,35.191,-1.964,8.622,2.108,35.191,-1.15,8.628,-2.157,5.865,41.056,35.191
1.04,2.539,9.101,-2.108,35.191,-1.964,8.814,2.251,35.191,-1.294,8.772,-2.301,5.865,29.326,35.191
1.045,2.539,9.101,-2.299,35.191,-1.964,8.957,2.443,35.191,-1.15,9.059,-2.445,5.865,23.46,35.191
1.05,2.491,9.005,-2.491,29.326,-2.06,9.053,2.682,35.191,-1.438,9.347,-2.732,5.865,17.595,29.326
1.055,2.491,8.909,-2.635,29.326,-2.108,9.005,2.826,29.326,-1.582,9.491,-2.876,5.865,11.73,29.326
1.06,2.443,8.814,-2.826,23.46,-2.108,8.862,3.018,23.46,-1.582,9.347,-3.02,5.865,5.865,23.46
1.065,2.251,8.574,-3.114,23.46,-1.916,8.718,3.257,23.46,-1.438,9.203,-3.307,5.865,0.0,23.46
1.07,2.203,8.383,-3.353,17.595,-1.868,8.574,3.545,17.595,-1.438,9.203,-3.451,5.865,0.0,17.595
1.075,2.156,8.143,-3.593,17.595,-1.916,8.383,3.736,17.595,-1.438,9.059,-3.739,17.595,-5.865,17.595
1.08,2.06,7.856,-3.928,17.595,-1.868,8.095,4.072,17.595,-1.582,8.772,-4.026,23.46,-11.73,17.595
1.085,1.964,7.664,-4.263,17.595,-1.82,7.808,4.407,17.595,-1.726,8.484,-4.314,23.46,-11.73,17.595
1.09,1.964,7.616,-4.646,17.595,-1.868,7.664,4.79,17.595,-1.582,8.053,-4.745,29.326,-11.73,17.595
1.095,2.012,7.664,-5.03,17.595,-1.868,7.568,5.173,17.595,-1.726,7.909,-5.033,29.326,-11.73,17.595
1.1,2.06,7.808,-5.365,11.73,-1.916,7.616,5.556,11.73,-1.869,7.765,-5.464,29.326,-11.73,11.73
1.105,2.203,7.951,-5.604,11.73,-2.012,7.664,5.796,11.73,-1.869,7.621,-5.896,29.326,-11.73,11.73
1.11,2.203,7.904,-5.748,11.73,-2.06,7.616,5.988,11.73,-1.869,7.478,-6.04,29.326,-11.73,11.73
1.115,2.06,7.664,-5.892,11.73,-1.916,7.425,6.131,11.73,-1.726,7.478,-6.183,23.46,-11.73,11.73
1.12,2.012,7.377,-5.988,11.73,-1.868,7.185,6.227,11.73,-1.726,7.334,-6.327,23.46,-11.73,11.73
1.125,1.916,7.185,-6.035,5.865,-1.82,6.993,6.323,11.73,-1.582,7.046,-6.471,17.595,-11.73,5.865
1.1300000000000001,2.012,7.568,-6.179,11.73,-1.772,6.993,6.371,11.73,-1.582,6.902,-6.471,5.865,-11.73,11.73
1.135,2.682,9.053,-6.562,5.865,-2.156,7.951,6.706,11.73,-1.582,7.046,-6.615,5.865,-11.73,11.73
1.1400000000000001,3.545,11.065,-7.089,5.865,-2.97,9.82,7.233,5.865,-2.157,8.053,-7.19,0.0,-11.73,5.865
1.145,4.119,11.017,-6.85,-11.73,-3.832,10.442,7.185,-11.73,-3.164,9.635,-7.478,-11.73,-17.595,0.0
1.1500000000000001,2.73,9.341,-6.323,-23.46,-2.826,9.149,6.658,-23.46,-3.02,9.347,-7.046,-23.46,-17.595,-17.595
1.155,1.82,8.095,-6.275,-17.595,-1.533,8.095,6.562,-17.595,-1.582,8.34,-6.615,-35.191,-23.46,-23.46
1.16,2.251,7.664,-5.94,-5.865,-1.916,7.808,6.323,-11.73,-1.15,8.053,-6.615,-41.056,-23.46,-17.595
1.165,2.156,7.137,-5.7,-5.865,-2.443,7.712,5.94,-5.865,-2.157,8.484,-6.183,-41.056,-23.46,-5.865
1.17,1.82,6.706,-5.988,-0.0,-2.156,7.329,6.179,0.0,-2.588,8.628,-6.04,-41.056,-23.46,-5.865
1.175,1.82,6.467,-6.371,-0.0,-1.964,6.946,6.61,0.0,-2.301,8.053,-6.471,-29.326,-23.46,0.0
1.18,2.012,6.514,-6.514,-0.0,-2.156,6.802,6.802,0.0,-2.157,7.478,-6.759,-23.46,-17.595,0.0
1.185,2.06,6.754,-6.562,-0.0,-2.299,7.041,6.85,5.865,-2.445,7.621,-6.902,-17.595,-11.73,0.0
1.19,2.156,7.089,-6.514,-0.0,-2.395,7.377,6.802,0.0,-2.588,8.053,-6.902,-5.865,-5.865,0.0
1.195,2.251,7.377,-6.419,-0.0,-2.347,7.616,6.658,0.0,-2.588,8.197,-6.759,0.0,0.0,0.0
1.2,2.251,7.472,-6.323,-5.865,-2.299,7.712,6.61,0.0,-2.301,8.34,-6.759,5.865,5.865,0.0
1.205,2.299,7.52,-6.227,-0.0,-2.299,7.664,6.514,0.0,-2.301,8.197,-6.615,5.865,5.865,-5.865
1.21,2.299,7.472,-6.131,-0.0,-2.299,7.568,6.467,0.0,-2.301,8.053,-6.615,17.595,11.73,0.0
1.215,2.299,7.377,-5.988,-0.0,-2.251,7.377,6.323,0.0,-2.157,7.909,-6.471,17.595,17.595,0.0
1.22,2.251,7.185,-5.892,-0.0,-2.203,7.137,6.179,0.0,-2.157,7.478,-6.327,23.46,17.595,0.0
1.225,2.203,7.185,-5.94,-0.0,-1.964,7.233,6.323,5.865,-2.013,7.478,-6.327,23.46,17.595,0.0
1.23,2.587,7.377,-5.365,5.865,-2.203,7.185,5.892,5.865,-2.013,7.334,-6.327,23.46,17.595,0.0
1.235,1.868,7.568,-5.461,5.865,-2.012,7.233,5.509,5.865,-1.869,7.19,-5.464,23.46,17.595,5.865
1.24,2.108,7.52,-5.7,11.73,-1.868,7.233,5.892,11.73,-1.726,7.334,-6.04,17.595,17.595,5.865
1.245,2.443,7.76,-5.509,11.73,-2.108,7.52,5.892,11.73,-1.726,7.478,-6.183,5.865,17.595,11.73
1.25,2.443,7.999,-5.125,11.73,-2.203,7.616,5.317,11.73,-1.869,7.478,-5.752,5.865,17.595,11.73
1.2550000000000001,2.108,7.856,-5.413,11.73,-1.868,7.712,5.652,11.73,-1.726,7.621,-5.608,5.865,17.595,11.73
1.26,2.156,7.951,-5.413,11.73,-1.82,7.76,5.652,11.73,-1.438,7.765,-5.752,5.865,17.595,11.73
1.2650000000000001,2.299,7.951,-5.365,5.865,-2.012,7.712,5.604,11.73,-1.438,7.765,-5.752,0.0,11.73,11.73
1.27,2.156,7.904,-5.461,5.865,-1.964,7.76,5.652,11.73,-1.726,7.765,-5.752,0.0,11.73,5.865
1.2750000000000001,2.108,7.904,-5.604,11.73,-1.868,7.76,5.796,11.73,-1.582,7.909,-5.896,-5.865,5.865,5.865
1.28,2.156,7.808,-5.604,11.73,-1.964,7.76,5.844,11.73,-1.582,7.909,-6.04,-5.865,5.865,11.73
1.285,2.108,7.76,-5.652,5.865,-1.964,7.76,5.844,5.865,-1.726,8.053,-5.896,-5.865,5.865,5.865
1.29,2.06,7.76,-5.796,5.865,-1.916,7.76,5.988,11.73,-1.726,8.053,-6.04,-5.865,0.0,5.865
1.295,2.108,7.76,-5.844,5.865,-2.012,7.76,6.083,5.865,-1.726,8.053,-6.183,-5.865,0.0,5.865
1.3,2.156,7.76,-5.796,5.865,-2.06,7.76,6.035,5.865,-1.869,8.053,-6.183,-5.865,0.0,5.865
1.305,2.156,7.76,-5.796,5.865,-2.012,7.76,6.035,5.865,-1.869,8.053,-6.183,-5.865,0.0,5.865
1.31,2.156,7.808,-5.748,5.865,-2.06,7.76,6.035,5.865,-1.869,8.053,-6.183,-5.865,5.865,5.865
1.315,2.203,7.856,-5.7,5.865,-2.06,7.76,5.94,5.865,-1.869,8.053,-6.04,-5.865,0.0,5.865
1.32,2.203,7.808,-5.7,5.865,-2.06,7.76,5.892,5.865,-1.869,8.053,-6.04,-5.865,5.865,5.865
1.325,2.203,7.856,-5.7,5.865,-2.06,7.76,5.94,5.865,-1.869,8.053,-6.04,-5.865,5.865,5.865
1.33,2.203,7.856,-5.7,5.865,-2.108,7.808,5.94,5.865,-1.869,8.053,-6.04,-5.865,0.0,5.865
1.335,2.299,7.856,-5.748,5.865,-2.156,7.808,5.988,5.865,-1.869,8.053,-6.04,-5.865,0.0,5.865
1.34,2.299,7.904,-5.844,5.865,-2.156,7.856,6.083,5.865,-2.013,8.053,-6.183,-5.865,0.0,5.865
1.345,2.251,7.904,-5.844,5.865,-2.156,7.904,6.131,5.865,-1.869,8.197,-6.183,-5.865,0.0,5.865
1.35,2.251,7.76,-5.892,5.865,-2.156,7.76,6.131,5.865,-1.869,8.197,-6.183,-5.865,5.865,5.865
1.355,2.251,7.664,-5.988,5.865,-2.156,7.712,6.227,5.865,-2.013,8.053,-6.183,0.0,0.0,0.0
1.36,2.251,7.712,-6.035,5.865,-2.156,7.664,6.275,5.865,-2.013,8.053,-6.327,0.0,5.865,5.865
1.365,2.299,7.76,-5.988,5.865,-2.203,7.712,6.275,5.865,-2.013,8.053,-6.327,0.0,5.865,0.0
1.37,2.347,7.712,-5.94,5.865,-2.203,7.664,6.227,5.865,-2.013,7.909,-6.327,0.0,5.865,5.865
1.375,2.299,7.76,-5.94,5.865,-2.203,7.712,6.179,5.865,-2.013,7.909,-6.327,0.0,5.865,5.865
1.3800000000000001,2.347,7.856,-5.892,5.865,-2.203,7.808,6.179,5.865,-2.013,8.053,-6.327,0.0,5.865,5.865
1.385,2.347,7.951,-5.844,5.865,-2.251,7.856,6.131,5.865,-2.013,8.053,-6.183,0.0,5.865,5.865
1.3900000000000001,2.395,7.904,-5.892,5.865,-2.299,7.856,6.131,5.865,-2.013,8.197,-6.183,0.0,5.865,5.865
1.395,2.443,7.951,-5.748,5.865,-2.251,7.904,5.988,5.865,-2.013,8.197,-6.183,0.0,5.865,5.865
1.4000000000000001,2.299,7.999,-5.796,5.865,-2.156,7.951,6.035,5.865,-2.013,8.053,-6.04,0.0,5.865,5.865
1.405,2.347,8.047,-5.796,5.865,-2.156,7.999,6.035,5.865,-1.869,8.197,-6.183,0.0,5.865,5.865
1.41,2.347,8.047,-5.748,5.865,-2.203,7.999,5.988,5.865,-2.013,8.197,-6.183,0.0,5.865,5.865
1.415,2.299,7.951,-5.748,5.865,-2.156,7.951,5.94,5.865,-1.869,8.197,-6.04,0.0,5.865,5.865
1.42,2.251,7.904,-5.748,5.865,-2.108,7.904,5.988,5.865,-1.869,8.197,-6.04,0.0,5.865,5.865
1.425,2.299,7.951,-5.748,5.865,-2.156,7.904,5.988,5.865,-1.869,8.197,-6.04,0.0,5.865,5.865
1.43,2.299,7.904,-5.748,5.865,-2.156,7.856,5.988,5.865,-2.013,8.197,-6.04,0.0,5.865,5.865
1.435,2.251,7.951,-5.796,5.865,-2.108,7.904,6.035,5.865,-1.869,8.197,-6.183,0.0,5.865,5.865
1.44,2.251,7.999,-5.796,5.865,-2.108,7.951,6.035,5.865,-1.869,8.197,-6.183,0.0,5.865,0.0
1.445,2.347,7.999,-5.748,5.865,-2.156,7.999,5.988,5.865,-2.013,8.34,-6.183,5.865,5.865,0.0
1.45,2.395,8.143,-5.748,5.865,-2.251,8.095,5.988,5.865,-2.013,8.34,-6.04,5.865,5.865,5.865
1.455,2.443,8.239,-5.748,5.865,-2.299,8.239,5.988,5.865,-2.013,8.484,-6.04,5.865,5.865,5.865
1.46,2.491,8.335,-5.796,5.865,-2.347,8.335,6.035,5.865,-2.013,8.628,-6.183,5.865,5.865,5.865
1.465,2.539,8.478,-5.796,5.865,-2.395,8.478,5.988,5.865,-2.157,8.772,-6.183,5.865,5.865,5.865
1.47,2.635,8.622,-5.748,5.865,-2.443,8.622,5.988,11.73,-2.157,8.916,-6.183,5.865,5.865,5.865
1.475,2.682,8.862,-5.652,11.73,-2.539,8.814,5.892,11.73,-2.301,9.059,-6.04,5.865,5.865,11.73
1.48,2.778,9.005,-5.365,5.865,-2.635,9.101,5.652,11.73,-2.301,9.347,-5.896,5.865,5.865,11.73
1.485,2.922,9.388,-5.269,5.865,-2.73,9.436,5.461,5.865,-2.445,9.778,-5.608,5.865,5.865,5.865
1.49,3.114,9.915,-5.269,5.865,-2.874,9.82,5.461,5.865,-2.445,10.066,-5.608,17.595,5.865,5.865
1.495,3.257,10.586,-5.413,-0.0,-2.922,10.346,5.556,0.0,-2.445,10.354,-5.608,17.595,5.865,0.0
1.5,3.449,11.352,-5.604,-5.865,-2.97,10.969,5.748,0.0,-2.445,10.785,-5.752,23.46,0.0,0.0
1.5050000000000001,3.832,11.927,-5.652,-5.865,-3.353,11.544,5.796,-5.865,-2.588,11.36,-5.896,17.595,0.0,-5.865
1.51,4.119,12.215,-5.652,-11.73,-3.688,11.879,5.796,-11.73,-2.876,11.792,-6.04,17.595,0.0,-5.865
1.5150000000000001,4.119,12.167,-5.604,-17.595,-3.832,11.975,5.796,-11.73,-3.307,11.935,-5.896,5.865,-5.865,-11.73
1.52,4.024,11.927,-5.604,-23.46,-3.784,11.831,5.796,-23.46,-3.307,11.935,-5.896,5.865,-11.73,-17.595
1.5250000000000001,3.88,11.592,-5.556,-29.326,-3.688,11.544,5.748,-29.326,-3.307,11.935,-5.896,5.865,-11.73,-23.46
1.53,3.736,11.161,-5.413,-35.191,-3.545,11.257,5.652,-35.191,-3.164,11.648,-5.752,5.865,-11.73,-35.191
1.5350000000000001,3.545,10.682,-5.269,-41.056,-3.401,10.873,5.509,-41.056,-3.02,11.504,-5.608,5.865,-17.595,-41.056
1.54,3.401,10.203,-5.125,-41.056,-3.257,10.538,5.365,-41.056,-3.02,11.216,-5.464,5.865,-17.595,-41.056
1.545,3.257,9.867,-4.982,-41.056,-3.209,10.203,5.221,-46.921,-2.876,10.929,-5.321,5.865,-17.595,-46.921
1.55,3.161,9.532,-4.982,-46.921,-3.066,9.867,5.173,-46.921,-2.876,10.641,-5.321,5.865,-17.595,-46.921
1.555,3.114,9.341,-4.934,-46.921,-2.97,9.58,5.125,-46.921,-2.732,10.354,-5.321,17.595,-17.595,-46.921
1.56,2.922,9.101,-4.886,-46.921,-2.826,9.293,5.125,-52.786,-2.588,9.922,-5.321,23.46,-11.73,-46.921
1.565,2.778,8.718,-4.886,-46.921,-2.682,8.957,5.125,-52.786,-2.588,9.635,-5.177,29.326,-11.73,-52.786
1.57,2.587,8.335,-4.886,-46.921,-2.539,8.574,5.125,-52.786,-2.445,9.203,-5.177,29.326,-11.73,-52.786
1.575,2.491,7.951,-4.886,-52.786,-2.443,8.143,5.125,-52.786,-2.301,8.916,-5.177,35.191,-11.73,-52.786
1.58,2.347,7.616,-4.838,-52.786,-2.299,7.808,5.077,-52.786,-2.157,8.484,-5.177,41.056,-11.73,-52.786
1.585,2.203,7.281,-4.886,-46.921,-2.108,7.425,5.125,-52.786,-2.013,8.053,-5.177,41.056,-11.73,-52.786
1.59,2.108,6.946,-5.03,-52.786,-2.012,7.041,5.269,-52.786,-1.869,7.621,-5.321,46.921,-11.73,-52.786
1.595,2.06,6.802,-5.221,-46.921,-1.916,6.802,5.413,-46.921,-1.726,7.19,-5.464,46.921,-11.73,-52.786
1.6,1.964,6.802,-5.365,-46.921,-1.868,6.658,5.556,-46.921,-1.726,6.902,-5.608,46.921,-11.73,-46.921
1.605,1.964,6.658,-5.461,-41.056,-1.82,6.562,5.7,-46.921,-1.582,6.759,-5.752,46.921,-11.73,-46.921
1.61,1.868,6.514,-5.556,-41.056,-1.724,6.419,5.796,-46.921,-1.582,6.615,-5.896,46.921,-11.73,-46.921
1.615,1.82,6.371,-5.604,-41.056,-1.677,6.227,5.844,-41.056,-1.438,6.471,-5.896,46.921,-11.73,-46.921
1.62,1.724,6.179,-5.7,-41.056,-1.581,6.083,5.94,-41.056,-1.438,6.183,-6.04,46.921,-11.73,-41.056
1.625,1.581,5.892,-5.844,-41.056,-1.437,5.796,6.083,-41.056,-1.294,5.896,-6.183,41.056,-11.73,-46.921
1.6300000000000001,1.389,5.556,-5.94,-35.191,-1.293,5.509,6.227,-41.056,-1.15,5.752,-6.327,41.056,-11.73,-41.056
1.635,1.293,5.269,-6.035,-35.191,-1.245,5.221,6.323,-41.056,-1.15,5.464,-6.327,41.056,-11.73,-41.056
1.6400000000000001,1.245,4.934,-6.227,-35.191,-1.245,4.886,6.467,-35.191,-1.15,5.177,-6.471,35.191,-17.595,-41.056
1.645,1.102,4.646,-6.419,-29.326,-1.15,4.598,6.658,-35.191,-1.15,4.889,-6.615,35.191,-11.73,-35.191
1.6500000000000001,1.006,4.359,-6.61,-29.326,-1.102,4.311,6.898,-29.326,-1.294,4.602,-6.759,35.191,-11.73,-35.191
1.655,0.958,4.072,-6.754,-29.326,-1.054,3.976,7.041,-29.326,-1.15,4.314,-7.046,29.326,-11.73,-29.326
1.6600000000000001,0.91,3.88,-6.85,-23.46,-1.006,3.736,7.185,-23.46,-1.15,3.883,-7.19,29.326,-5.865,-23.46
1.665,0.91,3.545,-6.898,-17.595,-1.006,3.449,7.233,-17.595,-1.15,3.595,-7.334,29.326,-5.865,-23.46
1.67,0.814,3.257,-6.898,-11.73,-0.958,3.161,7.233,-11.73,-1.15,3.307,-7.334,29.326,0.0,-17.595
1.675,0.623,2.778,-6.85,-5.865,-0.814,2.778,7.185,-5.865,-1.15,3.02,-7.334,23.46,0.0,-11.73
1.68,0.479,2.347,-6.754,-0.0,-0.719,2.347,7.137,0.0,-1.007,2.732,-7.19,23.46,5.865,-5.865
1.685,0.335,1.964,-6.706,5.865,-0.623,1.964,7.041,5.865,-1.007,2.301,-7.19,17.595,5.865,5.865
1.69,0.192,1.677,-6.754,17.595,-0.431,1.629,7.089,17.595,-0.863,2.013,-7.19,17.595,11.73,11.73
1.695,0.144,1.581,-6.706,29.326,-0.383,1.533,7.089,23.46,-0.719,1.726,-7.19,17.595,17.595,17.595
1.7,0.096,1.629,-6.706,35.191,-0.335,1.485,7.041,35.191,-0.575,1.726,-7.046,17.595,23.46,29.326
1.705,0.0,1.868,-6.754,41.056,-0.192,1.724,7.089,41.056,-0.431,1.726,-7.19,17.595,23.46,35.191
1.71,0.144,1.916,-6.61,52.786,-0.24,1.82,6.993,52.786,-0.431,1.869,-7.046,17.595,29.326,46.921
1.715,0.096,1.916,-6.562,58.651,-0.287,1.82,6.898,58.651,-0.575,1.869,-7.046,5.865,35.191,52.786
1.72,-0.048,1.964,-6.562,64.516,-0.096,1.868,6.898,64.516,-0.431,2.013,-7.046,5.865,35.191,58.651
1.725,-0.048,2.156,-6.371,70.381,0.048,2.012,6.802,70.381,-0.144,2.013,-6.902,5.865,41.056,64.516
1.73,-0.048,2.203,-6.227,76.246,0.096,2.06,6.61,76.246,0.0,2.013,-6.759,5.865,41.056,70.381
1.735,-0.192,2.108,-6.179,82.111,0.192,2.012,6.562,82.111,0.144,2.013,-6.615,5.865,41.056,76.246
1.74,-0.24,2.108,-6.083,87.977,0.287,1.964,6.467,87.977,0.288,2.013,-6.615,5.865,41.056,82.111
1.745,-0.335,2.251,-5.988,93.842,0.383,2.108,6.371,93.842,0.288,2.013,-6.471,5.865,41.056,87.977
1.75,-0.383,2.635,-5.892,99.707,0.431,2.491,6.275,99.707,0.431,2.445,-6.471,5.865,41.056,93.842
1.7550000000000001,-0.335,2.97,-5.796,105.572,0.383,2.874,6.131,105.572,0.431,2.876,-6.327,5.865,41.056,99.707
1.76,-0.335,3.305,-5.796,111.437,0.335,3.209,6.131,111.437,0.431,3.307,-6.183,5.865,46.921,105.572
1.7650000000000001,-0.479,3.88,-5.892,117.302,0.527,3.784,6.227,117.302,0.575,3.739,-6.183,5.865,46.921,111.437
1.77,-0.287,4.503,-5.796,123.167,0.431,4.455,6.131,123.167,0.575,4.458,-6.327,5.865,46.921,117.302
1.7750000000000001,-0.096,5.03,-5.7,123.167,0.24,4.982,6.035,129.032,0.431,5.033,-6.183,5.865,46.921,123.167
1.78,-0.048,5.509,-5.7,129.032,0.144,5.413,5.988,129.032,0.288,5.464,-6.04,5.865,46.921,123.167
1.7850000000000001,0.0,6.035,-5.652,129.032,0.096,5.892,5.94,134.897,0.144,5.896,-6.04,5.865,46.921,129.032
1.79,8.239,22.8,-0.766,129.032,-2.251,14.849,5.892,129.032,0.288,6.183,-6.04,5.865,46.921,129.032
1.795,14.993,23.902,1.677,82.111,-14.226,19.304,-3.976,93.842,-13.373,66.436,6.04,0.0,52.786,117.302
1.8,4.215,22.848,-5.796,58.651,-1.533,18.585,5.652,64.516,1.15,8.053,-3.307,35.191,52.786,76.246
1.805,0.766,19.4,-2.874,11.73,2.395,18.058,3.209,17.595,0.863,17.112,-5.177,-23.46,5.865,35.191
1.81,3.018,13.795,-1.054,41.056,-1.629,15.615,1.724,23.46,5.321,16.249,-3.02,-82.111,-35.191,5.865
1.815,4.263,7.281,0.335,58.651,-5.03,9.915,0.0,64.516,-4.745,14.524,-0.863,-111.437,-64.516,52.786
1.82,2.682,9.341,-2.156,23.46,-3.88,9.245,1.772,29.326,-5.752,10.785,-0.431,-105.572,-70.381,52.786
1.825,2.587,9.676,-4.215,-5.865,-3.353,10.251,4.024,-5.865,-4.314,10.641,-3.164,-87.977,-58.651,5.865
1.83,2.251,9.005,-4.646,-11.73,-3.161,10.155,4.934,-11.73,-4.026,11.935,-4.889,-70.381,-46.921,-11.73
1.835,1.677,8.814,-4.167,-5.865,-2.012,9.915,4.503,-5.865,-3.164,11.935,-4.889,-58.651,-29.326,-11.73
1.84,1.82,8.957,-3.88,11.73,-1.581,9.724,4.119,5.865,-1.582,11.36,-4.314,-41.056,-17.595,0.0
1.845,1.677,9.245,-4.455,35.191,-1.341,9.867,4.455,29.326,-0.863,11.073,-4.314,-23.46,-11.73,17.595
1.85,1.82,9.436,-5.365,46.921,-1.389,9.915,5.413,46.921,-0.719,11.073,-5.033,-11.73,-11.73,35.191
1.855,1.82,9.388,-5.748,58.651,-1.724,9.82,5.844,58.651,-1.15,10.785,-5.896,5.865,-11.73,52.786
1.86,2.108,9.532,-6.562,64.516,-2.06,9.676,6.562,64.516,-1.869,10.354,-6.327,5.865,-17.595,58.651
1.865,1.868,9.197,-6.706,58.651,-2.06,9.436,6.993,64.516,-2.013,9.778,-7.046,23.46,-11.73,64.516
1.87,1.964,8.957,-6.754,46.921,-2.108,9.197,7.041,52.786,-2.301,9.635,-7.046,23.46,-11.73,58.651
1.875,1.868,8.862,-6.802,35.191,-1.868,9.005,7.041,41.056,-2.013,9.347,-7.19,29.326,-5.865,46.921
1.8800000000000001,1.677,8.814,-6.993,17.595,-1.581,8.766,7.185,23.46,-1.438,8.916,-7.19,29.326,-5.865,29.326
1.885,1.533,8.766,-7.089,5.865,-1.389,8.574,7.329,5.865,-1.294,8.628,-7.334,29.326,0.0,11.73
1.8900000000000001,1.485,8.718,-7.137,-0.0,-1.293,8.478,7.377,0.0,-1.007,8.484,-7.478,29.326,0.0,0.0
1.895,1.581,8.766,-7.089,-5.865,-1.341,8.43,7.329,-5.865,-1.007,8.34,-7.478,23.46,0.0,0.0
1.9000000000000001,1.724,8.766,-7.041,-5.865,-1.437,8.43,7.281,-5.865,-1.15,8.197,-7.478,17.595,-5.865,-5.865
1.905,1.724,8.718,-6.898,-11.73,-1.485,8.478,7.185,-5.865,-1.15,8.34,-7.334,5.865,-5.865,-11.73
1.9100000000000001,1.772,8.766,-6.85,-11.73,-1.581,8.478,7.137,-11.73,-1.294,8.34,-7.19,5.865,-5.865,-11.73
1.915,1.629,8.622,-6.802,-11.73,-1.485,8.478,7.041,-11.73,-1.294,8.484,-7.19,0.0,-5.865,-11.73
1.92,1.677,8.526,-6.61,-11.73,-1.533,8.478,6.898,-11.73,-1.294,8.628,-7.046,0.0,-5.865,-11.73
1.925,1.724,8.478,-6.467,-5.865,-1.581,8.526,6.754,-5.865,-1.438,8.772,-6.902,-5.865,-5.865,-11.73
1.93,1.629,8.335,-6.323,-0.0,-1.533,8.526,6.61,-5.865,-1.294,8.916,-6.759,-5.865,-5.865,-5.865
1.935,1.437,8.191,-6.131,-0.0,-1.389,8.478,6.467,0.0,-1.294,9.059,-6.615,0.0,-5.865,0.0
1.94,1.341,7.999,-5.94,5.865,-1.293,8.383,6.227,5.865,-1.15,9.059,-6.471,0.0,0.0,5.865
1.945,1.293,7.951,-5.796,11.73,-1.245,8.335,6.083,11.73,-1.15,9.059,-6.183,5.865,0.0,11.73
1.95,1.245,7.856,-5.796,23.46,-1.293,8.287,6.035,17.595,-1.294,9.059,-6.183,5.865,0.0,11.73
1.955,1.198,7.856,-5.7,23.46,-1.245,8.191,5.988,23.46,-1.294,8.916,-6.04,17.595,0.0,23.46
1.96,1.198,7.76,-5.556,23.46,-1.245,8.095,5.844,23.46,-1.294,8.772,-6.04,23.46,5.865,23.46
1.965,1.198,7.856,-5.413,23.46,-1.198,8.047,5.7,23.46,-1.15,8.628,-5.896,29.326,5.865,23.46
1.97,1.198,7.904,-5.317,23.46,-1.15,8.047,5.556,23.46,-1.15,8.628,-5.752,35.191,11.73,23.46
1.975,1.198,7.951,-5.221,23.46,-1.102,7.999,5.461,23.46,-1.007,8.484,-5.608,41.056,11.73,17.595
1.98,1.245,8.095,-5.125,17.595,-1.006,8.047,5.413,17.595,-0.863,8.197,-5.608,41.056,17.595,17.595
1.985,1.341,8.143,-4.982,17.595,-1.054,7.999,5.221,17.595,-0.719,8.053,-5.464,46.921,17.595,17.595
1.99,1.198,8.143,-4.886,17.595,-0.91,7.951,5.125,11.73,-0.719,8.053,-5.321,46.921,17.595,17.595
1.995,1.054,7.999,-4.79,11.73,-0.814,7.951,5.077,11.73,-0.575,8.053,-5.177,41.056,17.595,11.73
2.0,1.006,7.808,-4.646,11.73,-0.719,7.856,4.934,17.595,-0.431,8.053,-5.033,41.056,11.73,11.73
2.005,0.862,7.616,-4.551,11.73,-0.671,7.712,4.838,11.73,-0.431,8.053,-5.033,41.056,11.73,11.73
2.0100000000000002,0.719,7.425,-4.598,11.73,-0.575,7.664,4.838,17.595,-0.431,8.053,-4.889,41.056,5.865,11.73
2.015,0.671,7.281,-4.646,17.595,-0.575,7.616,4.886,17.595,-0.431,8.197,-4.889,41.056,5.865,11.73
2.02,0.623,7.281,-4.694,17.595,-0.623,7.664,4.934,17.595,-0.575,8.34,-5.033,46.921,5.865,17.595
2.025,0.575,7.329,-4.79,23.46,-0.671,7.76,4.982,23.46,-0.575,8.484,-5.033,52.786,11.73,17.595
2.0300000000000002,0.671,7.425,-4.934,23.46,-0.766,7.808,5.125,23.46,-0.863,8.484,-5.177,52.786,11.73,23.46
2.035,0.766,7.664,-5.03,23.46,-0.814,7.904,5.269,23.46,-0.863,8.628,-5.321,64.516,17.595,23.46
2.04,0.91,7.904,-5.077,23.46,-0.862,8.047,5.365,23.46,-0.863,8.628,-5.464,70.381,23.46,23.46
2.045,0.958,7.999,-5.077,23.46,-0.862,7.999,5.365,23.46,-0.863,8.34,-5.464,76.246,23.46,23.46
2.05,1.006,8.047,-4.934,29.326,-0.862,7.999,5.269,23.46,-0.719,8.197,-5.464,82.111,29.326,23.46
2.055,1.054,8.239,-4.886,29.326,-0.862,8.047,5.125,29.326,-0.575,8.197,-5.321,82.111,29.326,23.46
2.06,1.15,8.478,-4.934,29.326,-0.91,8.239,5.173,29.326,-0.575,8.197,-5.321,76.246,29.326,23.46
2.065,1.293,8.814,-4.982,29.326,-1.006,8.478,5.221,29.326,-0.719,8.34,-5.321,76.246,29.326,29.326
2.07,1.389,9.149,-5.03,29.326,-1.15,8.766,5.269,29.326,-0.719,8.628,-5.464,76.246,29.326,23.46
2.075,1.581,9.532,-4.934,23.46,-1.293,9.101,5.221,23.46,-1.007,8.772,-5.321,70.381,29.326,23.46
2.08,1.82,9.772,-4.886,23.46,-1.533,9.388,5.125,23.46,-1.15,9.059,-5.321,70.381,23.46,23.46
2.085,2.156,10.251,-4.886,17.595,-1.724,9.628,5.125,17.595,-1.294,9.203,-5.321,64.516,23.46,17.595
2.09,2.156,10.586,-4.934,11.73,-1.82,9.963,5.125,11.73,-1.294,9.347,-5.321,58.651,23.46,11.73
2.095,1.964,10.346,-4.742,11.73,-1.677,9.963,5.03,11.73,-1.294,9.635,-5.321,46.921,23.46,11.73
2.1,1.82,9.867,-4.503,11.73,-1.533,9.772,4.79,11.73,-1.15,9.635,-5.033,41.056,17.595,11.73
2.105,1.629,9.245,-4.215,5.865,-1.389,9.341,4.503,11.73,-1.007,9.635,-4.745,35.191,17.595,11.73
2.11,1.437,8.766,-3.928,11.73,-1.245,8.957,4.215,11.73,-1.007,9.491,-4.458,29.326,17.595,5.865
2.115,1.293,8.43,-3.736,11.73,-1.245,8.718,3.976,11.73,-1.007,9.347,-4.17,29.326,11.73,11.73
2.12,1.389,8.478,-3.497,11.73,-1.293,8.766,3.784,17.595,-1.15,9.347,-3.883,35.191,11.73,11.73
2.125,1.533,8.909,-3.353,11.73,-1.389,9.005,3.64,17.595,-1.294,9.635,-3.739,41.056,17.595,11.73
2.13,1.677,9.484,-3.114,17.595,-1.437,9.436,3.305,17.595,-1.294,9.778,-3.595,46.921,17.595,11.73
2.1350000000000002,1.581,9.963,-2.922,11.73,-1.341,9.772,3.209,11.73,-1.15,10.066,-3.451,46.921,17.595,11.73
2.14,1.485,10.107,-2.922,11.73,-1.15,9.867,3.114,11.73,-0.863,10.066,-3.307,52.786,17.595,11.73
2.145,1.437,10.107,-3.066,11.73,-1.054,9.867,3.257,11.73,-0.575,9.778,-3.307,46.921,17.595,11.73
2.15,1.437,10.011,-3.161,11.73,-1.102,9.724,3.401,11.73,-0.575,9.778,-3.451,46.921,11.73,11.73
2.1550000000000002,1.485,10.059,-2.97,11.73,-1.15,9.724,3.209,17.595,-0.719,9.635,-3.451,41.056,11.73,11.73
2.16,1.389,9.915,-3.114,11.73,-1.15,9.628,3.209,11.73,-0.863,9.491,-3.307,41.056,5.865,11.73
2.165,1.198,9.772,-3.64,5.865,-1.054,9.628,3.64,11.73,-0.863,9.635,-3.595,35.191,5.865,11.73
2.17,1.15,9.867,-3.784,5.865,-1.054,9.628,4.072,5.865,-0.863,9.778,-4.17,29.326,5.865,5.865
2.1750000000000003,1.389,9.82,-3.784,-0.0,-1.15,9.58,3.976,0.0,-0.863,9.491,-4.17,29.326,5.865,5.865
2.18,1.389,9.676,-3.928,-0.0,-1.245,9.484,4.072,0.0,-1.007,9.491,-4.026,29.326,5.865,0.0
2.185,1.293,9.58,-4.119,-0.0,-1.245,9.436,4.311,0.0,-1.15,9.491,-4.314,23.46,11.73,0.0
2.19,1.245,9.532,-4.119,-0.0,-1.102,9.436,4.311,0.0,-1.007,9.491,-4.458,23.46,11.73,-5.865
2.195,1.293,9.388,-4.119,-0.0,-1.102,9.293,4.311,0.0,-0.863,9.491,-4.458,17.595,11.73,0.0
2.2,1.245,9.388,-4.119,-0.0,-1.006,9.293,4.311,0.0,-0.719,9.491,-4.458,17.595,17.595,-5.865
2.205,1.245,9.436,-4.167,-0.0,-0.958,9.341,4.359,0.0,-0.575,9.491,-4.458,5.865,17.595,0.0
2.21,1.293,9.388,-4.167,-0.0,-1.006,9.388,4.407,0.0,-0.575,9.491,-4.458,5.865,17.595,0.0
2.215,1.341,9.293,-4.072,-0.0,-1.102,9.293,4.311,0.0,-0.719,9.635,-4.458,5.865,11.73,0.0
2.22,1.437,9.245,-4.024,-0.0,-1.198,9.245,4.215,5.865,-0.863,9.491,-4.458,5.865,11.73,0.0
2.225,1.293,9.149,-3.88,-0.0,-1.15,9.149,4.167,0.0,-0.863,9.347,-4.314,5.865,11.73,0.0
2.23,1.15,9.053,-3.832,-0.0,-1.006,9.053,4.072,0.0,-0.863,9.347,-4.17,5.865,11.73,0.0
2.235,1.102,9.101,-3.784,-0.0,-0.862,9.005,4.024,0.0,-0.575,9.203,-4.17,5.865,11.73,0.0
2.24,1.054,9.005,-3.88,-5.865,-0.814,8.909,4.072,0.0,-0.575,9.203,-4.17,5.865,11.73,0.0
2.245,1.389,8.383,-3.88,5.865,-1.341,7.52,4.072,0.0,-0.288,10.929,-4.17,5.865,11.73,0.0
2.25,1.245,9.436,-4.119,11.73,-1.054,9.724,4.359,11.73,-0.719,9.635,-4.458,5.865,11.73,-17.595
2.255,0.766,9.005,-3.832,17.595,-0.527,9.149,4.119,17.595,-0.431,8.772,-4.314,0.0,11.73,-17.595
2.2600000000000002,0.814,8.862,-3.688,11.73,-0.479,9.101,3.88,17.595,-0.431,8.916,-4.026,5.865,11.73,-11.73
2.265,0.814,8.957,-3.688,11.73,-0.527,8.957,3.928,11.73,-0.288,8.772,-4.026,5.865,11.73,-5.865
2.27,0.91,9.149,-3.832,5.865,-0.623,9.149,4.024,11.73,-0.431,9.203,-4.026,5.865,11.73,-5.865
2.275,1.054,9.197,-3.832,5.865,-0.766,9.149,4.072,11.73,-0.575,9.203,-4.17,5.865,11.73,-5.865
2.2800000000000002,1.006,9.149,-3.88,5.865,-0.766,9.101,4.072,5.865,-0.719,9.059,-4.17,5.865,11.73,-5.865
2.285,0.958,9.005,-3.976,5.865,-0.766,8.957,4.167,5.865,-0.575,9.059,-4.17,5.865,11.73,-5.865
2.29,0.958,9.005,-4.167,5.865,-0.719,8.909,4.311,5.865,-0.575,9.059,-4.314,5.865,11.73,-5.865
2.295,0.958,9.053,-4.263,5.865,-0.766,9.053,4.503,5.865,-0.719,9.059,-4.458,5.865,11.73,-5.865
2.3000000000000003,1.006,9.005,-4.263,5.865,-0.814,8.909,4.503,5.865,-0.575,9.347,-4.602,5.865,5.865,0.0
2.305,0.958,9.101,-4.311,5.865,-0.766,9.149,4.503,5.865,-0.719,9.203,-4.602,5.865,11.73,-5.865
2.31,0.91,9.101,-4.215,5.865,-0.719,9.053,4.407,5.865,-0.719,9.203,-4.602,5.865,5.865,-5.865
2.315,0.862,9.197,-4.215,-0.0,-0.671,9.101,4.407,5.865,-0.575,9.347,-4.458,5.865,11.73,-5.865
2.32,0.766,9.436,-4.263,5.865,-0.479,9.532,4.455,5.865,-0.575,9.347,-4.602,5.865,5.865,-5.865
2.325,0.623,9.436,-4.119,-0.0,-0.383,9.532,4.359,5.865,-0.431,9.491,-4.602,5.865,5.865,-5.865
2.33,0.719,9.484,-3.928,-0.0,-0.431,9.532,4.215,5.865,-0.431,9.635,-4.314,5.865,5.865,0.0
2.335,0.862,9.532,-3.928,5.865,-0.575,9.532,4.119,5.865,-0.431,9.635,-4.314,5.865,5.865,0.0
2.34,0.91,9.58,-4.024,5.865,-0.623,9.532,4.215,5.865,-0.431,9.635,-4.314,5.865,5.865,0.0
2.345,0.958,9.58,-4.024,-0.0,-0.671,9.484,4.215,5.865,-0.575,9.635,-4.314,5.865,5.865,5.865
2.35,1.006,9.532,-4.072,-0.0,-0.719,9.436,4.263,5.865,-0.575,9.491,-4.314,5.865,5.865,5.865
2.355,1.006,9.484,-4.167,-0.0,-0.719,9.388,4.359,5.865,-0.575,9.491,-4.458,5.865,5.865,0.0
2.36,1.006,9.436,-4.119,-0.0,-0.719,9.341,4.359,5.865,-0.575,9.491,-4.458,5.865,5.865,0.0
2.365,0.958,9.341,-4.072,-0.0,-0.719,9.293,4.311,0.0,-0.575,9.491,-4.458,5.865,5.865,0.0
2.37,0.91,9.245,-3.976,-0.0,-0.623,9.245,4.215,0.0,-0.575,9.347,-4.314,5.865,0.0,0.0
2.375,0.862,9.197,-3.88,-0.0,-0.575,9.197,4.119,0.0,-0.431,9.347,-4.314,5.865,0.0,0.0
2.38,0.862,9.197,-3.736,-0.0,-0.575,9.149,3.976,0.0,-0.431,9.347,-4.17,5.865,0.0,0.0
2.3850000000000002,0.862,9.197,-3.688,-5.865,-0.575,9.149,3.928,0.0,-0.431,9.347,-4.026,5.865,0.0,-5.865
2.39,0.814,9.101,-3.688,-5.865,-0.527,9.101,3.928,-5.865,-0.288,9.347,-4.026,5.865,0.0,0.0
2.395,0.766,9.005,-3.64,-5.865,-0.479,9.005,3.88,-5.865,-0.288,9.203,-4.026,5.865,-5.865,-5.865
2.4,0.766,8.957,-3.688,-5.865,-0.527,8.957,3.88,-5.865,-0.431,9.203,-4.026,5.865,-5.865,-5.865
2.4050000000000002,0.814,8.957,-3.688,-5.865,-0.527,8.909,3.928,-5.865,-0.431,9.203,-4.026,5.865,-5.865,-5.865
2.41,0.766,9.005,-3.688,-5.865,-0.479,8.957,3.88,-5.865,-0.288,9.059,-4.026,5.865,-5.865,-5.865
2.415,0.766,8.957,-3.64,-5.865,-0.431,8.957,3.832,-5.865,-0.288,9.059,-4.026,5.865,-5.865,-5.865
2.42,0.766,8.909,-3.593,-5.865,-0.431,8.909,3.832,-5.865,-0.288,9.059,-3.883,5.865,-11.73,-5.865
2.4250000000000003,0.766,8.957,-3.688,-5.865,-0.431,8.957,3.88,-5.865,-0.288,9.059,-3.883,5.865,-11.73,-5.865
2.43,0.671,9.053,-3.736,-5.865,-0.383,9.053,3.976,0.0,-0.288,9.203,-4.026,5.865,-11.73,-5.865
2.435,0.671,9.101,-3.736,-5.865,-0.383,9.149,3.976,-5.865,-0.144,9.347,-4.026,5.865,-11.73,-5.865
2.44,0.719,9.149,-3.736,-5.865,-0.383,9.101,3.928,-5.865,-0.144,9.347,-4.026,5.865,-17.595,-5.865
2.445,0.671,9.149,-3.736,-5.865,-0.383,9.149,3.976,-5.865,-0.288,9.347,-4.026,5.865,-17.595,-5.865
2.45,0.671,9.101,-3.784,-5.865,-0.431,9.101,4.024,-5.865,-0.288,9.203,-4.17,5.865,-17.595,-5.865
2.455,0.623,9.101,-3.832,-5.865,-0.383,9.053,4.024,-5.865,-0.288,9.203,-4.17,5.865,-17.595,-5.865
2.46,0.671,9.101,-3.784,-5.865,-0.383,9.053,4.024,-5.865,-0.288,9.203,-4.17,5.865,-17.595,-5.865
2.465,0.671,9.053,-3.784,-5.865,-0.431,9.005,3.976,-5.865,-0.288,9.203,-4.17,5.865,-23.46,-5.865
2.47,0.623,9.005,-3.736,-5.865,-0.383,9.005,3.976,-5.865,-0.288,9.203,-4.026,5.865,-23.46,-5.865
2.475,0.623,9.053,-3.736,-5.865,-0.383,9.053,3.976,-5.865,-0.288,9.203,-4.026,5.865,-23.46,-5.865
2.48,0.671,9.053,-3.64,-5.865,-0.335,9.053,3.88,-5.865,-0.144,9.203,-4.026,5.865,-23.46,-5.865
2.485,0.766,9.005,-3.593,-5.865,-0.431,9.053,3.832,-5.865,-0.288,9.203,-3.883,5.865,-23.46,-5.865
2.49,0.766,8.957,-3.736,-5.865,-0.479,9.005,3.928,-5.865,-0.288,9.203,-3.883,5.865,-23.46,-5.865
2.495,0.862,9.005,-3.928,-5.865,-0.527,9.053,4.119,-5.865,-0.288,9.203,-4.17,5.865,-23.46,-5.865
2.5,0.91,9.005,-4.024,-5.865,-0.671,9.005,4.263,-5.865,-0.431,9.203,-4.314,5.865,-29.326,-5.865
2.505,0.958,8.957,-4.072,-5.865,-0.719,9.005,4.311,-5.865,-0.575,9.203,-4.458,5.865,-29.326,-11.73
2.5100000000000002,0.958,8.957,-4.119,-11.73,-0.719,8.957,4.311,-5.865,-0.575,9.203,-4.458,5.865,-29.326,-11.73
2.515,0.91,8.909,-4.072,-11.73,-0.671,8.957,4.311,-11.73,-0.575,9.203,-4.458,5.865,-29.326,-11.73
2.52,0.958,8.957,-3.928,-11.73,-0.671,8.957,4.167,-11.73,-0.575,9.203,-4.314,5.865,-29.326,-11.73
2.525,0.958,9.053,-3.88,-11.73,-0.671,9.053,4.072,-11.73,-0.575,9.203,-4.17,5.865,-29.326,-11.73
2.5300000000000002,0.91,9.053,-3.784,-11.73,-0.623,9.053,4.024,-11.73,-0.431,9.347,-4.17,5.865,-29.326,-11.73
2.535,0.862,9.005,-3.784,-11.73,-0.623,9.005,3.976,-11.73,-0.431,9.203,-4.17,5.865,-29.326,-11.73
2.54,0.862,9.005,-3.736,-11.73,-0.575,9.005,3.976,-11.73,-0.431,9.203,-4.17,5.865,-35.191,-11.73
2.545,0.766,9.053,-3.736,-11.73,-0.527,9.005,3.976,-11.73,-0.431,9.203,-4.026,5.865,-35.191,-11.73
2.5500000000000003,0.719,9.053,-3.784,-11.73,-0.479,9.005,3.976,-11.73,-0.431,9.203,-4.026,5.865,-35.191,-11.73
2.555,0.766,9.053,-3.784,-11.73,-0.527,8.957,4.024,-11.73,-0.288,9.059,-4.17,5.865,-35.191,-11.73
2.56,0.814,9.053,-3.736,-11.73,-0.575,8.957,3.976,-11.73,-0.431,9.059,-4.17,5.865,-35.191,-11.73
2.565,0.862,9.149,-3.688,-11.73,-0.623,9.005,3.928,-11.73,-0.575,9.059,-4.026,5.865,-35.191,-11.73
2.57,0.862,9.149,-3.736,-11.73,-0.623,9.101,3.928,-11.73,-0.575,9.203,-4.026,5.865,-35.191,-11.73
2.575,0.862,9.245,-3.832,-11.73,-0.671,9.149,4.024,-11.73,-0.575,9.203,-4.17,5.865,-35.191,-11.73
2.58,0.91,9.293,-3.928,-11.73,-0.671,9.197,4.119,-11.73,-0.431,9.347,-4.17,5.865,-35.191,-11.73
2.585,0.91,9.293,-3.832,-11.73,-0.623,9.245,4.119,-11.73,-0.575,9.347,-4.17,5.865,-35.191,-5.865
2.59,1.006,9.293,-3.784,-11.73,-0.719,9.245,4.024,-11.73,-0.575,9.347,-4.17,5.865,-35.191,-5.865
2.595,1.102,9.436,-3.784,-11.73,-0.766,9.341,3.976,-11.73,-0.575,9.491,-4.17,0.0,-35.191,-11.73
2.6,1.054,9.484,-3.832,-11.73,-0.766,9.388,4.072,-11.73,-0.575,9.491,-4.17,0.0,-41.056,-11.73
2.605,1.006,9.532,-3.736,-17.595,-0.671,9.484,4.024,-17.595,-0.575,9.635,-4.17,0.0,-41.056,-11.73
2.61,1.054,9.58,-3.64,-23.46,-0.719,9.532,3.88,-23.46,-0.575,9.635,-4.026,0.0,-41.056,-11.73
2.615,1.054,9.58,-3.736,-29.326,-0.814,9.58,3.928,-29.326,-0.719,9.778,-4.026,0.0,-41.056,-17.595
2.62,1.102,9.676,-3.88,-29.326,-0.91,9.676,4.072,-29.326,-0.863,9.778,-4.17,0.0,-46.921,-23.46
2.625,1.198,9.724,-3.928,-29.326,-1.006,9.724,4.167,-35.191,-0.863,9.778,-4.314,0.0,-46.921,-23.46
2.63,1.198,9.676,-3.976,-29.326,-1.054,9.724,4.215,-35.191,-1.007,9.778,-4.314,0.0,-46.921,-23.46
2.6350000000000002,1.198,9.676,-3.976,-29.326,-1.054,9.676,4.215,-29.326,-1.007,9.922,-4.314,0.0,-41.056,-23.46
2.64,1.293,9.628,-4.024,-29.326,-1.102,9.628,4.263,-29.326,-1.007,9.922,-4.314,0.0,-41.056,-23.46
2.645,1.341,9.58,-4.072,-29.326,-1.198,9.58,4.263,-29.326,-1.15,9.778,-4.314,0.0,-41.056,-23.46
2.65,1.389,9.484,-4.119,-29.326,-1.198,9.484,4.311,-29.326,-1.15,9.778,-4.458,0.0,-41.056,-23.46
2.6550000000000002,1.341,9.484,-4.167,-23.46,-1.198,9.484,4.407,-29.326,-1.15,9.778,-4.458,0.0,-41.056,-23.46
2.66,1.341,9.484,-4.119,-29.326,-1.198,9.484,4.359,-29.326,-1.15,9.778,-4.458,0.0,-35.191,-23.46
2.665,1.389,9.484,-4.119,-23.46,-1.245,9.436,4.359,-23.46,-1.15,9.635,-4.458,0.0,-35.191,-17.595
2.67,1.437,9.436,-4.119,-23.46,-1.245,9.436,4.359,-23.46,-1.15,9.635,-4.458,0.0,-35.191,-17.595
2.6750000000000003,1.437,9.436,-4.167,-23.46,-1.245,9.341,4.407,-23.46,-1.15,9.491,-4.458,5.865,-35.191,-17.595
2.68,1.389,9.388,-4.167,-17.595,-1.245,9.341,4.407,-23.46,-1.007,9.491,-4.458,5.865,-35.191,-17.595
2.685,1.341,9.341,-4.167,-17.595,-1.198,9.293,4.359,-17.595,-1.007,9.491,-4.458,5.865,-35.191,-17.595
2.69,1.293,9.293,-4.119,-17.595,-1.15,9.293,4.359,-17.595,-1.007,9.491,-4.458,0.0,-35.191,-17.595
2.695,1.245,9.293,-4.072,-17.595,-1.054,9.293,4.311,-17.595,-1.007,9.491,-4.458,0.0,-35.191,-17.595
2.7,1.198,9.293,-3.976,-11.73,-1.006,9.245,4.215,-11.73,-0.863,9.491,-4.314,0.0,-35.191,-11.73
2.705,1.198,9.293,-3.928,-11.73,-1.006,9.245,4.167,-11.73,-0.863,9.491,-4.314,0.0,-29.326,-11.73
2.71,1.198,9.293,-3.928,-5.865,-1.006,9.293,4.167,-5.865,-0.863,9.491,-4.314,0.0,-29.326,-11.73
2.715,1.198,9.293,-3.928,-5.865,-1.006,9.293,4.119,-5.865,-0.863,9.491,-4.314,0.0,-29.326,-5.865
2.72,1.15,9.293,-3.88,-5.865,-0.958,9.245,4.119,-5.865,-0.863,9.491,-4.314,0.0,-29.326,-5.865
2.725,1.15,9.341,-3.832,-5.865,-0.958,9.293,4.072,-5.865,-0.863,9.491,-4.17,0.0,-29.326,-5.865
2.73,1.102,9.341,-3.784,-5.865,-0.958,9.341,4.024,-5.865,-0.863,9.491,-4.17,5.865,-29.326,-5.865
2.735,1.054,9.341,-3.736,-5.865,-0.91,9.341,3.976,-5.865,-0.719,9.635,-4.17,5.865,-29.326,-5.865
2.74,1.006,9.341,-3.64,-11.73,-0.814,9.341,3.88,-11.73,-0.719,9.635,-4.026,5.865,-29.326,-11.73
2.745,1.006,9.293,-3.545,-11.73,-0.766,9.293,3.832,-11.73,-0.575,9.491,-3.883,5.865,-29.326,-11.73
2.75,0.91,9.293,-3.593,-11.73,-0.671,9.293,3.784,-11.73,-0.575,9.491,-3.883,5.865,-29.326,-11.73
2.755,0.862,9.293,-3.545,-11.73,-0.575,9.245,3.784,-11.73,-0.288,9.491,-3.883,5.865,-29.326,-11.73
2.7600000000000002,0.766,9.245,-3.593,-11.73,-0.527,9.245,3.784,-11.73,-0.288,9.491,-3.883,5.865,-29.326,-11.73
2.765,0.766,9.197,-3.593,-11.73,-0.527,9.197,3.832,-11.73,-0.288,9.347,-3.883,5.865,-29.326,-11.73
2.77,0.766,9.149,-3.64,-11.73,-0.575,9.197,3.832,-11.73,-0.431,9.347,-3.883,5.865,-29.326,-11.73
2.775,0.766,9.197,-3.64,-11.73,-0.671,9.197,3.88,-11.73,-0.575,9.491,-4.026,5.865,-29.326,-11.73
2.7800000000000002,0.814,9.293,-3.64,-11.73,-0.719,9.293,3.88,-11.73,-0.575,9.491,-4.026,5.865,-29.326,-11.73
2.785,0.91,9.484,-3.593,-5.865,-0.766,9.436,3.832,-5.865,-0.719,9.635,-4.026,5.865,-29.326,-11.73
2.79,1.006,9.724,-3.449,-5.865,-0.814,9.58,3.688,-5.865,-0.719,9.635,-3.883,5.865,-29.326,-5.865
2.795,0.479,9.915,-3.114,-5.865,0.048,9.82,3.449,-5.865,-0.575,9.778,-3.739,5.865,-23.46,-5.865
2.8000000000000003,1.006,10.155,-3.114,-11.73,-0.671,9.82,3.305,-11.73,-0.144,9.635,-3.307,5.865,-23.46,-5.865
2.805,0.958,10.394,-3.305,-11.73,-0.719,10.107,3.497,-11.73,-0.575,9.922,-3.451,5.865,-23.46,-11.73
2.81,0.958,10.251,-3.257,-11.73,-0.623,10.059,3.497,-11.73,-0.288,10.066,-3.595,0.0,-23.46,-11.73
2.815,0.91,10.203,-3.257,-11.73,-0.671,9.963,3.401,-11.73,-0.288,9.922,-3.595,-5.865,-29.326,-11.73
2.82,0.575,10.634,-3.545,-17.595,-0.287,10.155,3.736,-17.595,-0.431,9.922,-3.595,-5.865,-29.326,-17.595
2.825,1.054,10.586,-3.593,-17.595,-0.575,10.394,3.832,-17.595,-0.144,10.21,-3.883,-11.73,-29.326,-17.595
2.83,1.15,10.634,-3.545,-17.595,-0.766,10.394,3.784,-17.595,-0.431,10.21,-3.883,-17.595,-29.326,-17.595
2.835,1.006,10.394,-3.688,-23.46,-0.719,10.299,3.88,-23.46,-0.431,10.21,-3.883,-17.595,-29.326,-23.46
2.84,0.814,10.059,-3.832,-23.46,-0.575,10.107,4.024,-23.46,-0.288,10.21,-4.026,-23.46,-35.191,-23.46
2.845,0.719,9.82,-3.784,-23.46,-0.479,9.963,4.024,-23.46,-0.288,10.21,-4.17,-23.46,-35.191,-23.46
2.85,0.671,9.676,-3.688,-23.46,-0.431,9.772,3.928,-29.326,-0.288,10.066,-4.026,-29.326,-35.191,-23.46
2.855,0.575,9.58,-3.64,-23.46,-0.335,9.676,3.832,-29.326,-0.144,10.066,-4.026,-23.46,-35.191,-23.46
2.86,0.383,9.58,-3.497,-23.46,-0.144,9.628,3.784,-23.46,0.0,9.922,-3.883,-23.46,-35.191,-23.46
2.865,0.192,9.484,-3.353,-23.46,0.24,9.532,3.64,-23.46,0.288,9.778,-3.739,-23.46,-35.191,-23.46
2.87,0.24,9.149,-2.587,-17.595,-0.048,9.388,2.97,-17.595,0.431,9.778,-3.451,-23.46,-35.191,-23.46
2.875,-0.048,8.862,-1.533,-17.595,0.24,9.436,1.964,-17.595,0.0,10.066,-2.732,-23.46,-41.056,-17.595
2.88,-0.431,9.053,-1.102,-23.46,0.575,9.532,1.437,-23.46,0.719,10.066,-1.582,-17.595,-41.056,-23.46
2.8850000000000002,-0.144,9.341,-0.671,-23.46,0.527,9.724,1.006,-23.46,0.719,10.354,-1.294,-11.73,-41.056,-23.46
2.89,-0.048,9.724,-0.096,-29.326,0.527,9.915,0.431,-29.326,0.863,10.497,-0.863,0.0,-41.056,-23.46
2.895,-0.048,9.915,0.431,-35.191,0.671,10.011,-0.096,-35.191,1.15,10.354,-0.288,5.865,-41.056,-35.191
2.9,-0.096,10.011,0.91,-41.056,0.814,10.011,-0.575,-41.056,1.438,10.21,0.288,5.865,-46.921,-41.056
2.9050000000000002,0.0,10.155,1.389,-41.056,0.91,10.011,-1.102,-41.056,1.726,10.21,0.719,5.865,-46.921,-41.056
2.91,0.0,10.155,1.82,-41.056,0.958,10.011,-1.533,-46.921,2.013,10.066,1.294,5.865,-58.651,-46.921
2.915,0.0,10.203,2.108,-46.921,1.006,9.963,-1.868,-46.921,2.013,9.922,1.582,5.865,-64.516,-46.921
2.92,0.048,10.203,2.251,-46.921,1.054,9.915,-2.012,-52.786,2.157,9.922,1.869,5.865,-76.246,-46.921
2.9250000000000003,0.096,10.251,2.156,-52.786,1.054,9.82,-1.964,-52.786,2.301,9.635,1.869,5.865,-87.977,-52.786
2.93,0.096,10.299,1.868,-52.786,1.054,9.724,-1.724,-58.651,2.301,9.347,1.726,0.0,-105.572,-58.651
2.935,0.0,10.203,1.485,-52.786,1.054,9.58,-1.293,-58.651,2.301,9.059,1.294,-5.865,-117.302,-58.651
2.94,-0.096,9.915,0.958,-58.651,1.006,9.436,-0.814,-58.651,2.157,8.916,0.863,-11.73,-129.032,-58.651
2.945,-0.096,9.676,0.527,-58.651,0.814,9.245,-0.287,-64.516,1.726,8.916,0.288,-23.46,-140.762,-64.516
2.95,-0.096,9.484,0.0,-64.516,0.766,9.101,0.24,-64.516,1.438,8.772,-0.288,-29.326,-152.493,-64.516
2.955,-0.24,9.293,-0.623,-64.516,0.862,9.005,0.862,-70.381,1.438,8.628,-0.863,-35.191,-158.358,-70.381
2.96,-0.431,9.005,-1.245,-70.381,1.006,8.862,1.437,-70.381,1.582,8.772,-1.438,-41.056,-164.223,-70.381
2.965,-0.623,8.622,-2.012,-70.381,1.102,8.67,2.203,-76.246,1.582,8.772,-2.157,-46.921,-175.953,-76.246
2.97,-0.766,8.239,-2.97,-70.381,1.15,8.43,3.114,-76.246,1.582,8.772,-3.02,-46.921,-175.953,-76.246
2.975,-0.862,7.951,-4.119,-64.516,1.102,8.239,4.215,-70.381,1.438,8.628,-4.026,-46.921,-181.818,-70.381
2.98,-0.814,7.856,-5.413,-64.516,1.006,8.191,5.509,-70.381,1.294,8.772,-5.177,-46.921,-187.683,-70.381
2.985,-0.766,7.712,-6.946,-58.651,0.862,8.143,6.993,-64.516,1.007,8.772,-6.471,-41.056,-187.683,-64.516
2.99,-0.91,7.616,-8.622,-58.651,0.766,8.095,8.67,-64.516,0.719,8.772,-8.197,-35.191,-187.683,-64.516
2.995,-0.862,7.425,-10.251,-52.786,0.527,7.999,10.299,-58.651,0.288,8.772,-9.778,-29.326,-181.818,-58.651
3.0,-0.766,7.233,-11.688,-46.921,0.096,7.856,11.783,-52.786,-0.431,8.628,-11.36,-23.46,-175.953,-52.786
3.005,-0.719,7.041,-13.029,-41.056,-0.287,7.664,13.125,-46.921,-1.15,8.628,-12.654,-11.73,-170.088,-46.921
3.0100000000000002,-0.623,6.898,-14.226,-41.056,-0.527,7.472,14.37,-46.921,-1.869,8.34,-13.949,-5.865,-152.493,-46.921
3.015,-0.575,6.85,-15.184,-35.191,-0.719,7.329,15.376,-41.056,-2.157,8.053,-14.955,5.865,-134.897,-41.056
3.02,-0.335,6.754,-15.759,-29.326,-0.958,7.137,15.999,-35.191,-2.588,7.765,-15.818,5.865,-111.437,-35.191
3.025,-0.144,6.658,-15.999,-29.326,-1.15,6.946,16.334,-29.326,-2.732,7.478,-16.249,17.595,-87.977,-35.191
3.0300000000000002,-0.048,6.61,-15.999,-23.46,-1.245,6.85,16.382,-23.46,-2.876,7.19,-16.393,23.46,-64.516,-23.46
3.035,0.0,6.658,-15.807,-17.595,-1.245,6.802,16.19,-23.46,-2.876,7.046,-16.249,29.326,-41.056,-23.46
3.04,0.048,6.85,-15.568,-17.595,-1.15,6.898,15.951,-17.595,-2.588,7.046,-15.962,29.326,-17.595,-23.46
3.045,0.287,7.137,-15.28,-11.73,-1.293,7.041,15.663,-11.73,-2.588,7.046,-15.818,29.326,5.865,-17.595
3.0500000000000003,0.623,7.377,-14.801,-11.73,-1.485,7.089,15.232,-11.73,-2.588,7.046,-15.387,29.326,29.326,-11.73
3.055,0.671,7.425,-14.226,-11.73,-1.485,7.089,14.657,-5.865,-2.588,6.759,-14.955,29.326,46.921,-11.73
3.06,0.623,7.377,-13.508,-11.73,-1.293,6.993,14.035,-5.865,-2.301,6.615,-14.38,23.46,64.516,-11.73
3.065,0.335,7.52,-12.933,-5.865,-1.006,7.137,13.412,-5.865,-2.013,6.615,-13.661,5.865,82.111,-5.865
3.0700000000000003,1.006,7.52,-12.119,-11.73,-1.389,7.137,12.789,-5.865,-1.869,6.759,-13.23,5.865,93.842,-5.865
3.075,0.527,7.76,-11.209,-5.865,-1.198,7.233,11.544,-5.865,-2.013,6.471,-12.079,-5.865,105.572,-11.73
3.08,0.431,7.52,-10.873,-5.865,-0.958,7.233,11.352,0.0,-1.726,6.902,-11.648,-11.73,117.302,-5.865
3.085,0.623,7.664,-10.442,-5.865,-1.054,7.281,11.017,-5.865,-1.726,6.759,-11.36,-17.595,129.032,-5.865
3.09,0.766,7.76,-9.676,-5.865,-1.102,7.425,10.251,-5.865,-1.726,6.902,-10.785,-29.326,140.762,-5.865
3.095,0.862,7.616,-8.574,-11.73,-0.958,7.377,9.293,-5.865,-1.438,7.046,-9.922,-35.191,146.628,-11.73
3.1,0.623,7.377,-7.089,-17.595,-0.527,7.329,7.904,-11.73,-0.719,7.19,-8.772,-41.056,158.358,-11.73
3.105,0.335,7.089,-5.461,-17.595,0.0,7.281,6.275,-11.73,0.144,7.478,-7.334,-46.921,158.358,-17.595
3.11,0.144,6.754,-3.832,-17.595,0.383,7.185,4.598,-11.73,0.719,7.765,-5.608,-46.921,158.358,-17.595
3.115,0.048,6.467,-2.347,-11.73,0.575,7.089,3.018,-11.73,1.15,7.909,-4.026,-41.056,158.358,-11.73
3.12,0.048,6.323,-1.006,-5.865,0.671,7.041,1.629,-5.865,1.438,8.053,-2.445,-41.056,152.493,-11.73
3.125,0.192,6.419,0.144,-0.0,0.671,7.089,0.383,0.0,1.582,8.34,-1.15,-29.326,140.762,-5.865
3.13,0.383,6.754,1.198,-0.0,0.479,7.281,-0.671,0.0,1.438,8.34,-0.0,-17.595,134.897,0.0
3.1350000000000002,0.671,7.185,1.964,5.865,0.335,7.52,-1.533,5.865,1.438,8.34,1.007,-5.865,123.167,0.0
3.14,1.006,7.616,2.635,11.73,0.048,7.808,-2.251,11.73,1.294,8.484,1.869,5.865,111.437,5.865
3.145,1.245,8.095,3.161,11.73,-0.144,8.095,-2.826,17.595,1.15,8.628,2.445,17.595,99.707,11.73
3.15,1.485,8.574,3.497,17.595,-0.335,8.478,-3.257,17.595,1.007,8.772,3.02,23.46,87.977,11.73
3.1550000000000002,1.868,9.101,3.88,17.595,-0.623,8.862,-3.64,17.595,0.863,8.916,3.307,29.326,76.246,17.595
3.16,2.06,9.532,4.072,17.595,-0.814,9.197,-3.928,17.595,0.719,9.203,3.739,29.326,58.651,17.595
3.165,2.299,9.915,4.024,11.73,-0.958,9.436,-3.928,11.73,0.575,9.347,3.883,29.326,46.921,11.73
3.17,2.587,10.251,3.832,5.865,-1.15,9.58,-3.784,5.865,0.431,9.347,3.739,23.46,29.326,11.73
3.1750000000000003,2.635,10.299,3.497,-0.0,-1.245,9.58,-3.497,0.0,0.431,9.203,3.595,23.46,11.73,0.0
3.18,2.73,10.299,3.066,-5.865,-1.341,9.58,-3.066,-5.865,0.288,9.059,3.164,5.865,-11.73,0.0
3.185,2.73,10.203,2.539,-11.73,-1.485,9.484,-2.539,-11.73,0.0,8.916,2.588,5.865,-29.326,-5.865
3.19,2.73,10.107,1.964,-17.595,-1.533,9.341,-1.916,-17.595,-0.288,8.772,2.013,-5.865,-46.921,-17.595
3.1950000000000003,2.682,9.867,1.341,-23.46,-1.581,9.149,-1.293,-23.46,-0.288,8.628,1.438,-17.595,-64.516,-23.46
3.2,2.443,9.341,0.623,-29.326,-1.533,8.862,-0.575,-29.326,-0.431,8.484,0.719,-29.326,-76.246,-23.46
3.205,2.156,8.718,-0.24,-29.326,-1.437,8.43,0.287,-35.191,-0.575,8.34,-0.144,-41.056,-93.842,-35.191
3.21,1.964,8.191,-1.15,-35.191,-1.389,8.047,1.245,-35.191,-0.719,8.197,-1.007,-46.921,-105.572,-35.191
3.215,1.724,7.664,-2.156,-35.191,-1.389,7.664,2.251,-41.056,-0.863,7.909,-2.013,-52.786,-117.302,-41.056
3.22,1.485,7.185,-3.305,-35.191,-1.341,7.329,3.305,-41.056,-1.007,7.765,-3.02,-52.786,-123.167,-41.056
3.225,1.389,6.754,-4.407,-35.191,-1.341,7.041,4.455,-41.056,-1.294,7.621,-4.17,-52.786,-123.167,-41.056
3.23,1.341,6.419,-5.556,-35.191,-1.437,6.706,5.604,-35.191,-1.438,7.478,-5.321,-52.786,-129.032,-35.191
3.235,1.341,6.131,-6.706,-29.326,-1.629,6.514,6.802,-35.191,-1.869,7.19,-6.471,-46.921,-123.167,-35.191
3.24,1.389,5.988,-7.76,-23.46,-1.82,6.323,7.904,-29.326,-2.301,7.046,-7.621,-41.056,-123.167,-29.326
3.245,1.437,5.94,-8.718,-23.46,-2.06,6.275,8.862,-23.46,-2.588,7.046,-8.484,-35.191,-111.437,-23.46
3.25,1.629,5.988,-9.484,-17.595,-2.251,6.227,9.676,-17.595,-3.02,6.902,-9.347,-29.326,-105.572,-23.46
3.255,1.724,6.083,-10.059,-11.73,-2.395,6.275,10.299,-17.595,-3.164,6.759,-10.066,-23.46,-93.842,-17.595
3.2600000000000002,1.868,6.131,-10.49,-11.73,-2.539,6.275,10.73,-11.73,-3.307,6.759,-10.641,-17.595,-82.111,-11.73
3.265,1.964,6.083,-10.825,-11.73,-2.682,6.179,11.065,-11.73,-3.451,6.615,-11.073,-17.595,-64.516,-11.73
3.27,2.06,6.083,-10.921,-5.865,-2.73,6.131,11.209,-5.865,-3.595,6.471,-11.216,-11.73,-52.786,-11.73
3.275,2.108,5.988,-10.921,-5.865,-2.73,6.035,11.257,-5.865,-3.595,6.327,-11.36,-11.73,-41.056,-5.865
3.2800000000000002,2.156,5.988,-10.778,-5.865,-2.73,5.94,11.113,-5.865,-3.451,6.327,-11.216,-11.73,-29.326,-5.865
3.285,2.108,5.94,-10.538,-0.0,-2.635,5.892,10.873,0.0,-3.307,6.183,-11.073,-5.865,-17.595,-5.865
3.29,2.203,5.844,-10.203,-0.0,-2.682,5.748,10.586,0.0,-3.164,6.04,-10.785,-11.73,-5.865,0.0
3.295,2.251,5.892,-9.867,5.865,-2.682,5.7,10.251,5.865,-3.307,5.896,-10.497,-11.73,5.865,0.0
3.3000000000000003,2.347,6.035,-9.388,5.865,-2.682,5.844,9.82,5.865,-3.164,5.896,-10.066,-11.73,11.73,5.865
3.305,2.491,6.179,-8.766,11.73,-2.73,5.892,9.197,11.73,-3.02,5.896,-9.491,-11.73,23.46,5.865
3.31,2.539,6.61,-8.095,11.73,-2.395,6.514,8.574,11.73,-2.876,5.896,-8.916,-17.595,29.326,11.73
3.315,2.347,6.179,-7.137,11.73,-2.73,5.7,7.568,11.73,-2.876,5.896,-8.053,-17.595,35.191,11.73
3.3200000000000003,2.156,6.179,-6.371,17.595,-2.06,6.083,6.706,17.595,-2.157,6.183,-7.19,-17.595,35.191,11.73
3.325,2.347,6.179,-5.652,23.46,-2.251,6.131,6.035,23.46,-2.013,6.471,-6.615,-23.46,35.191,17.595
3.33,2.635,6.419,-5.03,17.595,-2.347,6.371,5.461,17.595,-2.301,6.615,-5.896,-23.46,35.191,17.595
3.335,2.443,6.467,-4.694,23.46,-2.395,6.467,5.03,23.46,-2.301,6.759,-5.177,-23.46,35.191,17.595
3.34,2.539,6.514,-4.598,23.46,-2.251,6.514,4.886,23.46,-2.157,6.902,-5.033,-17.595,35.191,17.595
3.345,2.826,6.85,-4.263,23.46,-2.491,6.61,4.551,23.46,-2.013,6.759,-4.889,-17.595,35.191,23.46
3.35,2.874,6.993,-4.024,23.46,-2.635,6.706,4.311,23.46,-2.301,6.759,-4.458,-17.595,29.326,23.46
3.355,2.826,6.993,-3.976,23.46,-2.539,6.706,4.215,23.46,-2.301,6.759,-4.314,-17.595,29.326,17.595
3.36,2.73,7.089,-3.928,23.46,-2.443,6.802,4.167,23.46,-2.157,6.759,-4.314,-23.46,29.326,23.46
3.365,2.922,7.185,-3.832,23.46,-2.635,6.898,4.119,23.46,-2.301,6.902,-4.314,-23.46,23.46,23.46
3.37,3.018,7.377,-3.64,23.46,-2.778,7.089,3.976,23.46,-2.445,7.19,-4.17,-29.326,23.46,23.46
3.375,2.97,7.472,-3.545,23.46,-2.778,7.281,3.784,17.595,-2.588,7.334,-4.026,-29.326,17.595,17.595
3.38,2.874,7.472,-3.401,23.46,-2.635,7.425,3.688,17.595,-2.445,7.621,-3.883,-29.326,17.595,17.595
3.3850000000000002,2.73,7.472,-3.353,23.46,-2.539,7.52,3.593,23.46,-2.301,7.909,-3.739,-29.326,17.595,23.46
3.39,2.826,7.377,-3.305,23.46,-2.635,7.52,3.545,23.46,-2.301,8.053,-3.739,-29.326,11.73,17.595
3.395,2.778,7.329,-3.353,23.46,-2.635,7.568,3.545,23.46,-2.445,8.053,-3.595,-29.326,5.865,17.595
3.4,2.587,7.377,-3.305,23.46,-2.539,7.712,3.593,23.46,-2.445,8.197,-3.739,-23.46,5.865,23.46
3.4050000000000002,2.826,8.239,-2.922,23.46,-2.682,8.383,3.257,23.46,-2.445,8.916,-3.595,-17.595,5.865,23.46
3.41,3.593,10.251,-3.018,23.46,-3.066,9.724,3.114,23.46,-2.732,9.778,-3.164,-11.73,5.865,23.46
3.415,3.976,10.442,-3.545,17.595,-3.353,10.442,3.593,17.595,-2.588,10.354,-3.595,-5.865,5.865,17.595
3.42,2.874,8.622,-3.449,11.73,-2.97,9.101,3.688,17.595,-2.588,10.066,-3.883,-5.865,5.865,17.595
3.4250000000000003,2.587,8.239,-3.784,11.73,-2.443,8.239,3.832,11.73,-2.588,9.059,-3.739,-5.865,0.0,11.73
3.43,2.97,8.383,-4.359,11.73,-2.587,8.095,4.503,11.73,-2.157,8.197,-4.314,-5.865,-5.865,11.73
3.435,2.97,8.622,-4.598,17.595,-2.826,8.383,4.79,17.595,-2.445,8.34,-4.889,-5.865,-5.865,11.73
3.44,2.97,8.574,-4.598,17.595,-2.874,8.622,4.79,17.595,-2.732,8.772,-4.889,-5.865,-5.865,11.73
3.4450000000000003,2.922,8.239,-4.407,11.73,-2.826,8.43,4.694,17.595,-2.588,8.916,-4.889,-5.865,-5.865,17.595
3.45,2.587,8.047,-4.407,11.73,-2.491,8.239,4.598,11.73,-2.588,8.772,-4.745,-5.865,-5.865,11.73
3.455,2.587,7.999,-4.551,5.865,-2.443,8.143,4.742,11.73,-2.301,8.772,-4.745,0.0,-5.865,11.73
3.46,2.539,7.999,-4.838,5.865,-2.347,8.047,4.982,5.865,-2.157,8.628,-4.889,0.0,-5.865,5.865
3.465,2.443,7.856,-5.173,5.865,-2.299,7.904,5.317,5.865,-2.157,8.34,-5.321,5.865,-5.865,5.865
3.47,2.347,7.808,-5.413,5.865,-2.203,7.712,5.604,5.865,-2.013,8.053,-5.608,5.865,-5.865,5.865
3.475,2.395,7.808,-5.7,5.865,-2.203,7.616,5.892,5.865,-2.013,7.765,-5.896,5.865,-5.865,5.865
3.48,2.347,7.616,-5.892,5.865,-2.203,7.52,6.131,5.865,-2.013,7.621,-6.183,5.865,-11.73,5.865
3.485,2.156,7.329,-5.988,5.865,-2.108,7.329,6.275,5.865,-2.157,7.478,-6.327,5.865,-11.73,5.865
3.49,2.108,7.233,-6.083,5.865,-2.06,7.185,6.323,5.865,-2.013,7.478,-6.471,0.0,-11.73,5.865
3.495,1.964,7.089,-6.275,5.865,-2.012,7.041,6.467,5.865,-2.013,7.334,-6.471,0.0,-11.73,5.865
3.5,1.916,7.089,-6.419,5.865,-1.82,6.993,6.658,5.865,-1.869,7.19,-6.615,0.0,-5.865,5.865
3.505,1.916,7.137,-6.562,5.865,-1.868,6.946,6.802,5.865,-1.726,7.046,-6.759,0.0,-5.865,5.865
3.5100000000000002,1.916,7.137,-6.61,11.73,-1.82,6.946,6.85,11.73,-1.726,7.046,-6.902,0.0,-5.865,5.865
3.515,1.916,7.137,-6.754,11.73,-1.868,6.946,6.993,11.73,-1.869,7.046,-7.046,0.0,-5.865,11.73
3.52,1.82,7.137,-6.802,11.73,-1.82,6.946,7.089,11.73,-1.869,7.046,-7.046,-5.865,-5.865,11.73
3.525,1.868,7.041,-6.562,11.73,-1.82,6.993,6.946,17.595,-1.726,7.046,-7.19,-5.865,-5.865,11.73
3.5300000000000002,1.82,6.946,-6.083,11.73,-1.82,6.993,6.467,17.595,-1.869,7.334,-6.759,-5.865,0.0,11.73
3.535,1.677,7.041,-5.94,11.73,-1.629,7.089,6.227,17.595,-1.726,7.478,-6.327,-5.865,0.0,11.73
3.54,1.629,7.185,-6.035,17.595,-1.485,7.233,6.275,17.595,-1.438,7.621,-6.327,-5.865,0.0,11.73
3.545,1.677,7.377,-5.94,17.595,-1.485,7.425,6.275,17.595,-1.294,7.621,-6.327,-5.865,0.0,11.73
3.5500000000000003,1.724,7.568,-5.796,17.595,-1.581,7.568,6.131,17.595,-1.438,7.909,-6.327,-5.865,0.0,17.595
3.555,1.772,7.712,-5.748,17.595,-1.629,7.712,5.988,17.595,-1.438,7.909,-6.183,0.0,0.0,17.595
3.56,1.772,7.808,-5.7,17.595,-1.629,7.808,5.94,17.595,-1.438,8.053,-6.04,0.0,0.0,17.595
3.565,1.82,7.904,-5.604,17.595,-1.629,7.904,5.892,17.595,-1.438,8.197,-6.04,5.865,0.0,17.595
3.5700000000000003,1.772,7.904,-5.509,17.595,-1.581,7.904,5.748,17.595,-1.438,8.197,-5.896,0.0,0.0,17.595
3.575,1.724,7.904,-5.413,23.46,-1.533,7.904,5.652,17.595,-1.294,8.197,-5.752,5.865,0.0,17.595
3.58,1.724,7.951,-5.365,23.46,-1.533,7.904,5.604,17.595,-1.294,8.197,-5.752,5.865,0.0,17.595
3.585,1.724,7.904,-5.365,17.595,-1.533,7.856,5.556,17.595,-1.294,8.053,-5.608,5.865,-5.865,17.595
3.59,1.724,7.76,-5.365,17.595,-1.533,7.712,5.556,17.595,-1.294,7.909,-5.608,5.865,-5.865,17.595
3.595,1.581,7.712,-5.317,17.595,-1.437,7.712,5.556,17.595,-1.294,7.909,-5.608,5.865,-5.865,17.595
3.6,1.581,7.664,-5.317,17.595,-1.437,7.616,5.556,17.595,-1.294,7.909,-5.608,5.865,-5.865,17.595
3.605,1.629,7.664,-5.461,11.73,-1.437,7.664,5.7,17.595,-1.294,7.909,-5.752,5.865,-5.865,17.595
3.61,1.629,7.808,-5.461,17.595,-1.485,7.76,5.7,17.595,-1.294,7.909,-5.896,5.865,-5.865,11.73
3.615,1.82,7.808,-5.509,11.73,-1.581,7.712,5.748,17.595,-1.438,7.909,-5.896,5.865,-5.865,11.73
3.62,1.724,7.808,-5.556,11.73,-1.533,7.664,5.796,11.73,-1.438,7.765,-5.896,5.865,-5.865,11.73
3.625,1.772,7.712,-5.556,11.73,-1.533,7.664,5.796,11.73,-1.294,7.765,-5.896,5.865,-5.865,11.73
3.63,1.82,7.808,-5.604,11.73,-1.629,7.664,5.844,17.595,-1.438,7.765,-5.896,0.0,-5.865,17.595
3.6350000000000002,1.868,7.808,-5.652,11.73,-1.677,7.712,5.892,11.73,-1.438,7.765,-6.04,0.0,-5.865,11.73
3.64,1.868,7.76,-5.7,11.73,-1.677,7.664,5.892,17.595,-1.582,7.765,-6.04,0.0,-5.865,11.73
3.645,1.772,7.712,-5.7,11.73,-1.677,7.568,5.94,11.73,-1.582,7.765,-6.04,0.0,-5.865,11.73
3.65,1.82,7.616,-5.748,11.73,-1.677,7.568,5.988,11.73,-1.438,7.621,-6.04,-5.865,-5.865,11.73
3.6550000000000002,1.772,7.616,-5.796,11.73,-1.629,7.568,6.035,11.73,-1.438,7.765,-6.04,-5.865,-11.73,11.73
3.66,1.772,7.52,-5.844,11.73,-1.629,7.52,6.083,11.73,-1.582,7.765,-6.183,-5.865,-11.73,11.73
3.665,1.677,7.329,-5.892,11.73,-1.581,7.425,6.131,11.73,-1.438,7.765,-6.183,-5.865,-11.73,11.73
3.67,1.629,7.281,-5.94,11.73,-1.533,7.329,6.227,11.73,-1.438,7.621,-6.183,-5.865,-11.73,11.73
3.6750000000000003,1.629,7.377,-6.035,11.73,-1.581,7.425,6.275,11.73,-1.582,7.765,-6.327,-5.865,-5.865,11.73
3.68,1.629,7.472,-6.083,11.73,-1.581,7.52,6.323,11.73,-1.582,7.765,-6.471,0.0,-5.865,11.73
3.685,1.533,7.712,-6.131,11.73,-1.437,7.76,6.371,17.595,-1.438,7.621,-6.471,0.0,-5.865,11.73
3.69,1.389,7.664,-6.179,11.73,-1.15,7.76,6.467,11.73,-1.294,6.327,-6.615,0.0,-5.865,17.595
3.6950000000000003,1.868,7.089,-6.083,5.865,-1.772,7.041,6.371,5.865,-1.294,7.621,-6.471,5.865,-5.865,23.46
3.7,1.677,7.425,-6.179,5.865,-1.772,7.233,6.419,5.865,-1.869,7.765,-6.471,5.865,-5.865,23.46
3.705,1.533,7.52,-6.227,5.865,-1.485,7.472,6.514,11.73,-1.582,8.053,-6.471,5.865,-5.865,23.46
3.71,1.581,7.472,-6.275,11.73,-1.437,7.377,6.562,11.73,-1.294,7.765,-6.615,5.865,0.0,23.46
3.715,1.629,7.425,-6.179,11.73,-1.533,7.329,6.467,11.73,-1.294,7.765,-6.615,5.865,0.0,23.46
3.72,1.533,7.472,-6.179,11.73,-1.485,7.425,6.467,17.595,-1.294,7.765,-6.615,0.0,0.0,23.46
3.725,1.485,7.472,-6.227,17.595,-1.389,7.472,6.467,17.595,-1.294,7.621,-6.615,0.0,0.0,23.46
3.73,1.485,7.425,-6.179,17.595,-1.389,7.377,6.467,17.595,-1.294,7.765,-6.615,0.0,0.0,23.46
3.735,1.485,7.472,-6.179,17.595,-1.389,7.377,6.419,17.595,-1.294,7.765,-6.471,0.0,0.0,23.46
3.74,1.485,7.616,-6.179,17.595,-1.341,7.52,6.419,17.595,-1.15,7.621,-6.471,0.0,0.0,23.46
3.745,1.485,7.616,-6.083,17.595,-1.341,7.52,6.371,17.595,-1.007,7.765,-6.471,0.0,5.865,23.46
3.75,1.437,7.664,-6.083,23.46,-1.293,7.568,6.323,23.46,-1.007,7.765,-6.471,0.0,5.865,23.46
3.755,1.389,7.808,-6.035,23.46,-1.245,7.712,6.323,23.46,-1.007,7.909,-6.471,0.0,0.0,23.46
3.7600000000000002,1.437,7.808,-5.988,23.46,-1.245,7.76,6.275,23.46,-1.007,7.909,-6.327,0.0,5.865,23.46
3.765,1.341,7.856,-5.988,23.46,-1.245,7.808,6.275,23.46,-1.007,7.909,-6.327,0.0,5.865,23.46
3.77,1.341,7.856,-6.035,23.46,-1.15,7.856,6.323,23.46,-1.007,8.053,-6.327,-5.865,5.865,23.46
3.775,1.198,7.808,-5.988,23.46,-1.102,7.808,6.227,23.46,-0.863,8.053,-6.471,0.0,5.865,23.46
3.7800000000000002,1.198,7.904,-5.988,23.46,-1.054,7.951,6.275,23.46,-0.863,8.053,-6.327,-5.865,5.865,23.46
3.785,1.15,7.999,-6.035,23.46,-1.102,8.047,6.323,23.46,-0.863,8.34,-6.327,-5.865,5.865,23.46
3.79,1.102,8.191,-6.083,23.46,-1.054,8.287,6.371,23.46,-0.863,8.628,-6.471,0.0,5.865,23.46
3.795,1.054,8.43,-6.083,23.46,-0.958,8.574,6.371,17.595,-0.863,9.059,-6.471,0.0,5.865,23.46
3.8000000000000003,1.198,8.622,-5.988,17.595,-1.006,8.814,6.227,17.595,-0.719,9.203,-6.471,0.0,11.73,17.595
3.805,1.245,8.67,-5.892,17.595,-1.054,8.862,6.179,17.595,-0.719,9.347,-6.327,5.865,11.73,17.595
3.81,1.15,8.622,-5.94,11.73,-1.006,8.814,6.179,17.595,-0.719,9.203,-6.327,5.865,11.73,17.595
3.815,1.15,8.574,-5.892,11.73,-0.958,8.718,6.179,11.73,-0.719,9.203,-6.327,5.865,11.73,11.73
3.8200000000000003,1.15,8.478,-5.892,11.73,-0.958,8.574,6.131,11.73,-0.719,8.916,-6.183,5.865,11.73,11.73
3.825,1.102,8.335,-5.844,5.865,-0.958,8.43,6.131,5.865,-0.719,8.772,-6.183,17.595,11.73,5.865
3.83,1.054,8.191,-5.892,5.865,-0.91,8.239,6.179,5.865,-0.719,8.484,-6.183,17.595,11.73,5.865
3.835,1.006,8.047,-5.892,5.865,-0.862,8.095,6.179,5.865,-0.575,8.34,-6.183,17.595,11.73,5.865
3.84,0.958,7.999,-5.844,-0.0,-0.814,7.951,6.131,5.865,-0.575,8.197,-6.183,17.595,11.73,0.0
3.845,0.958,7.904,-5.748,-0.0,-0.766,7.856,6.035,5.865,-0.575,8.053,-6.183,17.595,11.73,0.0
3.85,0.91,7.856,-5.7,-0.0,-0.719,7.712,5.94,5.865,-0.575,7.909,-6.04,17.595,11.73,0.0
3.855,0.91,7.808,-5.604,-0.0,-0.719,7.664,5.892,5.865,-0.431,7.765,-6.04,17.595,11.73,5.865
3.86,0.958,7.76,-5.509,5.865,-0.719,7.616,5.748,5.865,-0.431,7.621,-5.896,5.865,11.73,5.865
3.865,0.958,7.76,-5.413,5.865,-0.766,7.568,5.7,5.865,-0.431,7.478,-5.752,5.865,11.73,5.865
3.87,0.958,7.712,-5.365,5.865,-0.719,7.52,5.652,5.865,-0.431,7.478,-5.752,5.865,11.73,5.865
3.875,0.958,7.664,-5.269,5.865,-0.719,7.425,5.556,5.865,-0.431,7.478,-5.608,5.865,11.73,5.865
3.88,0.958,7.568,-5.221,11.73,-0.719,7.329,5.461,11.73,-0.431,7.334,-5.608,0.0,11.73,5.865
3.8850000000000002,0.862,7.472,-5.269,11.73,-0.671,7.233,5.509,11.73,-0.431,7.19,-5.608,0.0,5.865,5.865
3.89,0.862,7.425,-5.269,11.73,-0.671,7.233,5.509,11.73,-0.431,7.19,-5.608,-5.865,5.865,11.73
3.895,0.862,7.425,-5.269,17.595,-0.623,7.233,5.509,17.595,-0.431,7.19,-5.608,-11.73,5.865,11.73
3.9,0.814,7.377,-5.269,17.595,-0.623,7.233,5.509,17.595,-0.288,7.334,-5.608,-11.73,5.865,17.595
3.9050000000000002,0.719,7.472,-5.365,23.46,-0.575,7.377,5.604,23.46,-0.288,7.334,-5.608,-17.595,5.865,17.595
3.91,0.671,7.616,-5.413,23.46,-0.479,7.568,5.652,23.46,-0.288,7.621,-5.752,-17.595,5.865,23.46
3.915,0.719,7.808,-5.509,23.46,-0.527,7.808,5.748,23.46,-0.288,7.909,-5.752,-17.595,5.865,23.46
3.92,0.719,7.904,-5.604,23.46,-0.575,7.951,5.796,23.46,-0.288,8.197,-5.896,-17.595,5.865,23.46
3.9250000000000003,0.671,7.999,-5.7,29.326,-0.527,8.095,5.892,23.46,-0.288,8.34,-6.04,-17.595,5.865,23.46
3.93,0.671,8.047,-5.748,23.46,-0.527,8.191,5.988,23.46,-0.288,8.484,-6.04,-17.595,5.865,23.46
3.935,0.671,7.999,-5.844,23.46,-0.575,8.143,6.035,23.46,-0.288,8.484,-6.183,-17.595,5.865,23.46
3.94,0.623,7.904,-5.94,23.46,-0.527,8.047,6.179,23.46,-0.288,8.484,-6.183,-11.73,5.865,23.46
3.9450000000000003,0.527,7.808,-5.988,23.46,-0.479,7.951,6.227,23.46,-0.288,8.34,-6.327,-11.73,5.865,23.46
3.95,0.479,7.76,-5.988,23.46,-0.431,7.856,6.227,23.46,-0.288,8.197,-6.327,-5.865,11.73,23.46
3.955,0.479,7.76,-5.988,17.595,-0.383,7.856,6.227,17.595,-0.288,8.197,-6.327,-5.865,11.73,17.595
3.96,0.479,7.808,-6.035,17.595,-0.335,7.856,6.275,17.595,-0.144,8.197,-6.327,-5.865,11.73,17.595
3.9650000000000003,0.479,7.951,-5.988,17.595,-0.335,7.951,6.275,17.595,-0.144,8.197,-6.327,-5.865,11.73,17.595
3.97,0.575,8.047,-5.988,23.46,-0.383,8.047,6.227,23.46,-0.144,8.197,-6.327,0.0,17.595,17.595
3.975,0.575,8.143,-5.94,23.46,-0.383,8.143,6.227,23.46,-0.144,8.34,-6.327,0.0,17.595,17.595
3.98,0.575,8.239,-5.892,23.46,-0.431,8.239,6.179,17.595,-0.144,8.34,-6.327,0.0,17.595,17.595
3.985,0.575,8.287,-5.844,17.595,-0.383,8.287,6.131,17.595,-0.144,8.34,-6.327,0.0,17.595,17.595
3.99,0.527,8.239,-5.892,17.595,-0.383,8.239,6.131,17.595,-0.144,8.484,-6.183,0.0,17.595,17.595
3.995,0.527,8.239,-5.892,23.46,-0.335,8.239,6.131,17.595,-0.144,8.34,-6.183,-5.865,17.595,17.595
4.0,0.575,8.335,-5.796,23.46,-0.383,8.287,6.083,23.46,0.0,8.484,-6.183,-5.865,17.595,17.595
4.005,0.479,8.287,-5.796,17.595,-0.287,8.287,6.035,17.595,-0.144,8.484,-6.183,-5.865,17.595,17.595
4.01,0.575,8.287,-5.796,23.46,-0.335,8.287,6.035,23.46,0.0,8.484,-6.183,-5.865,17.595,17.595
4.015,0.527,8.287,-5.796,23.46,-0.335,8.287,6.035,17.595,0.0,8.34,-6.183,-5.865,17.595,17.595
4.0200000000000005,0.527,8.335,-5.796,17.595,-0.287,8.287,6.035,17.595,0.0,8.484,-6.183,-5.865,17.595,17.595
4.025,0.479,8.335,-5.748,23.46,-0.24,8.335,5.988,17.595,0.0,8.484,-6.183,-5.865,17.595,17.595
4.03,0.479,8.335,-5.7,17.595,-0.24,8.383,5.94,17.595,0.144,8.484,-6.04,-5.865,17.595,17.595
4.035,0.479,8.335,-5.748,17.595,-0.24,8.383,5.94,17.595,0.144,8.484,-6.04,-5.865,17.595,17.595
4.04,0.431,8.287,-5.796,17.595,-0.192,8.383,5.988,17.595,0.144,8.484,-6.04,-5.865,17.595,17.595
4.045,0.383,8.383,-5.844,17.595,-0.192,8.43,6.083,17.595,0.288,8.628,-6.183,-5.865,17.595,17.595
4.05,0.431,8.383,-5.796,17.595,-0.192,8.43,6.035,17.595,0.288,8.628,-6.183,-5.865,17.595,17.595
4.055,0.383,8.335,-5.796,17.595,-0.192,8.43,6.035,17.595,0.144,8.628,-6.183,-5.865,17.595,17.595
4.0600000000000005,0.335,8.239,-5.844,17.595,-0.144,8.335,6.131,17.595,0.144,8.628,-6.183,-5.865,17.595,17.595
4.065,0.335,8.239,-5.892,17.595,-0.144,8.287,6.131,17.595,0.144,8.484,-6.183,-5.865,17.595,11.73
4.07,0.383,8.239,-5.892,11.73,-0.192,8.239,6.179,17.595,0.144,8.484,-6.327,-5.865,17.595,17.595
4.075,0.335,8.287,-5.892,17.595,-0.192,8.287,6.131,17.595,0.144,8.484,-6.183,-5.865,17.595,11.73
4.08,0.383,8.335,-5.844,11.73,-0.192,8.335,6.131,11.73,0.144,8.484,-6.183,-5.865,17.595,11.73
4.085,0.431,8.383,-5.844,11.73,-0.24,8.383,6.083,11.73,0.144,8.484,-6.183,-5.865,17.595,11.73
4.09,0.479,8.383,-5.796,11.73,-0.24,8.383,6.035,11.73,0.0,8.484,-6.183,-5.865,17.595,11.73
4.095,0.431,8.335,-5.796,11.73,-0.24,8.335,6.035,11.73,0.0,8.484,-6.183,-5.865,17.595,11.73
4.1,0.383,8.287,-5.796,11.73,-0.192,8.335,6.035,11.73,0.0,8.484,-6.183,-5.865,17.595,11.73
4.105,0.431,8.287,-5.748,11.73,-0.192,8.335,6.035,11.73,0.0,8.484,-6.183,-5.865,17.595,11.73
4.11,0.479,8.335,-5.796,11.73,-0.192,8.335,5.988,11.73,0.0,8.628,-6.04,-5.865,17.595,11.73
4.115,0.383,8.287,-5.796,11.73,-0.192,8.335,6.035,11.73,0.288,8.484,-6.183,-5.865,17.595,11.73
4.12,0.383,8.239,-5.796,11.73,-0.192,8.287,6.035,11.73,0.144,8.484,-6.183,-5.865,17.595,11.73
4.125,0.383,8.191,-5.796,11.73,-0.192,8.239,6.035,11.73,0.0,8.484,-6.183,-5.865,17.595,11.73
4.13,0.335,8.191,-5.796,11.73,-0.192,8.239,6.035,11.73,0.0,8.484,-6.183,-5.865,17.595,11.73
4.135,0.287,8.143,-5.7,11.73,-0.144,8.239,5.988,11.73,0.144,8.484,-6.04,-5.865,17.595,11.73
4.14,0.335,8.143,-5.796,11.73,-0.096,8.191,6.035,11.73,0.144,8.484,-6.04,-5.865,17.595,11.73
4.1450000000000005,0.24,8.095,-5.796,11.73,-0.048,8.143,6.083,11.73,0.288,8.34,-6.183,0.0,17.595,11.73
4.15,0.287,8.047,-5.748,11.73,-0.096,8.095,6.035,11.73,0.288,8.34,-6.183,0.0,17.595,11.73
4.155,0.24,8.047,-5.748,11.73,-0.096,8.095,6.035,11.73,0.288,8.34,-6.04,0.0,17.595,11.73
4.16,0.24,7.999,-5.796,11.73,-0.048,8.095,6.035,11.73,0.288,8.34,-6.04,0.0,17.595,11.73
4.165,0.192,8.047,-5.748,11.73,0.0,8.143,6.035,11.73,0.288,8.34,-6.183,0.0,17.595,11.73
4.17,0.24,8.095,-5.7,11.73,-0.048,8.143,5.988,11.73,0.288,8.34,-6.04,0.0,17.595,11.73
4.175,0.24,8.047,-5.7,11.73,-0.048,8.095,5.94,11.73,0.288,8.34,-6.04,0.0,17.595,11.73
4.18,0.192,7.999,-5.7,11.73,0.0,8.047,5.94,11.73,0.288,8.34,-6.04,0.0,17.595,11.73
4.1850000000000005,0.144,7.904,-5.748,11.73,0.048,7.999,5.988,11.73,0.288,8.197,-6.04,5.865,17.595,11.73
4.19,0.096,7.856,-5.748,11.73,0.048,7.904,5.988,11.73,0.288,8.197,-6.04,5.865,17.595,11.73
4.195,0.144,7.808,-5.796,11.73,0.048,7.856,6.035,11.73,0.288,8.053,-6.04,5.865,17.595,11.73
4.2,0.096,7.808,-5.796,11.73,0.048,7.856,6.035,11.73,0.288,8.053,-6.04,5.865,17.595,11.73
4.205,0.192,7.856,-5.796,11.73,0.048,7.856,6.035,11.73,0.288,8.053,-6.183,5.865,17.595,11.73
4.21,0.144,7.951,-5.796,11.73,0.048,7.951,6.035,11.73,0.288,8.053,-6.183,5.865,17.595,11.73
4.215,0.144,7.999,-5.844,11.73,0.048,8.047,6.083,11.73,0.288,8.197,-6.183,5.865,17.595,11.73
4.22,0.144,8.095,-5.844,11.73,0.048,8.143,6.083,11.73,0.288,8.34,-6.183,5.865,17.595,11.73
4.225,0.144,8.239,-5.892,11.73,0.048,8.239,6.131,11.73,0.288,8.484,-6.183,5.865,17.595,11.73
4.23,0.096,8.239,-5.94,11.73,0.048,8.335,6.227,11.73,0.288,8.628,-6.327,5.865,23.46,11.73
4.235,0.287,8.574,-5.844,11.73,0.0,8.526,6.131,11.73,0.288,8.628,-6.327,5.865,23.46,11.73
4.24,0.287,8.67,-5.844,11.73,-0.096,8.718,6.035,11.73,0.288,8.772,-6.183,5.865,23.46,11.73
4.245,0.192,8.766,-5.94,11.73,0.0,8.862,6.179,11.73,0.288,9.059,-6.183,5.865,23.46,11.73
4.25,0.192,8.862,-5.988,11.73,0.0,8.957,6.227,11.73,0.288,9.203,-6.327,5.865,23.46,11.73
4.255,0.335,9.101,-5.988,11.73,-0.048,9.149,6.227,11.73,0.288,9.347,-6.327,5.865,23.46,11.73
4.26,0.383,9.245,-6.035,11.73,-0.144,9.293,6.275,11.73,0.288,9.491,-6.327,5.865,23.46,11.73
4.265,0.24,9.628,-6.419,11.73,-0.144,9.484,6.419,11.73,0.288,9.635,-6.471,5.865,23.46,11.73
4.2700000000000005,0.575,9.676,-6.371,11.73,-0.24,9.676,6.61,11.73,0.288,9.778,-6.759,5.865,23.46,11.73
4.275,0.671,9.915,-6.227,11.73,-0.431,9.963,6.514,11.73,0.0,10.066,-6.615,5.865,23.46,11.73
4.28,0.766,10.203,-6.323,11.73,-0.479,10.203,6.514,11.73,-0.144,10.354,-6.615,5.865,23.46,11.73
4.285,0.91,10.634,-6.371,5.865,-0.575,10.538,6.562,11.73,-0.144,10.497,-6.759,5.865,23.46,11.73
4.29,1.006,10.873,-6.275,5.865,-0.623,10.778,6.514,5.865,-0.144,10.785,-6.615,5.865,23.46,5.865
4.295,1.102,10.969,-6.179,-0.0,-0.719,10.873,6.419,0.0,-0.144,10.785,-6.615,5.865,23.46,5.865
4.3,1.054,10.921,-6.083,-5.865,-0.766,10.921,6.323,0.0,-0.288,10.929,-6.471,5.865,17.595,0.0
4.305,1.006,10.873,-6.035,-5.865,-0.671,10.921,6.275,-5.865,-0.288,11.073,-6.471,5.865,17.595,-5.865
4.3100000000000005,1.006,10.873,-5.94,-11.73,-0.623,10.969,6.179,-11.73,-0.144,11.073,-6.327,5.865,17.595,-11.73
4.315,1.054,10.825,-5.844,-17.595,-0.671,10.921,6.083,-17.595,-0.144,11.216,-6.183,5.865,17.595,-17.595
4.32,1.054,10.682,-5.796,-23.46,-0.719,10.825,5.988,-17.595,-0.288,11.073,-6.183,5.865,17.595,-17.595
4.325,0.958,10.538,-5.748,-23.46,-0.719,10.634,5.988,-23.46,-0.288,10.929,-6.04,5.865,11.73,-23.46
4.33,0.91,10.299,-5.748,-29.326,-0.623,10.442,5.988,-29.326,-0.288,10.785,-6.04,5.865,11.73,-23.46
4.335,0.814,10.011,-5.7,-29.326,-0.575,10.203,5.94,-29.326,-0.288,10.641,-6.04,5.865,11.73,-29.326
4.34,0.814,9.772,-5.652,-29.326,-0.575,9.963,5.892,-29.326,-0.288,10.354,-6.04,5.865,11.73,-35.191
4.345,0.814,9.676,-5.652,-29.326,-0.575,9.82,5.844,-29.326,-0.288,10.21,-6.04,5.865,11.73,-35.191
4.3500000000000005,0.814,9.628,-5.604,-35.191,-0.575,9.724,5.844,-35.191,-0.144,10.066,-5.896,17.595,11.73,-35.191
4.355,0.862,9.58,-5.556,-35.191,-0.575,9.676,5.796,-35.191,-0.144,9.922,-5.896,17.595,11.73,-35.191
4.36,0.91,9.58,-5.461,-35.191,-0.671,9.676,5.7,-35.191,-0.288,9.922,-5.896,17.595,11.73,-35.191
4.365,0.91,9.532,-5.461,-35.191,-0.671,9.676,5.7,-35.191,-0.288,9.922,-5.752,17.595,5.865,-35.191
4.37,0.91,9.532,-5.413,-35.191,-0.623,9.676,5.652,-35.191,-0.288,10.066,-5.752,23.46,5.865,-35.191
4.375,1.006,9.484,-5.413,-35.191,-0.719,9.58,5.604,-35.191,-0.288,10.066,-5.752,23.46,5.865,-35.191
4.38,0.958,9.388,-5.461,-41.056,-0.719,9.532,5.652,-41.056,-0.288,9.922,-5.752,23.46,5.865,-41.056
4.385,0.91,9.293,-5.509,-41.056,-0.671,9.388,5.7,-41.056,-0.288,9.778,-5.752,29.326,5.865,-41.056
4.39,0.91,9.149,-5.556,-41.056,-0.671,9.245,5.796,-41.056,-0.288,9.635,-5.896,29.326,5.865,-46.921
4.3950000000000005,0.91,8.957,-5.509,-41.056,-0.671,9.053,5.748,-41.056,-0.288,9.347,-5.896,29.326,5.865,-46.921
4.4,0.862,8.766,-5.509,-41.056,-0.623,8.862,5.748,-46.921,-0.288,9.203,-5.896,29.326,5.865,-46.921
4.405,0.766,8.43,-5.509,-46.921,-0.623,8.574,5.748,-46.921,-0.288,8.916,-5.896,29.326,5.865,-46.921
4.41,0.671,8.191,-5.509,-46.921,-0.527,8.335,5.748,-46.921,-0.288,8.628,-5.896,29.326,5.865,-46.921
4.415,0.671,7.999,-5.461,-46.921,-0.479,8.095,5.748,-46.921,-0.288,8.484,-5.896,29.326,5.865,-46.921
4.42,0.623,7.76,-5.509,-41.056,-0.431,7.904,5.748,-46.921,-0.144,8.197,-5.896,35.191,5.865,-46.921
4.425,0.527,7.568,-5.556,-41.056,-0.383,7.664,5.796,-46.921,-0.144,8.053,-5.896,35.191,5.865,-46.921
4.43,0.527,7.377,-5.604,-41.056,-0.335,7.425,5.844,-46.921,-0.144,7.765,-5.896,35.191,5.865,-46.921
4.4350000000000005,0.527,7.185,-5.604,-41.056,-0.335,7.185,5.844,-46.921,-0.144,7.478,-5.896,35.191,5.865,-46.921
4.44,0.479,6.993,-5.604,-41.056,-0.335,6.993,5.844,-41.056,-0.144,7.19,-5.896,35.191,5.865,-46.921
4.445,0.479,6.85,-5.556,-41.056,-0.287,6.85,5.844,-41.056,-0.144,7.046,-5.896,35.191,5.865,-41.056
4.45,0.479,6.658,-5.556,-41.056,-0.287,6.61,5.796,-41.056,-0.144,6.759,-5.896,35.191,5.865,-41.056
4.455,0.383,6.467,-5.509,-41.056,-0.24,6.419,5.796,-41.056,0.0,6.615,-5.896,29.326,5.865,-41.056
4.46,0.287,6.179,-5.509,-35.191,-0.144,6.179,5.748,-41.056,0.0,6.327,-5.896,29.326,5.865,-41.056
4.465,0.24,5.988,-5.556,-35.191,-0.096,5.988,5.844,-35.191,0.0,6.183,-5.896,29.326,5.865,-41.056
4.47,0.287,5.844,-5.604,-35.191,-0.096,5.796,5.844,-35.191,0.0,6.04,-5.896,29.326,5.865,-41.056
4.4750000000000005,0.24,5.652,-5.652,-29.326,-0.144,5.604,5.892,-35.191,0.0,5.752,-5.896,29.326,0.0,-35.191
4.48,0.192,5.461,-5.748,-29.326,-0.096,5.413,5.988,-29.326,0.0,5.608,-6.04,29.326,0.0,-35.191
4.485,0.24,5.365,-5.796,-29.326,-0.096,5.269,6.083,-29.326,0.0,5.464,-6.183,23.46,5.865,-29.326
4.49,0.24,5.269,-5.796,-23.46,-0.144,5.173,6.083,-29.326,0.0,5.321,-6.183,23.46,5.865,-29.326
4.495,0.287,5.221,-5.796,-23.46,-0.192,5.077,6.083,-23.46,0.0,5.177,-6.183,23.46,5.865,-23.46
4.5,0.24,5.077,-5.748,-17.595,-0.192,4.982,6.035,-17.595,0.0,5.033,-6.183,17.595,5.865,-23.46
4.505,0.24,4.934,-5.7,-17.595,-0.192,4.886,5.988,-17.595,-0.144,5.033,-6.183,17.595,5.865,-17.595
4.51,0.24,4.79,-5.7,-11.73,-0.144,4.79,5.988,-11.73,-0.144,5.033,-6.04,5.865,5.865,-17.595
4.515,0.192,4.694,-5.748,-11.73,-0.144,4.646,5.988,-11.73,-0.144,4.889,-6.04,5.865,5.865,-11.73
4.5200000000000005,0.192,4.503,-5.796,-5.865,-0.048,4.407,6.083,-5.865,0.0,4.602,-6.183,5.865,5.865,-11.73
4.525,0.048,4.263,-5.796,-0.0,-0.048,4.167,6.131,-5.865,0.0,4.314,-6.183,5.865,11.73,-5.865
4.53,0.096,4.024,-5.844,-0.0,-0.048,3.928,6.131,0.0,0.0,4.026,-6.183,5.865,11.73,0.0
4.535,0.0,3.832,-5.796,5.865,-0.048,3.736,6.131,5.865,0.0,3.883,-6.183,5.865,11.73,0.0
4.54,0.048,3.545,-5.796,11.73,0.0,3.449,6.131,11.73,-0.144,3.595,-6.183,5.865,11.73,5.865
4.545,-0.144,3.353,-5.844,17.595,0.096,3.209,6.179,17.595,0.0,3.307,-6.183,5.865,17.595,11.73
4.55,-0.24,3.305,-5.892,29.326,0.24,3.161,6.227,23.46,0.288,3.164,-6.327,0.0,17.595,23.46
4.555,-0.24,3.401,-5.892,35.191,0.24,3.305,6.227,29.326,0.288,3.307,-6.327,0.0,17.595,29.326
4.5600000000000005,-0.192,3.64,-5.844,41.056,0.24,3.545,6.179,35.191,0.144,3.595,-6.327,0.0,17.595,35.191
4.565,-0.096,3.88,-5.844,46.921,0.192,3.736,6.179,41.056,0.288,3.739,-6.327,-5.865,23.46,41.056
4.57,-0.144,4.024,-5.892,46.921,0.192,3.88,6.227,46.921,0.288,3.883,-6.183,-5.865,23.46,46.921
4.575,-0.192,4.024,-6.035,52.786,0.24,3.928,6.371,52.786,0.288,3.883,-6.327,-5.865,23.46,46.921
4.58,-0.144,4.119,-5.988,52.786,0.24,3.976,6.371,52.786,0.288,4.026,-6.471,-5.865,23.46,52.786
4.585,-0.192,4.119,-6.035,58.651,0.24,3.88,6.371,58.651,0.288,3.883,-6.471,-5.865,23.46,52.786
4.59,-0.335,3.928,-6.179,58.651,0.383,3.784,6.514,58.651,0.431,3.739,-6.471,-11.73,23.46,58.651
4.595,-0.383,3.88,-6.323,64.516,0.479,3.736,6.61,64.516,0.575,3.739,-6.615,-11.73,29.326,58.651
4.6000000000000005,-0.479,4.215,-6.323,70.381,0.623,4.024,6.658,70.381,0.719,3.883,-6.759,-17.595,29.326,64.516
4.605,-0.383,4.407,-6.275,76.246,0.527,4.263,6.61,76.246,0.719,4.17,-6.759,-17.595,29.326,70.381
4.61,-0.431,4.455,-6.275,82.111,0.431,4.407,6.61,82.111,0.575,4.458,-6.615,-23.46,29.326,76.246
4.615,-0.527,4.694,-6.371,82.111,0.527,4.694,6.658,87.977,0.575,4.745,-6.759,-23.46,29.326,82.111
4.62,-0.479,5.03,-6.323,87.977,0.527,5.077,6.658,87.977,0.575,5.177,-6.759,-23.46,29.326,87.977
4.625,-0.383,5.413,-6.323,87.977,0.431,5.461,6.61,87.977,0.575,5.608,-6.615,-23.46,29.326,87.977
4.63,-0.431,5.94,-6.275,93.842,0.527,5.988,6.658,93.842,0.575,6.04,-6.759,-17.595,35.191,87.977
4.635,-0.24,6.514,-6.179,87.977,0.431,6.61,6.514,93.842,0.575,6.759,-6.615,-17.595,35.191,87.977
4.64,-0.048,7.041,-6.179,87.977,0.287,7.089,6.419,93.842,0.575,7.334,-6.471,-11.73,35.191,87.977
4.6450000000000005,0.048,7.472,-6.131,87.977,0.192,7.52,6.419,87.977,0.575,7.765,-6.471,-11.73,35.191,87.977
4.65,0.096,7.76,-6.227,82.111,0.144,7.808,6.467,87.977,0.575,7.909,-6.615,-5.865,35.191,82.111
4.655,1.437,19.064,2.635,82.111,-0.575,13.029,4.886,82.111,0.431,8.053,-6.615,-5.865,35.191,82.111
4.66,18.25,10.107,-2.108,46.921,-12.694,7.664,-2.97,70.381,-8.197,59.965,10.066,5.865,41.056,82.111
4.665,-0.575,23.95,-4.119,11.73,-1.341,21.316,4.455,11.73,-1.869,28.472,-4.602,35.191,52.786,29.326
4.67,-0.862,16.669,-5.077,23.46,4.503,16.094,5.03,23.46,8.772,14.092,-4.889,5.865,0.0,17.595
4.675,2.635,13.22,-5.269,17.595,-0.479,12.981,5.796,17.595,4.602,10.066,-6.04,-41.056,-29.326,17.595
4.68,2.682,8.335,-3.209,35.191,-3.688,9.82,3.688,29.326,-2.445,11.792,-5.033,-87.977,-58.651,23.46
4.6850000000000005,1.341,7.281,-3.688,41.056,-3.305,8.335,3.88,41.056,-5.321,10.21,-3.595,-105.572,-70.381,41.056
4.69,0.671,7.999,-3.976,17.595,-2.012,8.814,4.215,23.46,-4.314,9.922,-4.17,-99.707,-58.651,35.191
4.695,1.245,9.053,-4.119,-17.595,-1.724,9.867,4.359,-11.73,-3.02,10.785,-4.314,-82.111,-35.191,5.865
4.7,0.91,9.724,-3.736,-35.191,-1.006,10.73,4.024,-35.191,-1.294,12.079,-4.314,-64.516,-11.73,-23.46
4.705,0.766,9.484,-3.209,-29.326,-0.575,10.825,3.545,-29.326,-0.288,12.654,-3.883,-41.056,0.0,-35.191
4.71,0.719,9.58,-3.066,-17.595,-0.383,10.778,3.257,-17.595,0.0,12.654,-3.307,-23.46,0.0,-23.46
4.715,0.814,9.772,-3.449,-5.865,-0.335,10.73,3.497,-5.865,0.288,12.511,-3.451,0.0,0.0,-11.73
4.72,0.814,9.867,-4.167,5.865,-0.383,10.538,4.167,5.865,0.431,12.079,-4.026,17.595,0.0,0.0
4.7250000000000005,0.91,9.867,-5.03,17.595,-0.623,10.203,5.03,11.73,0.0,11.216,-4.745,35.191,-5.865,11.73
4.73,1.102,9.58,-5.748,23.46,-0.862,9.676,5.796,23.46,-0.431,10.354,-5.608,41.056,-5.865,23.46
4.735,0.958,9.149,-6.371,23.46,-0.91,9.053,6.514,23.46,-0.719,9.347,-6.327,46.921,-5.865,23.46
4.74,0.862,8.718,-6.85,23.46,-0.862,8.478,6.993,23.46,-0.863,8.484,-6.902,46.921,-5.865,23.46
4.745,0.623,8.287,-7.089,17.595,-0.671,8.047,7.329,17.595,-0.719,7.909,-7.334,46.921,-5.865,23.46
4.75,0.719,8.191,-7.425,11.73,-0.575,7.76,7.616,17.595,-0.575,7.478,-7.478,41.056,0.0,17.595
4.755,0.575,7.951,-7.377,5.865,-0.383,7.568,7.664,11.73,-0.144,7.19,-7.765,29.326,0.0,11.73
4.76,0.575,7.856,-7.281,5.865,-0.335,7.52,7.616,5.865,0.0,7.046,-7.765,23.46,0.0,5.865
4.765,0.575,7.664,-6.946,-0.0,-0.383,7.568,7.425,5.865,0.0,7.334,-7.621,5.865,0.0,5.865
4.7700000000000005,0.814,7.76,-6.658,-0.0,-0.479,7.664,7.137,0.0,-0.288,7.621,-7.19,5.865,0.0,0.0
4.775,0.814,8.43,-7.089,-5.865,-0.335,7.999,7.233,-5.865,0.144,7.765,-7.046,5.865,0.0,-5.865
4.78,0.814,8.718,-7.281,-5.865,-0.479,8.239,7.568,-5.865,0.144,7.765,-7.621,0.0,-5.865,-5.865
4.785,1.006,8.191,-6.419,-5.865,-0.958,8.239,6.754,-11.73,0.288,8.484,-7.478,-5.865,-5.865,-11.73
4.79,0.814,8.191,-6.419,-11.73,-0.623,8.478,6.706,-5.865,-0.719,8.772,-6.759,-5.865,-5.865,-11.73
4.795,0.766,8.239,-6.323,-11.73,-0.623,8.383,6.61,-11.73,-0.431,8.772,-6.759,-5.865,-5.865,-11.73
4.8,0.623,8.143,-6.131,-11.73,-0.527,8.43,6.419,-11.73,-0.288,8.772,-6.615,-5.865,-5.865,-11.73
4.805,0.575,7.999,-5.988,-11.73,-0.527,8.287,6.275,-11.73,-0.431,8.916,-6.471,-5.865,-5.865,-11.73
4.8100000000000005,0.527,7.904,-5.796,-5.865,-0.479,8.191,6.083,-5.865,-0.288,8.772,-6.327,0.0,-5.865,-11.73
4.815,0.575,8.047,-5.461,-5.865,-0.479,8.191,5.796,-5.865,-0.288,8.772,-6.04,5.865,0.0,-5.865
4.82,0.623,8.191,-5.317,-0.0,-0.479,8.287,5.556,0.0,-0.288,8.628,-5.752,5.865,0.0,-5.865
4.825,0.575,8.287,-5.221,-0.0,-0.431,8.383,5.461,0.0,-0.288,8.628,-5.608,5.865,0.0,0.0
4.83,0.719,8.526,-5.077,5.865,-0.527,8.478,5.365,5.865,-0.288,8.772,-5.464,5.865,0.0,0.0
4.835,0.766,8.67,-4.934,5.865,-0.575,8.574,5.173,5.865,-0.288,8.772,-5.321,17.595,5.865,5.865
4.84,0.719,8.67,-4.886,5.865,-0.527,8.574,5.125,5.865,-0.288,8.628,-5.177,17.595,5.865,5.865
4.845,0.719,8.67,-4.838,5.865,-0.431,8.574,5.077,5.865,-0.144,8.628,-5.177,5.865,5.865,5.865
4.8500000000000005,0.719,8.574,-4.79,5.865,-0.431,8.478,5.03,5.865,-0.144,8.628,-5.177,5.865,5.865,5.865
4.855,0.671,8.478,-4.838,-0.0,-0.383,8.383,5.03,0.0,0.0,8.484,-5.177,5.865,0.0,0.0
4.86,0.623,8.43,-4.886,-0.0,-0.335,8.287,5.077,0.0,0.0,8.34,-5.177,5.865,0.0,0.0
4.865,0.623,8.383,-4.982,-0.0,-0.335,8.287,5.173,5.865,0.0,8.34,-5.177,5.865,0.0,0.0
4.87,0.671,8.383,-5.077,-0.0,-0.383,8.287,5.269,0.0,0.0,8.34,-5.321,5.865,0.0,0.0
4.875,0.623,8.383,-5.221,-0.0,-0.383,8.335,5.413,0.0,0.0,8.34,-5.464,0.0,0.0,0.0
4.88,0.719,8.383,-5.269,-5.865,-0.479,8.383,5.509,0.0,-0.144,8.484,-5.608,0.0,-5.865,0.0
4.885,0.671,8.335,-5.365,-5.865,-0.431,8.335,5.604,-5.865,-0.144,8.484,-5.608,0.0,-5.865,-5.865
4.89,0.623,8.095,-5.461,-5.865,-0.431,8.143,5.652,-5.865,-0.144,8.34,-5.752,0.0,-5.865,-5.865
4.8950000000000005,0.479,7.951,-5.509,-5.865,-0.335,7.999,5.748,-5.865,0.0,8.197,-5.752,0.0,-5.865,-11.73
4.9,0.383,7.856,-5.604,-11.73,-0.192,7.951,5.796,-5.865,0.0,8.197,-5.896,-5.865,-5.865,-11.73
4.905,0.383,7.76,-5.652,-11.73,-0.24,7.808,5.844,-5.865,0.0,8.197,-5.896,0.0,-5.865,-11.73
4.91,0.431,7.664,-5.796,-11.73,-0.287,7.712,6.035,-5.865,0.0,8.053,-6.04,0.0,-5.865,-11.73
4.915,0.431,7.76,-5.748,-5.865,-0.335,7.808,5.988,-5.865,0.0,8.053,-6.04,0.0,-5.865,-11.73
4.92,0.527,7.712,-5.796,-5.865,-0.383,7.808,6.035,-5.865,-0.144,8.053,-6.183,0.0,-5.865,-5.865
4.925,0.527,7.76,-5.844,-0.0,-0.431,7.856,6.083,0.0,-0.144,8.197,-6.183,0.0,-5.865,-5.865
4.93,0.575,7.856,-5.844,-0.0,-0.479,7.951,6.083,0.0,-0.288,8.197,-6.183,0.0,0.0,-5.865
4.9350000000000005,0.671,7.904,-5.844,-0.0,-0.527,7.999,6.083,0.0,-0.288,8.197,-6.183,5.865,0.0,0.0
4.94,0.671,7.999,-5.892,-0.0,-0.527,8.047,6.131,0.0,-0.288,8.34,-6.183,5.865,0.0,0.0
4.945,0.671,8.095,-5.892,-0.0,-0.527,8.143,6.179,0.0,-0.288,8.34,-6.183,5.865,0.0,0.0
4.95,0.719,8.047,-5.892,-0.0,-0.575,8.047,6.179,0.0,-0.288,8.34,-6.183,5.865,0.0,0.0
4.955,0.671,7.999,-5.892,-0.0,-0.575,7.999,6.131,0.0,-0.288,8.197,-6.183,5.865,0.0,0.0
4.96,0.671,7.904,-5.94,-0.0,-0.623,7.904,6.179,0.0,-0.431,8.197,-6.183,5.865,0.0,0.0
4.965,0.671,7.951,-5.94,-0.0,-0.623,7.904,6.179,0.0,-0.431,8.197,-6.327,5.865,5.865,0.0
4.97,0.671,7.951,-5.988,-0.0,-0.479,7.904,6.227,0.0,-0.288,8.053,-6.327,5.865,5.865,0.0
4.9750000000000005,0.575,7.951,-5.892,-0.0,-0.431,7.904,6.179,0.0,-0.144,8.197,-6.327,5.865,5.865,0.0
4.98,0.623,7.904,-5.796,-0.0,-0.479,7.904,6.083,0.0,-0.144,8.053,-6.183,5.865,5.865,0.0
4.985,0.766,7.951,-5.892,-0.0,-0.575,7.999,6.131,0.0,-0.288,8.053,-6.183,5.865,5.865,0.0
4.99,0.719,8.191,-5.94,-0.0,-0.575,8.143,6.227,0.0,-0.431,8.197,-6.327,5.865,5.865,0.0
4.995,0.766,8.335,-5.796,-0.0,-0.623,8.287,6.035,0.0,-0.575,8.34,-6.183,5.865,5.865,0.0
5.0,0.671,8.383,-5.796,-5.865,-0.527,8.287,6.035,-5.865,-0.288,8.34,-6.183,5.865,5.865,0.0
5.005,0.623,8.383,-5.796,-5.865,-0.383,8.287,6.035,-5.865,-0.144,8.34,-6.183,5.865,11.73,-5.865
5.01,0.575,8.335,-5.652,-5.865,-0.383,8.191,5.892,0.0,0.0,8.197,-6.04,0.0,11.73,-5.865
5.015,0.527,8.287,-5.509,-5.865,-0.335,8.191,5.748,0.0,0.0,8.197,-5.896,0.0,11.73,-5.865
5.0200000000000005,0.575,8.335,-5.269,-5.865,-0.335,8.239,5.604,0.0,0.0,8.34,-5.752,0.0,11.73,0.0
5.025,0.766,8.478,-5.077,-5.865,-0.383,8.383,5.413,0.0,0.0,8.34,-5.752,-5.865,5.865,-5.865
5.03,0.623,8.43,-4.694,-5.865,-0.383,8.383,4.982,-5.865,0.0,8.484,-5.321,-5.865,5.865,-5.865
5.035,0.431,8.335,-4.407,-5.865,-0.192,8.383,4.694,-5.865,0.0,8.628,-4.889,-5.865,5.865,-5.865
5.04,0.479,8.239,-4.167,-5.865,-0.144,8.287,4.455,-5.865,0.288,8.628,-4.602,-5.865,5.865,-5.865
5.045,0.575,8.191,-3.928,-5.865,-0.192,8.287,4.215,-5.865,0.288,8.484,-4.458,-5.865,5.865,-5.865
5.05,0.575,8.239,-3.784,-5.865,-0.192,8.287,4.024,-5.865,0.288,8.628,-4.17,-5.865,0.0,-5.865
5.055,0.575,8.335,-3.64,-5.865,-0.144,8.383,3.88,-5.865,0.431,8.628,-4.026,-5.865,0.0,-5.865
5.0600000000000005,0.623,8.478,-3.545,-5.865,-0.144,8.478,3.784,-5.865,0.431,8.628,-3.883,0.0,-5.865,-5.865
5.065,0.623,8.622,-3.497,-5.865,-0.144,8.574,3.736,-5.865,0.431,8.628,-3.883,0.0,-5.865,-5.865
5.07,0.671,8.718,-3.497,-5.865,-0.192,8.622,3.688,-5.865,0.431,8.772,-3.883,0.0,-11.73,-11.73
5.075,0.671,8.718,-3.497,-5.865,-0.287,8.718,3.736,-5.865,0.288,8.772,-3.883,0.0,-17.595,-5.865
5.08,0.671,8.67,-3.497,-11.73,-0.335,8.67,3.736,-11.73,0.144,8.916,-3.883,0.0,-17.595,-11.73
5.085,0.671,8.622,-3.449,-11.73,-0.287,8.622,3.688,-11.73,0.144,8.916,-3.739,0.0,-23.46,-11.73
5.09,0.575,8.526,-3.401,-11.73,-0.24,8.526,3.64,-11.73,0.288,8.772,-3.739,0.0,-23.46,-11.73
5.095,0.479,8.43,-3.305,-17.595,-0.144,8.478,3.545,-17.595,0.288,8.628,-3.739,0.0,-29.326,-11.73
5.1000000000000005,0.479,8.239,-3.209,-17.595,-0.096,8.335,3.449,-17.595,0.431,8.628,-3.595,0.0,-29.326,-17.595
5.105,0.431,8.143,-3.114,-17.595,-0.048,8.239,3.353,-17.595,0.431,8.484,-3.451,0.0,-29.326,-17.595
5.11,0.383,8.047,-3.018,-17.595,0.048,8.191,3.257,-17.595,0.575,8.484,-3.451,0.0,-35.191,-17.595
5.115,0.335,8.047,-3.018,-17.595,0.048,8.191,3.209,-17.595,0.575,8.484,-3.307,0.0,-41.056,-17.595
5.12,0.335,8.047,-3.066,-17.595,0.096,8.191,3.305,-17.595,0.719,8.484,-3.307,5.865,-41.056,-17.595
5.125,0.335,8.095,-3.161,-17.595,0.144,8.191,3.401,-17.595,0.719,8.484,-3.451,5.865,-46.921,-17.595
5.13,0.335,8.095,-3.305,-17.595,0.144,8.191,3.497,-17.595,0.719,8.484,-3.595,5.865,-46.921,-17.595
5.135,0.287,7.999,-3.449,-17.595,0.144,8.143,3.688,-17.595,0.719,8.484,-3.739,5.865,-52.786,-23.46
5.14,0.24,7.904,-3.688,-23.46,0.144,8.047,3.88,-23.46,0.719,8.34,-3.883,5.865,-58.651,-23.46
5.1450000000000005,0.192,7.856,-3.88,-17.595,0.192,7.999,4.072,-23.46,0.719,8.34,-4.17,5.865,-58.651,-23.46
5.15,0.192,7.808,-4.024,-23.46,0.192,7.904,4.263,-23.46,0.719,8.197,-4.314,17.595,-64.516,-23.46
5.155,0.144,7.808,-4.263,-17.595,0.24,7.904,4.455,-23.46,0.719,8.197,-4.458,17.595,-64.516,-23.46
5.16,0.144,7.808,-4.455,-23.46,0.24,7.856,4.646,-23.46,0.719,8.053,-4.745,23.46,-70.381,-23.46
5.165,-0.144,7.808,-4.742,-23.46,0.335,7.904,4.886,-23.46,0.719,8.053,-4.889,23.46,-70.381,-23.46
5.17,-0.335,7.712,-5.077,-23.46,0.527,7.808,5.269,-23.46,0.863,8.053,-5.177,23.46,-76.246,-23.46
5.175,-0.335,7.472,-5.604,-23.46,0.575,7.568,5.748,-23.46,0.863,7.909,-5.608,23.46,-76.246,-23.46
5.18,-0.24,7.329,-6.083,-17.595,0.431,7.377,6.275,-17.595,0.719,7.621,-6.183,23.46,-76.246,-23.46
5.1850000000000005,-0.192,7.233,-6.61,-17.595,0.335,7.233,6.802,-17.595,0.575,7.334,-6.615,23.46,-76.246,-17.595
5.19,-0.192,7.185,-7.041,-11.73,0.287,7.137,7.281,-11.73,0.575,7.19,-7.19,23.46,-76.246,-17.595
5.195,-0.096,7.137,-7.472,-5.865,0.144,7.089,7.712,-11.73,0.288,7.19,-7.621,23.46,-76.246,-11.73
5.2,-0.096,7.137,-7.904,-5.865,0.096,7.089,8.095,-5.865,0.144,7.19,-8.053,23.46,-76.246,-5.865
5.205,-0.048,7.137,-8.287,-5.865,0.048,7.089,8.526,-5.865,0.0,7.19,-8.484,17.595,-70.381,-5.865
5.21,0.0,7.185,-8.718,-0.0,0.0,7.137,8.909,0.0,0.0,7.19,-8.772,17.595,-70.381,-5.865
5.215,0.048,7.185,-9.149,-0.0,-0.096,7.137,9.341,0.0,0.0,7.19,-9.203,17.595,-64.516,0.0
5.22,0.048,7.137,-9.628,-0.0,-0.096,7.137,9.82,0.0,-0.144,7.19,-9.635,5.865,-58.651,0.0
5.2250000000000005,-0.048,7.089,-10.059,-0.0,-0.096,7.089,10.251,0.0,-0.144,7.19,-10.21,5.865,-58.651,0.0
5.23,-0.048,6.993,-10.49,-0.0,-0.096,6.993,10.682,0.0,-0.288,7.19,-10.641,5.865,-52.786,0.0
5.235,-0.096,6.802,-10.921,5.865,-0.192,6.85,11.113,5.865,-0.288,7.046,-10.929,5.865,-46.921,0.0
5.24,-0.192,6.562,-11.304,5.865,-0.192,6.706,11.496,5.865,-0.575,6.902,-11.36,5.865,-41.056,5.865
5.245,-0.335,6.419,-11.688,11.73,-0.192,6.562,11.879,5.865,-0.719,6.759,-11.792,5.865,-35.191,5.865
5.25,-0.383,6.275,-11.975,11.73,-0.144,6.419,12.215,11.73,-0.719,6.615,-12.079,5.865,-29.326,11.73
5.255,-0.479,6.227,-12.167,11.73,-0.144,6.371,12.454,11.73,-0.863,6.615,-12.367,5.865,-17.595,11.73
5.26,-0.527,6.275,-12.358,17.595,-0.192,6.371,12.646,17.595,-0.863,6.615,-12.511,5.865,-5.865,17.595
5.265,-0.431,6.323,-12.454,23.46,-0.287,6.371,12.789,17.595,-1.007,6.471,-12.798,5.865,5.865,17.595
5.2700000000000005,-0.287,6.323,-12.31,23.46,-0.383,6.323,12.694,23.46,-1.15,6.471,-12.798,5.865,23.46,23.46
5.275,-0.335,6.371,-12.119,29.326,-0.335,6.371,12.502,29.326,-1.15,6.471,-12.654,5.865,35.191,23.46
5.28,-0.287,6.371,-11.927,29.326,-0.335,6.323,12.31,29.326,-1.15,6.471,-12.367,5.865,46.921,29.326
5.285,-0.192,6.562,-11.592,35.191,-0.383,6.419,11.975,35.191,-0.863,6.615,-12.223,5.865,64.516,29.326
5.29,-0.192,6.754,-11.304,35.191,-0.287,6.61,11.688,35.191,-1.007,6.471,-11.935,5.865,76.246,29.326
5.295,-0.192,6.85,-11.017,35.191,-0.192,6.658,11.448,35.191,-0.719,6.471,-11.648,5.865,87.977,35.191
5.3,-0.24,6.993,-10.682,41.056,-0.096,6.802,11.113,41.056,-0.431,6.615,-11.36,5.865,99.707,35.191
5.305,-0.096,7.233,-10.299,41.056,-0.24,6.993,10.73,41.056,-0.431,6.759,-11.073,0.0,105.572,41.056
5.3100000000000005,0.192,7.472,-10.011,41.056,-0.383,7.233,10.394,41.056,-0.719,6.902,-10.641,-5.865,111.437,41.056
5.315,0.287,7.712,-9.772,35.191,-0.431,7.425,10.203,41.056,-0.719,7.046,-10.354,-5.865,123.167,41.056
5.32,0.096,7.951,-9.532,41.056,-0.335,7.568,9.963,41.056,-0.575,7.19,-10.21,-11.73,129.032,41.056
5.325,0.096,8.095,-9.197,35.191,-0.24,7.76,9.628,35.191,-0.431,7.478,-9.922,-17.595,134.897,35.191
5.33,0.192,8.191,-8.766,29.326,-0.335,7.856,9.293,35.191,-0.575,7.478,-9.635,-23.46,140.762,35.191
5.335,0.144,8.287,-8.287,29.326,-0.24,7.999,8.814,29.326,-0.431,7.621,-9.203,-29.326,146.628,29.326
5.34,0.0,8.287,-7.664,29.326,-0.096,8.095,8.191,29.326,-0.288,7.909,-8.628,-35.191,152.493,29.326
5.345,-0.048,8.143,-6.898,23.46,-0.048,8.143,7.52,29.326,-0.144,8.053,-8.053,-35.191,158.358,23.46
5.3500000000000005,-0.048,7.904,-5.988,17.595,0.048,8.095,6.658,23.46,-0.144,8.197,-7.334,-41.056,164.223,23.46
5.355,-0.24,7.712,-4.982,11.73,0.383,8.047,5.604,17.595,0.431,8.484,-6.327,-41.056,164.223,17.595
5.36,-0.383,7.329,-3.832,11.73,0.719,7.856,4.455,17.595,1.007,8.484,-5.321,-41.056,170.088,17.595
5.365,-0.623,7.089,-2.682,17.595,1.102,7.76,3.305,17.595,1.582,8.628,-4.026,-35.191,170.088,17.595
5.37,-0.671,6.85,-1.533,23.46,1.293,7.616,2.108,23.46,2.013,8.772,-2.876,-29.326,164.223,17.595
5.375,-0.671,6.85,-0.479,35.191,1.437,7.712,1.054,35.191,2.301,8.916,-1.726,-17.595,158.358,23.46
5.38,-0.623,7.041,0.383,41.056,1.485,7.904,0.096,41.056,2.588,9.059,-0.719,0.0,152.493,35.191
5.385,-0.383,7.472,1.054,52.786,1.341,8.191,-0.623,52.786,2.588,9.347,0.144,5.865,146.628,46.921
5.39,-0.048,8.095,1.485,58.651,1.054,8.622,-1.15,58.651,2.301,9.635,0.719,29.326,134.897,52.786
5.3950000000000005,0.24,8.862,1.724,64.516,0.719,9.101,-1.485,64.516,2.013,9.778,1.15,41.056,123.167,58.651
5.4,0.575,9.58,1.868,64.516,0.527,9.58,-1.629,64.516,1.869,10.066,1.438,52.786,111.437,64.516
5.405,0.814,10.203,1.82,58.651,0.287,9.963,-1.629,64.516,1.582,10.066,1.582,64.516,99.707,58.651
5.41,1.15,10.825,1.724,58.651,0.048,10.299,-1.533,58.651,1.582,10.066,1.438,64.516,87.977,58.651
5.415,1.437,11.257,1.677,46.921,-0.144,10.586,-1.533,52.786,1.438,10.066,1.438,64.516,76.246,52.786
5.42,1.485,11.448,1.629,41.056,-0.192,10.682,-1.485,41.056,1.438,10.066,1.438,58.651,58.651,41.056
5.425,1.533,11.592,1.581,29.326,-0.192,10.73,-1.437,29.326,1.438,9.922,1.294,52.786,46.921,35.191
5.43,1.629,11.64,1.629,23.46,-0.144,10.778,-1.485,23.46,1.582,9.922,1.294,41.056,29.326,23.46
5.4350000000000005,1.629,11.544,1.677,11.73,-0.144,10.73,-1.533,11.73,1.582,9.922,1.438,29.326,5.865,17.595
5.44,1.581,11.4,1.772,5.865,-0.096,10.634,-1.581,5.865,1.582,9.778,1.438,5.865,-11.73,5.865
5.445,1.437,11.113,1.677,-5.865,-0.048,10.49,-1.533,0.0,1.726,9.778,1.438,0.0,-29.326,0.0
5.45,1.293,10.921,1.533,-11.73,0.048,10.346,-1.389,-11.73,1.582,9.778,1.294,-11.73,-46.921,-5.865
5.455,1.198,10.825,1.341,-17.595,0.048,10.203,-1.198,-17.595,1.582,9.635,1.15,-23.46,-64.516,-17.595
5.46,1.15,10.49,1.102,-29.326,0.096,9.963,-0.91,-29.326,1.726,9.491,0.863,-35.191,-82.111,-23.46
5.465,0.814,10.203,0.719,-35.191,0.287,9.724,-0.575,-35.191,1.726,9.203,0.575,-41.056,-99.707,-35.191
5.47,0.575,9.963,0.24,-41.056,0.527,9.58,-0.048,-41.056,1.869,9.203,0.144,-52.786,-117.302,-41.056
5.4750000000000005,0.479,9.58,-0.287,-46.921,0.479,9.341,0.479,-52.786,1.726,9.203,-0.575,-58.651,-129.032,-46.921
5.48,0.144,9.197,-0.814,-52.786,0.623,9.149,1.054,-52.786,1.726,9.059,-1.007,-64.516,-140.762,-52.786
5.485,-0.335,8.574,-1.485,-52.786,0.862,8.862,1.677,-52.786,1.726,9.203,-1.726,-70.381,-158.358,-52.786
5.49,-0.719,7.904,-2.251,-52.786,0.958,8.478,2.443,-52.786,1.582,9.203,-2.445,-70.381,-164.223,-52.786
5.495,-0.862,7.377,-3.018,-46.921,0.91,8.191,3.209,-52.786,1.294,9.203,-3.164,-70.381,-170.088,-52.786
5.5,-0.91,6.993,-3.832,-41.056,0.814,7.904,4.024,-46.921,1.007,9.203,-3.883,-58.651,-170.088,-52.786
5.505,-1.054,6.706,-4.742,-41.056,0.719,7.76,4.886,-41.056,0.575,9.203,-4.745,-46.921,-170.088,-46.921
5.51,-1.102,6.514,-5.652,-35.191,0.671,7.568,5.796,-35.191,0.288,9.059,-5.608,-35.191,-164.223,-41.056
5.515,-1.006,6.514,-6.562,-29.326,0.527,7.472,6.706,-35.191,0.0,8.916,-6.471,-17.595,-158.358,-35.191
5.5200000000000005,-0.719,6.658,-7.425,-17.595,0.335,7.377,7.568,-23.46,-0.144,8.628,-7.334,-5.865,-146.628,-23.46
5.525,-0.623,6.898,-8.287,-11.73,0.192,7.425,8.43,-17.595,-0.288,8.34,-8.197,5.865,-134.897,-23.46
5.53,-0.479,7.233,-9.101,-5.865,0.048,7.568,9.245,-11.73,-0.288,8.197,-9.059,29.326,-129.032,-11.73
5.535,-0.192,7.472,-9.82,-5.865,-0.144,7.616,10.011,-5.865,-0.575,8.053,-9.778,35.191,-117.302,-11.73
5.54,0.0,7.712,-10.442,-5.865,-0.335,7.616,10.634,-5.865,-0.719,7.765,-10.497,41.056,-105.572,-5.865
5.545,0.048,7.76,-11.113,-0.0,-0.383,7.52,11.257,0.0,-0.863,7.478,-11.073,41.056,-99.707,0.0
5.55,0.048,7.808,-11.64,-0.0,-0.479,7.568,11.879,0.0,-0.863,7.334,-11.792,41.056,-87.977,0.0
5.555,0.287,7.76,-11.927,-0.0,-0.766,7.52,12.215,0.0,-1.15,7.19,-12.223,35.191,-82.111,0.0
5.5600000000000005,0.383,7.712,-12.071,-0.0,-0.958,7.472,12.358,0.0,-1.438,7.19,-12.367,29.326,-70.381,0.0
5.565,0.192,7.568,-12.215,-0.0,-0.862,7.472,12.502,-5.865,-1.582,7.334,-12.511,23.46,-58.651,0.0
5.57,0.096,7.425,-12.262,-5.865,-0.719,7.425,12.598,-5.865,-1.438,7.334,-12.654,17.595,-46.921,-5.865
5.575,0.096,7.377,-12.215,-5.865,-0.671,7.281,12.55,-5.865,-1.294,7.334,-12.654,5.865,-35.191,-5.865
5.58,0.048,7.616,-12.215,-5.865,-0.287,7.52,12.55,-5.865,-1.15,7.19,-12.511,5.865,-23.46,-5.865
5.585,-0.144,7.472,-11.64,-5.865,-0.431,7.089,12.071,-5.865,-0.719,7.046,-12.223,5.865,-11.73,-5.865
5.59,-0.287,6.993,-11.831,-0.0,0.0,7.281,12.119,0.0,-0.575,6.902,-11.935,5.865,0.0,-5.865
5.595,-0.144,6.898,-11.592,-0.0,-0.479,6.85,11.879,0.0,-0.719,6.902,-11.935,0.0,5.865,0.0
5.6000000000000005,-0.096,6.85,-11.257,-0.0,-0.527,6.61,11.688,0.0,-1.007,6.902,-11.935,0.0,17.595,0.0
5.605,-0.287,6.85,-11.64,5.865,-0.287,6.658,11.831,5.865,-0.863,6.759,-11.792,0.0,29.326,0.0
5.61,-0.048,6.706,-11.4,5.865,-0.287,6.61,11.783,11.73,-0.719,6.615,-11.935,-5.865,41.056,5.865
5.615,-0.096,6.802,-11.209,11.73,-0.24,6.802,11.592,11.73,-0.863,6.471,-11.792,-5.865,52.786,11.73
5.62,-0.24,6.946,-10.825,11.73,-0.287,6.706,11.257,11.73,-0.719,6.615,-11.504,-11.73,58.651,11.73
5.625,-0.144,6.802,-10.49,17.595,-0.192,6.85,10.921,17.595,-0.719,6.902,-11.216,-17.595,70.381,11.73
5.63,-0.192,6.946,-10.251,17.595,-0.192,6.946,10.634,17.595,-0.719,6.902,-10.785,-17.595,82.111,17.595
5.635,-0.096,7.137,-9.915,17.595,-0.24,7.089,10.394,17.595,-0.719,7.046,-10.641,-17.595,87.977,17.595
5.64,0.096,7.281,-9.436,17.595,-0.24,7.185,9.915,17.595,-0.575,7.19,-10.21,-17.595,99.707,17.595
5.6450000000000005,0.048,7.185,-8.814,17.595,-0.144,7.137,9.341,17.595,-0.288,7.19,-9.778,-23.46,105.572,17.595
5.65,-0.096,6.946,-7.999,17.595,0.096,7.089,8.574,23.46,0.0,7.19,-9.059,-23.46,111.437,17.595
5.655,-0.287,6.754,-7.089,17.595,0.335,7.041,7.664,23.46,0.288,7.334,-8.197,-23.46,117.302,17.595
5.66,-0.479,6.61,-6.131,23.46,0.575,7.041,6.706,23.46,0.719,7.478,-7.334,-23.46,117.302,23.46
5.665,-0.527,6.562,-5.221,23.46,0.766,7.041,5.748,23.46,1.007,7.765,-6.327,-17.595,117.302,23.46
5.67,-0.575,6.61,-4.359,29.326,0.91,7.137,4.886,29.326,1.294,7.909,-5.464,-11.73,123.167,23.46
5.675,-0.431,6.706,-3.593,29.326,0.91,7.233,4.072,29.326,1.438,8.053,-4.602,-5.865,117.302,29.326
5.68,-0.287,6.946,-2.97,35.191,0.862,7.377,3.449,35.191,1.582,8.053,-3.883,5.865,117.302,35.191
5.6850000000000005,-0.192,7.233,-2.539,41.056,0.862,7.52,2.874,41.056,1.582,8.197,-3.307,5.865,111.437,35.191
5.69,-0.048,7.616,-2.06,41.056,0.814,7.76,2.443,46.921,1.726,8.197,-2.732,23.46,105.572,41.056
5.695,0.096,8.047,-1.724,46.921,0.719,8.047,2.06,46.921,1.726,8.34,-2.445,29.326,99.707,46.921
5.7,0.335,8.478,-1.485,46.921,0.527,8.335,1.772,46.921,1.726,8.484,-2.013,29.326,93.842,46.921
5.705,0.479,8.957,-1.293,46.921,0.431,8.67,1.581,46.921,1.582,8.628,-1.869,35.191,82.111,46.921
5.71,0.671,9.388,-1.198,46.921,0.287,9.053,1.437,46.921,1.438,8.772,-1.582,35.191,70.381,46.921
5.715,0.862,9.724,-1.15,41.056,0.144,9.293,1.341,41.056,1.438,8.916,-1.582,29.326,58.651,41.056
5.72,0.958,9.963,-1.054,35.191,0.048,9.484,1.245,35.191,1.294,9.059,-1.438,29.326,46.921,35.191
5.7250000000000005,1.006,10.107,-1.054,29.326,0.0,9.628,1.245,29.326,1.294,9.203,-1.294,23.46,35.191,35.191
5.73,1.006,10.155,-1.102,23.46,0.0,9.676,1.293,23.46,1.294,9.203,-1.438,5.865,23.46,29.326
5.735,1.006,10.107,-1.15,11.73,0.0,9.628,1.293,17.595,1.15,9.203,-1.438,5.865,11.73,17.595
5.74,0.862,9.963,-1.245,5.865,0.048,9.532,1.389,5.865,1.15,9.203,-1.438,0.0,0.0,11.73
5.745,0.719,9.676,-1.341,-0.0,0.144,9.341,1.533,0.0,1.294,9.059,-1.582,-11.73,-11.73,5.865
5.75,0.671,9.293,-1.533,-5.865,0.144,9.101,1.677,-5.865,1.15,8.916,-1.726,-17.595,-23.46,0.0
5.755,0.575,9.053,-1.724,-11.73,0.144,8.862,1.916,-11.73,1.15,8.916,-1.869,-23.46,-35.191,-11.73
5.76,0.431,8.862,-2.012,-17.595,0.192,8.718,2.156,-17.595,1.007,8.772,-2.157,-29.326,-46.921,-17.595
5.765,0.335,8.574,-2.347,-17.595,0.335,8.574,2.491,-17.595,1.15,8.628,-2.445,-29.326,-52.786,-17.595
5.7700000000000005,0.192,8.287,-2.682,-17.595,0.383,8.383,2.826,-23.46,1.15,8.484,-2.876,-35.191,-58.651,-17.595
5.775,0.096,7.951,-3.018,-23.46,0.335,8.143,3.209,-23.46,1.007,8.484,-3.164,-35.191,-64.516,-23.46
5.78,0.0,7.616,-3.449,-17.595,0.335,7.951,3.593,-23.46,0.863,8.34,-3.595,-35.191,-70.381,-23.46
5.785,-0.144,7.329,-3.976,-17.595,0.335,7.76,4.119,-17.595,0.719,8.484,-4.026,-29.326,-76.246,-23.46
5.79,-0.24,7.041,-4.551,-17.595,0.383,7.568,4.646,-17.595,0.719,8.34,-4.458,-29.326,-76.246,-23.46
5.795,-0.287,6.898,-5.125,-17.595,0.335,7.377,5.269,-17.595,0.575,8.197,-5.033,-23.46,-76.246,-17.595
5.8,-0.24,6.802,-5.7,-11.73,0.287,7.281,5.844,-17.595,0.431,8.053,-5.608,-17.595,-76.246,-17.595
5.805,-0.192,6.802,-6.371,-11.73,0.192,7.185,6.514,-11.73,0.288,7.909,-6.327,-5.865,-76.246,-17.595
5.8100000000000005,-0.192,6.754,-7.089,-5.865,0.144,7.137,7.185,-11.73,0.288,7.765,-6.902,0.0,-70.381,-11.73
5.815,-0.144,6.802,-7.76,-5.865,0.048,7.089,7.904,-5.865,0.0,7.621,-7.621,5.865,-70.381,-5.865
5.82,-0.096,6.946,-8.43,-0.0,-0.048,7.089,8.574,0.0,-0.144,7.478,-8.34,5.865,-64.516,-5.865
5.825,-0.096,7.041,-9.101,-0.0,-0.144,7.137,9.245,0.0,-0.288,7.478,-9.059,17.595,-58.651,0.0
5.83,-0.096,7.041,-9.724,-0.0,-0.192,7.089,9.915,0.0,-0.431,7.334,-9.635,17.595,-58.651,0.0
5.835,-0.048,6.993,-10.251,5.865,-0.287,6.898,10.442,5.865,-0.575,7.046,-10.21,17.595,-52.786,0.0
5.84,0.048,6.946,-10.634,5.865,-0.431,6.802,10.825,5.865,-0.863,6.759,-10.785,17.595,-41.056,5.865
5.845,0.0,6.946,-10.921,5.865,-0.527,6.802,11.161,5.865,-1.007,6.759,-11.073,5.865,-35.191,5.865
5.8500000000000005,-0.048,6.993,-11.017,11.73,-0.527,6.85,11.304,11.73,-1.15,6.759,-11.36,5.865,-23.46,5.865
5.855,-0.096,7.377,-11.065,11.73,-0.335,7.185,11.4,11.73,-1.15,6.759,-11.36,5.865,-11.73,11.73
5.86,0.144,7.137,-10.634,11.73,-0.91,6.85,10.873,11.73,-0.863,7.19,-11.216,5.865,0.0,11.73
5.865,-0.24,7.281,-10.73,17.595,-0.096,7.472,11.161,17.595,-1.007,7.334,-11.073,0.0,5.865,11.73
5.87,0.096,7.329,-10.49,11.73,-0.575,7.281,10.825,17.595,-0.863,7.478,-10.929,0.0,17.595,17.595
5.875,0.192,7.377,-10.251,11.73,-0.479,7.329,10.586,17.595,-1.007,7.334,-10.785,0.0,29.326,11.73
5.88,-0.096,7.425,-10.203,11.73,-0.287,7.377,10.538,11.73,-0.719,7.334,-10.641,0.0,41.056,11.73
5.885,-0.048,7.425,-10.059,11.73,-0.192,7.377,10.442,11.73,-0.575,7.334,-10.641,-5.865,46.921,11.73
5.89,0.144,7.568,-9.628,11.73,-0.287,7.377,10.059,11.73,-0.431,7.334,-10.354,-5.865,58.651,11.73
5.8950000000000005,0.144,7.616,-9.245,11.73,-0.287,7.377,9.628,11.73,-0.575,7.19,-9.922,-5.865,64.516,11.73
5.9,-0.096,7.568,-8.814,11.73,-0.048,7.377,9.245,11.73,-0.288,7.19,-9.491,-11.73,70.381,11.73
5.905,-0.24,7.425,-8.239,11.73,0.192,7.425,8.718,11.73,0.0,7.334,-9.059,-17.595,76.246,11.73
5.91,-0.192,7.329,-7.329,11.73,0.287,7.329,7.856,11.73,0.288,7.478,-8.34,-17.595,82.111,11.73
5.915,-0.335,7.089,-6.419,11.73,0.431,7.329,6.946,11.73,0.575,7.478,-7.478,-17.595,82.111,11.73
5.92,-0.623,6.993,-5.509,11.73,0.671,7.377,6.035,11.73,0.863,7.765,-6.615,-17.595,82.111,11.73
5.925,-0.862,6.993,-4.407,11.73,1.006,7.568,4.982,17.595,1.15,8.197,-5.608,-17.595,82.111,11.73
5.93,-0.862,7.089,-3.161,17.595,1.102,7.712,3.736,17.595,1.438,8.628,-4.458,-11.73,87.977,17.595
5.9350000000000005,-0.958,7.233,-1.916,23.46,1.293,7.951,2.443,17.595,1.726,8.916,-3.164,-5.865,82.111,17.595
5.94,-1.006,7.425,-0.814,23.46,1.533,8.191,1.293,23.46,2.013,9.203,-1.869,5.865,82.111,23.46
5.945,-1.006,7.856,0.144,29.326,1.724,8.478,0.287,29.326,2.445,9.491,-0.863,23.46,82.111,23.46
5.95,-0.814,8.287,0.766,35.191,1.677,8.862,-0.431,29.326,2.732,9.778,0.144,35.191,76.246,29.326
5.955,-0.527,8.909,1.198,35.191,1.485,9.245,-0.91,35.191,2.732,9.922,0.575,46.921,64.516,29.326
5.96,-0.192,9.58,1.389,41.056,1.293,9.676,-1.15,41.056,2.588,10.066,1.007,58.651,58.651,35.191
5.965,0.096,10.155,1.341,41.056,1.054,10.011,-1.198,41.056,2.445,10.21,1.15,64.516,46.921,35.191
5.97,0.431,10.682,1.245,35.191,0.766,10.346,-1.102,35.191,2.301,10.21,1.007,70.381,35.191,35.191
5.9750000000000005,0.671,11.113,1.006,29.326,0.575,10.49,-0.91,29.326,2.157,10.066,0.863,70.381,17.595,29.326
5.98,0.814,11.4,0.719,23.46,0.527,10.634,-0.623,23.46,2.157,9.922,0.575,64.516,5.865,23.46
5.985,0.91,11.544,0.335,11.73,0.431,10.634,-0.287,11.73,2.013,9.778,0.288,52.786,-11.73,17.595
5.99,0.91,11.592,0.0,-0.0,0.383,10.538,0.096,5.865,2.013,9.491,-0.144,46.921,-29.326,5.865
5.995,0.91,11.544,-0.287,-5.865,0.431,10.49,0.431,-5.865,2.013,9.347,-0.431,29.326,-46.921,0.0
6.0,0.719,11.209,-0.623,-11.73,0.527,10.251,0.719,-11.73,2.157,9.059,-0.719,5.865,-58.651,-11.73
6.005,0.383,10.825,-0.91,-23.46,0.623,10.011,1.054,-23.46,2.013,9.059,-1.15,-5.865,-76.246,-17.595
6.01,0.096,10.442,-1.245,-29.326,0.719,9.724,1.389,-29.326,1.869,8.916,-1.438,-23.46,-93.842,-23.46
6.015000000000001,0.0,10.059,-1.629,-35.191,0.814,9.436,1.82,-35.191,1.869,8.772,-1.869,-41.056,-105.572,-35.191
6.0200000000000005,-0.192,9.676,-2.06,-41.056,0.91,9.197,2.251,-46.921,1.869,8.628,-2.301,-52.786,-111.437,-41.056
6.025,-0.431,9.197,-2.443,-52.786,1.006,8.957,2.682,-52.786,1.726,8.628,-2.732,-64.516,-123.167,-46.921
6.03,-0.766,8.622,-2.922,-52.786,1.15,8.766,3.161,-58.651,1.726,8.772,-3.164,-70.381,-129.032,-52.786
6.035,-1.006,8.095,-3.353,-52.786,1.245,8.526,3.64,-58.651,1.582,8.916,-3.739,-76.246,-134.897,-58.651
6.04,-1.245,7.616,-3.88,-52.786,1.341,8.287,4.072,-58.651,1.582,9.059,-4.17,-76.246,-140.762,-58.651
6.045,-1.485,7.041,-4.503,-52.786,1.485,7.999,4.694,-58.651,1.582,9.059,-4.602,-70.381,-140.762,-58.651
6.05,-1.724,6.467,-5.365,-46.921,1.581,7.664,5.509,-52.786,1.582,9.059,-5.321,-64.516,-140.762,-58.651
6.055,-1.916,6.035,-6.275,-46.921,1.629,7.329,6.467,-46.921,1.582,8.916,-6.183,-46.921,-140.762,-52.786
6.0600000000000005,-1.868,5.796,-7.233,-35.191,1.485,7.089,7.377,-41.056,1.294,8.772,-7.046,-29.326,-134.897,-46.921
6.065,-1.772,5.748,-8.191,-29.326,1.341,6.946,8.287,-35.191,1.007,8.484,-7.909,-11.73,-129.032,-41.056
6.07,-1.629,5.892,-9.149,-23.46,1.15,6.85,9.293,-29.326,0.719,8.34,-8.916,5.865,-117.302,-29.326
6.075,-1.437,6.131,-10.059,-17.595,0.91,6.85,10.203,-23.46,0.431,8.053,-9.778,23.46,-105.572,-23.46
6.08,-1.245,6.419,-10.969,-11.73,0.719,6.85,11.113,-17.595,0.288,7.765,-10.785,41.056,-93.842,-17.595
6.085,-1.006,6.658,-11.688,-5.865,0.527,6.85,11.879,-11.73,0.0,7.334,-11.648,52.786,-82.111,-11.73
6.09,-0.766,6.802,-12.31,-5.865,0.24,6.802,12.502,-5.865,-0.288,6.902,-12.367,58.651,-70.381,-5.865
6.095,-0.719,6.946,-12.694,-0.0,0.144,6.754,12.933,0.0,-0.431,6.615,-12.798,58.651,-58.651,-5.865
6.1000000000000005,-0.719,6.898,-12.981,-0.0,0.096,6.61,13.268,0.0,-0.575,6.327,-13.23,58.651,-46.921,0.0
6.105,-0.527,6.754,-13.077,5.865,-0.048,6.467,13.412,5.865,-0.719,6.183,-13.373,52.786,-35.191,0.0
6.11,-0.479,6.706,-13.029,5.865,-0.096,6.323,13.364,5.865,-0.863,5.896,-13.373,46.921,-23.46,5.865
6.115,-0.383,6.61,-12.837,11.73,-0.144,6.227,13.22,11.73,-0.719,5.752,-13.373,41.056,-11.73,5.865
6.12,-0.479,6.562,-12.55,11.73,-0.048,6.131,12.933,11.73,-0.719,5.608,-13.086,35.191,0.0,11.73
6.125,-0.766,6.514,-12.119,11.73,-0.479,5.796,12.406,11.73,0.0,6.615,-13.086,23.46,11.73,11.73
