time_aligned_sec,L_Acc_X_aligned,L_Acc_Y_aligned,L_Acc_Z_aligned,L_Gyro_Z_aligned,R_Acc_X_aligned,R_Acc_Y_aligned,R_Acc_Z_aligned,R_Gyro_Z_aligned,T_Acc_X_aligned,T_Acc_Y_aligned,T_Acc_Z_aligned,T_Gyro_X_aligned,T_Gyro_Y_aligned,T_Gyro_Z_aligned
0.0,1.677,9.963,-2.299,-11.73,-0.719,10.538,3.018,-5.865,1.869,10.354,2.876,-5.865,23.46,5.865
0.005,1.629,9.915,-2.156,-11.73,-0.719,10.442,2.874,-5.865,2.013,10.354,3.02,-5.865,29.326,5.865
0.01,1.533,9.867,-2.012,-11.73,-0.719,10.299,2.73,-11.73,2.013,10.497,3.02,0.0,35.191,5.865
0.015,1.533,9.82,-1.916,-11.73,-0.671,10.203,2.587,-11.73,2.013,10.497,2.876,0.0,35.191,5.865
0.02,1.485,9.772,-1.868,-17.595,-0.671,10.107,2.587,-11.73,1.869,10.497,2.732,0.0,41.056,5.865
0.025,1.485,9.724,-1.868,-17.595,-0.671,10.011,2.539,-11.73,1.726,10.497,2.588,0.0,41.056,11.73
0.03,1.485,9.676,-1.82,-11.73,-0.671,9.915,2.491,-11.73,1.726,10.497,2.445,5.865,46.921,11.73
0.035,1.437,9.676,-1.677,-11.73,-0.671,9.867,2.395,-11.73,1.582,10.497,2.301,5.865,46.921,11.73
0.04,1.389,9.724,-1.533,-11.73,-0.623,9.82,2.251,-11.73,1.582,10.354,2.157,5.865,46.921,17.595
0.045,1.293,9.772,-1.389,-11.73,-0.527,9.867,2.06,-11.73,1.438,10.354,2.157,5.865,52.786,17.595
0.05,1.245,9.724,-1.198,-11.73,-0.479,9.963,1.916,-11.73,1.438,10.354,2.157,5.865,52.786,17.595
0.055,1.15,9.676,-1.102,-11.73,-0.431,9.915,1.772,-11.73,1.438,10.354,2.013,5.865,52.786,17.595
0.06,1.102,9.676,-0.958,-11.73,-0.383,9.915,1.629,-11.73,1.438,10.497,2.013,0.0,52.786,17.595
0.065,1.054,9.628,-0.766,-11.73,-0.335,9.963,1.437,-11.73,1.294,10.497,1.726,0.0,52.786,11.73
0.07,0.958,9.628,-0.479,-11.73,-0.24,10.107,1.15,-5.865,1.294,10.497,1.582,-5.865,52.786,11.73
0.075,0.814,9.676,-0.24,-5.865,-0.144,10.251,0.91,-5.865,1.15,10.497,1.438,-5.865,52.786,11.73
0.08,0.671,9.772,0.096,-5.865,-0.048,10.299,0.575,-11.73,1.15,10.354,1.294,-5.865,52.786,11.73
0.085,0.623,9.772,0.335,-11.73,0.0,10.203,0.335,-11.73,1.007,10.354,1.15,-11.73,52.786,11.73
0.09,0.575,9.724,0.623,-11.73,0.0,10.107,0.048,-11.73,1.007,10.21,1.007,-11.73,52.786,11.73
0.095,0.527,9.676,0.814,-11.73,0.0,10.011,-0.144,-11.73,0.863,10.066,0.719,-11.73,52.786,11.73
0.1,0.527,9.532,1.006,-11.73,-0.048,9.867,-0.335,-11.73,0.719,10.066,0.431,-17.595,52.786,11.73
0.105,0.479,9.436,1.102,-11.73,-0.048,9.724,-0.431,-11.73,0.575,10.21,0.144,-11.73,52.786,11.73
0.11,0.479,9.388,1.15,-11.73,0.0,9.628,-0.527,-11.73,0.288,10.354,-0.144,-11.73,52.786,11.73
0.115,0.479,9.341,1.245,-11.73,0.0,9.58,-0.575,-11.73,0.288,10.354,-0.431,-11.73,52.786,11.73
0.12,0.479,9.293,1.341,-11.73,0.0,9.58,-0.671,-11.73,0.144,10.21,-0.719,-11.73,46.921,11.73
0.125,0.527,9.245,1.341,-11.73,0.0,9.628,-0.671,-11.73,0.144,10.21,-0.863,-11.73,46.921,11.73
0.13,0.527,9.245,1.389,-11.73,0.0,9.676,-0.719,-11.73,0.144,10.066,-0.863,-11.73,41.056,17.595
0.135,0.575,9.197,1.389,-11.73,-0.048,9.676,-0.719,-11.73,0.144,10.066,-1.007,-11.73,41.056,11.73
0.14,0.671,9.149,1.389,-5.865,-0.096,9.676,-0.719,-5.865,0.144,9.922,-1.15,-11.73,35.191,11.73
0.145,0.719,9.101,1.389,-5.865,-0.192,9.676,-0.719,-5.865,0.144,9.922,-1.15,-11.73,35.191,11.73
0.15,0.766,9.101,1.389,-5.865,-0.24,9.628,-0.719,-5.865,0.144,9.778,-1.15,-17.595,29.326,11.73
0.155,0.862,9.053,1.389,-5.865,-0.287,9.58,-0.719,-5.865,0.144,9.778,-1.294,-17.595,29.326,11.73
0.16,0.91,8.909,1.389,-5.865,-0.383,9.388,-0.719,-5.865,0.288,9.635,-1.294,-17.595,23.46,11.73
0.165,1.006,8.766,1.245,-5.865,-0.431,9.149,-0.575,-5.865,0.431,9.635,-1.294,-17.595,23.46,11.73
0.17,1.054,8.67,1.198,-5.865,-0.575,9.053,-0.527,-5.865,0.431,9.491,-1.294,-11.73,17.595,11.73
0.17500000000000002,1.102,8.574,1.054,-5.865,-0.575,8.909,-0.383,-5.865,0.575,9.491,-1.294,-11.73,17.595,5.865
0.18,1.102,8.622,0.958,-5.865,-0.575,8.862,-0.24,-5.865,0.719,9.491,-1.294,-11.73,11.73,11.73
0.185,1.102,8.718,0.814,-0.0,-0.575,8.957,-0.144,0.0,0.719,9.347,-1.294,-5.865,11.73,5.865
0.19,1.15,8.766,0.671,-0.0,-0.575,8.957,0.0,0.0,0.863,9.203,-1.15,-5.865,11.73,5.865
0.195,1.15,8.862,0.623,-0.0,-0.671,9.197,0.096,0.0,0.863,9.203,-1.007,-5.865,5.865,5.865
0.2,1.15,8.909,0.479,5.865,-0.479,9.245,0.192,5.865,0.863,9.059,-0.863,-5.865,5.865,5.865
0.20500000000000002,1.006,8.909,0.192,-0.0,-0.383,9.197,0.479,0.0,0.863,9.203,-0.863,-5.865,0.0,5.865
0.21,1.006,8.909,0.0,-0.0,-0.335,9.341,0.719,5.865,0.863,9.347,-0.719,-5.865,0.0,5.865
0.215,1.102,8.909,-0.287,5.865,-0.335,9.293,0.958,5.865,1.007,9.491,-0.431,-5.865,0.0,0.0
0.22,1.198,9.053,-0.527,5.865,-0.383,9.388,1.198,5.865,0.863,9.347,-0.431,-11.73,-5.865,0.0
0.225,0.958,8.862,-0.719,11.73,-0.096,9.149,1.389,11.73,1.15,9.491,-0.288,-11.73,-5.865,0.0
0.23,1.102,9.005,-0.91,11.73,-0.287,9.532,1.533,11.73,1.007,9.491,-0.0,-11.73,-5.865,0.0
0.23500000000000001,1.198,9.388,-0.958,11.73,-0.287,10.059,1.629,11.73,0.863,9.347,0.288,-11.73,-5.865,0.0
0.24,1.102,9.628,-1.102,5.865,-0.144,10.203,1.772,11.73,1.15,9.347,0.431,-11.73,-5.865,0.0
0.245,1.054,9.676,-1.293,5.865,-0.24,10.203,1.964,5.865,1.294,9.491,0.719,-11.73,-5.865,0.0
0.25,1.102,9.532,-1.245,5.865,-0.144,10.011,1.964,5.865,1.007,9.491,0.863,-11.73,-5.865,-5.865
0.255,1.245,9.484,-1.293,5.865,-0.431,9.963,1.964,5.865,1.15,9.491,1.007,-11.73,-5.865,-11.73
0.26,1.293,9.436,-1.245,5.865,-0.431,9.915,1.964,5.865,1.294,9.778,1.15,-11.73,-5.865,-11.73
0.265,1.245,9.436,-1.102,-0.0,-0.431,9.82,1.772,5.865,1.294,10.066,1.294,-11.73,0.0,-5.865
0.27,1.198,9.436,-0.862,-0.0,-0.383,9.676,1.629,0.0,1.007,10.066,1.438,-5.865,0.0,-5.865
0.275,1.245,9.58,-0.431,-5.865,-0.527,9.82,1.15,-5.865,1.294,10.066,1.438,-5.865,0.0,-5.865
0.28,1.102,9.628,-0.287,-11.73,-0.335,9.963,0.958,-5.865,1.294,9.922,1.582,-5.865,5.865,-5.865
0.28500000000000003,1.102,9.293,-0.719,-11.73,-0.479,10.059,1.389,-11.73,1.294,9.922,1.438,-5.865,5.865,0.0
0.29,1.102,9.005,-1.102,-5.865,-0.527,10.059,1.772,-5.865,1.294,10.066,1.294,0.0,5.865,0.0
0.295,1.437,8.862,-1.198,-0.0,-0.479,9.293,1.916,0.0,1.15,10.21,1.15,-5.865,5.865,0.0
0.3,1.581,8.862,-1.15,5.865,-0.719,9.005,1.868,5.865,1.15,10.354,0.575,-5.865,11.73,5.865
0.305,1.677,8.718,-1.102,11.73,-0.958,8.718,1.82,5.865,1.007,10.21,0.575,-5.865,11.73,11.73
0.31,1.724,8.766,-0.958,5.865,-0.958,8.718,1.629,5.865,0.863,9.491,1.007,-5.865,11.73,11.73
0.315,1.533,8.862,-0.719,5.865,-0.862,8.909,1.437,5.865,0.863,9.059,1.294,-5.865,5.865,5.865
0.32,1.102,8.957,-0.479,11.73,-0.335,9.245,1.198,11.73,1.582,9.347,1.438,0.0,5.865,5.865
0.325,1.006,9.101,-0.335,17.595,-0.192,9.628,1.006,17.595,1.726,9.635,1.438,5.865,5.865,0.0
0.33,1.102,9.245,-0.383,11.73,-0.335,9.867,1.102,17.595,1.582,9.635,1.294,0.0,11.73,-5.865
0.335,1.15,9.484,-0.479,11.73,-0.335,10.011,1.15,11.73,1.726,9.778,1.15,0.0,11.73,-5.865
0.34,1.198,9.676,-0.527,5.865,-0.24,10.155,1.245,11.73,1.582,9.635,0.863,-5.865,11.73,-5.865
0.34500000000000003,1.198,9.628,-0.671,5.865,-0.335,10.059,1.341,5.865,1.007,9.491,0.719,-11.73,11.73,-11.73
0.35000000000000003,1.245,9.484,-0.623,5.865,-0.335,10.155,1.341,5.865,1.007,9.491,0.575,-11.73,11.73,-11.73
0.355,1.198,9.388,-0.671,5.865,-0.287,10.155,1.341,5.865,1.15,9.635,0.575,-11.73,11.73,-11.73
0.36,1.15,9.388,-0.623,5.865,-0.287,10.107,1.293,5.865,1.15,9.922,0.719,-11.73,11.73,-11.73
0.365,1.198,9.388,-0.431,5.865,-0.287,9.963,1.15,5.865,1.294,10.21,0.863,-5.865,11.73,-5.865
0.37,1.102,9.388,-0.287,5.865,-0.287,9.772,0.958,5.865,1.294,10.066,0.863,-5.865,17.595,-5.865
0.375,1.102,9.341,-0.144,5.865,-0.335,9.724,0.814,5.865,1.294,9.778,0.863,-5.865,17.595,-5.865
0.38,1.054,9.341,0.048,5.865,-0.335,9.772,0.719,5.865,1.294,9.635,0.863,-5.865,17.595,-5.865
0.385,1.006,9.341,0.192,5.865,-0.287,9.82,0.527,5.865,1.294,9.635,0.863,0.0,17.595,-5.865
0.39,1.006,9.388,0.192,-0.0,-0.287,9.867,0.479,5.865,1.15,9.922,0.575,5.865,23.46,0.0
0.395,1.054,9.388,0.192,-0.0,-0.335,9.772,0.527,0.0,1.15,9.922,0.431,5.865,23.46,-5.865
0.4,1.102,9.436,0.144,-0.0,-0.383,9.82,0.527,0.0,1.007,9.922,0.288,5.865,23.46,0.0
0.405,1.102,9.388,0.048,-0.0,-0.383,9.772,0.623,0.0,0.863,9.778,0.144,5.865,23.46,0.0
0.41000000000000003,1.245,9.341,-0.048,-0.0,-0.575,9.676,0.719,0.0,0.863,9.778,-0.0,5.865,23.46,0.0
0.41500000000000004,1.293,9.388,-0.048,-0.0,-0.575,9.772,0.766,0.0,0.863,9.922,-0.0,5.865,23.46,0.0
0.42,1.293,9.484,-0.096,-5.865,-0.575,9.82,0.766,0.0,0.863,9.922,-0.0,5.865,23.46,0.0
0.425,1.293,9.532,-0.144,-5.865,-0.575,9.963,0.814,0.0,1.007,9.922,-0.0,5.865,23.46,0.0
0.43,1.245,9.58,-0.192,-0.0,-0.479,10.011,0.862,0.0,1.007,9.922,0.144,5.865,23.46,0.0
0.435,1.245,9.58,-0.192,-0.0,-0.479,9.82,0.862,5.865,1.15,9.922,0.288,5.865,23.46,0.0
0.44,1.15,9.676,-0.096,5.865,-0.383,10.251,0.766,11.73,1.294,9.922,0.288,5.865,23.46,5.865
0.445,1.102,9.628,-0.096,11.73,-0.287,10.011,0.766,11.73,1.294,10.066,0.288,5.865,23.46,5.865
0.45,1.198,9.388,-0.144,11.73,-0.575,9.532,0.814,11.73,1.15,10.066,0.288,5.865,23.46,5.865
0.455,1.198,9.484,0.144,11.73,-0.479,9.772,0.575,11.73,1.15,10.066,0.431,5.865,23.46,5.865
0.46,1.15,9.388,0.048,11.73,-0.527,9.58,0.671,11.73,1.294,10.21,0.431,5.865,23.46,0.0
0.465,1.102,9.436,0.096,5.865,-0.431,9.772,0.575,5.865,1.15,10.066,0.288,5.865,23.46,-5.865
0.47000000000000003,1.006,9.484,0.096,5.865,-0.287,9.772,0.575,5.865,1.15,10.21,0.288,5.865,23.46,-11.73
0.47500000000000003,1.006,9.484,0.096,5.865,-0.287,9.772,0.623,11.73,1.007,10.21,0.288,5.865,23.46,-11.73
0.48,0.958,9.484,0.096,5.865,-0.24,9.82,0.623,11.73,1.15,10.21,0.144,5.865,23.46,-11.73
0.485,0.958,9.341,0.096,11.73,-0.24,9.676,0.623,11.73,1.007,10.21,0.144,5.865,23.46,-5.865
0.49,0.958,9.341,0.048,11.73,-0.287,9.772,0.671,11.73,1.007,10.066,0.144,0.0,17.595,-5.865
0.495,0.958,9.341,0.0,11.73,-0.24,9.724,0.671,11.73,0.863,10.21,0.144,0.0,17.595,-5.865
0.5,0.862,9.245,0.0,5.865,-0.144,9.293,0.719,5.865,0.863,10.066,0.144,0.0,17.595,-5.865
0.505,1.102,9.388,0.0,5.865,-0.479,9.82,0.719,5.865,0.863,10.066,0.144,0.0,17.595,-5.865
0.51,0.766,9.58,0.0,5.865,0.096,10.251,0.719,11.73,0.863,9.922,0.144,-5.865,17.595,-11.73
0.515,0.719,9.867,0.144,5.865,0.335,10.299,0.623,11.73,0.863,9.922,0.144,-5.865,17.595,-11.73
0.52,0.671,10.059,0.096,5.865,0.0,10.346,0.575,5.865,0.863,9.922,0.144,-5.865,17.595,-5.865
0.525,0.479,9.676,-0.144,11.73,0.383,10.155,0.862,11.73,0.863,10.066,0.288,-5.865,17.595,-5.865
0.53,0.575,9.484,0.096,11.73,0.383,9.915,0.623,17.595,0.863,9.778,0.144,-5.865,17.595,-5.865
0.535,0.814,9.484,0.096,17.595,-0.192,10.011,0.575,17.595,0.863,9.922,0.288,-5.865,17.595,-5.865
0.54,0.671,9.436,0.24,11.73,0.192,9.867,0.479,11.73,0.863,10.354,0.144,-5.865,17.595,-5.865
0.545,0.719,9.532,0.287,11.73,0.0,9.82,0.431,11.73,0.431,10.497,0.144,-5.865,17.595,-5.865
0.55,0.719,9.628,0.335,5.865,0.0,9.963,0.335,5.865,0.431,10.066,0.431,-5.865,17.595,-5.865
0.555,0.527,9.724,0.287,5.865,0.24,10.059,0.383,5.865,0.575,10.066,0.144,-5.865,17.595,-11.73
0.56,0.431,9.58,0.24,5.865,0.192,10.107,0.479,5.865,0.575,9.922,0.144,0.0,17.595,-17.595
0.5650000000000001,0.575,9.628,0.335,11.73,0.287,10.059,0.383,11.73,0.719,10.066,-0.0,0.0,17.595,-11.73
0.5700000000000001,0.719,9.772,0.335,11.73,-0.048,10.203,0.383,11.73,0.575,10.21,-0.144,0.0,17.595,-5.865
0.5750000000000001,0.623,9.676,0.192,11.73,0.144,10.059,0.479,11.73,0.575,10.21,-0.144,0.0,17.595,-5.865
0.58,0.671,9.628,0.144,5.865,0.144,10.011,0.527,5.865,0.431,10.21,-0.144,0.0,17.595,0.0
0.585,0.766,9.628,0.048,5.865,0.048,10.059,0.623,5.865,0.144,9.922,-0.144,0.0,17.595,-5.865
0.59,0.766,9.676,0.048,5.865,0.048,10.251,0.671,5.865,0.575,10.066,-0.144,0.0,17.595,-5.865
0.595,0.766,9.772,-0.048,5.865,0.144,10.346,0.719,5.865,0.575,10.21,-0.144,0.0,17.595,-11.73
0.6,0.719,9.82,-0.096,-0.0,0.144,10.346,0.766,5.865,0.575,10.21,-0.0,0.0,17.595,-5.865
0.605,0.671,9.82,-0.096,-0.0,0.24,10.251,0.766,5.865,0.575,10.21,0.144,0.0,17.595,-5.865
0.61,0.575,9.772,-0.048,-0.0,0.24,10.203,0.719,5.865,0.719,10.066,0.144,0.0,17.595,-5.865
0.615,0.575,9.82,0.144,5.865,0.24,10.203,0.575,5.865,0.719,10.066,0.144,0.0,17.595,-5.865
0.62,0.479,9.772,0.287,5.865,0.287,10.107,0.383,5.865,0.719,10.21,0.288,0.0,17.595,-5.865
0.625,0.479,9.724,0.431,5.865,0.24,10.059,0.287,5.865,0.719,10.354,0.288,5.865,17.595,0.0
0.63,0.527,9.724,0.527,5.865,0.096,10.059,0.192,5.865,0.719,10.354,0.288,5.865,17.595,0.0
0.635,0.479,9.676,0.623,5.865,0.192,10.011,0.096,5.865,0.575,10.21,0.288,5.865,23.46,0.0
0.64,0.479,9.628,0.623,5.865,0.192,9.867,0.048,5.865,0.575,10.354,0.144,5.865,23.46,0.0
0.645,0.527,9.532,0.623,-0.0,0.144,9.772,0.048,5.865,0.288,10.354,-0.144,5.865,23.46,0.0
0.65,0.527,9.436,0.719,5.865,0.096,9.676,-0.048,5.865,0.288,10.354,-0.288,5.865,23.46,-5.865
0.655,0.479,9.388,0.766,5.865,0.144,9.676,-0.048,5.865,0.288,10.354,-0.431,5.865,17.595,0.0
0.66,0.527,9.388,0.671,5.865,0.096,9.628,0.0,5.865,0.144,10.21,-0.431,5.865,17.595,0.0
0.665,0.575,9.436,0.623,5.865,0.096,9.676,0.048,5.865,0.288,10.21,-0.431,5.865,17.595,0.0
0.67,0.623,9.436,0.623,5.865,0.048,9.676,0.096,5.865,0.288,10.21,-0.431,0.0,17.595,0.0
0.675,0.623,9.484,0.623,5.865,0.048,9.867,0.048,11.73,0.288,10.066,-0.575,0.0,11.73,0.0
0.68,0.575,9.58,0.671,5.865,0.096,9.963,0.0,5.865,0.288,10.066,-0.575,0.0,11.73,-5.865
0.685,0.575,9.628,0.719,5.865,0.144,10.059,0.0,5.865,0.288,10.066,-0.575,0.0,11.73,-5.865
0.6900000000000001,0.575,9.676,0.766,5.865,0.192,10.155,-0.096,5.865,0.288,10.066,-0.431,-5.865,5.865,-5.865
0.6950000000000001,0.527,9.772,0.766,5.865,0.192,10.346,-0.096,5.865,0.431,10.066,-0.431,-5.865,5.865,-5.865
0.7000000000000001,0.527,9.772,0.719,5.865,0.24,10.346,-0.048,5.865,0.431,10.066,-0.431,-5.865,5.865,-5.865
0.705,0.575,9.82,0.671,5.865,0.24,10.299,0.0,5.865,0.431,10.066,-0.575,-5.865,5.865,-5.865
0.71,0.527,9.772,0.623,-0.0,0.24,10.203,0.048,5.865,0.288,10.066,-0.575,-5.865,0.0,-5.865
0.715,0.527,9.724,0.623,-0.0,0.24,10.203,0.096,5.865,0.288,10.21,-0.575,-5.865,0.0,-5.865
0.72,0.575,9.676,0.623,-0.0,0.192,10.155,0.048,0.0,0.288,10.066,-0.575,-5.865,0.0,-5.865
0.725,0.623,9.676,0.575,-0.0,0.096,10.107,0.096,0.0,0.431,10.21,-0.575,-5.865,0.0,-5.865
0.73,0.623,9.676,0.575,-0.0,0.048,10.059,0.096,0.0,0.575,10.354,-0.575,-5.865,0.0,0.0
0.735,0.623,9.724,0.479,-0.0,0.048,10.059,0.192,0.0,0.431,10.21,-0.431,-5.865,0.0,0.0
0.74,0.671,9.772,0.383,-0.0,-0.048,10.107,0.287,0.0,0.431,10.21,-0.431,0.0,0.0,0.0
0.745,0.719,9.82,0.287,-0.0,-0.144,10.107,0.383,0.0,0.431,10.21,-0.431,0.0,0.0,0.0
0.75,0.766,9.82,0.096,-0.0,-0.144,10.059,0.575,0.0,0.431,10.21,-0.431,0.0,0.0,0.0
0.755,0.862,9.867,-0.096,5.865,-0.287,10.011,0.766,5.865,0.431,10.21,-0.431,0.0,0.0,0.0
0.76,1.006,9.867,-0.287,-0.0,-0.335,9.963,0.958,0.0,0.431,10.354,-0.288,0.0,-5.865,0.0
0.765,1.054,9.867,-0.527,-0.0,-0.383,10.011,1.198,5.865,0.431,10.354,-0.288,0.0,-5.865,0.0
0.77,1.102,9.915,-0.766,5.865,-0.431,10.107,1.437,5.865,0.575,10.354,-0.144,0.0,-5.865,0.0
0.775,1.198,9.915,-1.102,5.865,-0.431,10.155,1.772,5.865,0.575,10.497,0.144,0.0,-11.73,0.0
0.78,1.341,9.867,-1.485,5.865,-0.479,10.203,2.156,5.865,0.575,10.641,0.288,-5.865,-11.73,0.0
0.785,1.437,9.915,-1.916,5.865,-0.479,10.299,2.587,5.865,0.863,10.641,0.431,-5.865,-11.73,0.0
0.79,1.581,10.011,-2.347,5.865,-0.527,10.442,3.018,5.865,0.863,10.641,0.719,-5.865,-11.73,0.0
0.795,1.724,10.011,-2.73,5.865,-0.527,10.49,3.401,5.865,1.007,10.641,1.007,-11.73,-11.73,0.0
0.8,1.868,9.963,-3.209,5.865,-0.527,10.586,3.88,5.865,1.15,10.641,1.294,-17.595,-17.595,0.0
0.805,1.964,9.915,-3.64,5.865,-0.527,10.682,4.311,0.0,1.294,10.497,1.726,-17.595,-17.595,0.0
0.81,2.108,9.724,-4.024,-0.0,-0.527,10.49,4.742,0.0,1.582,10.497,2.157,-17.595,-17.595,-5.865
0.8150000000000001,2.251,9.484,-4.311,-5.865,-0.575,10.346,5.03,0.0,1.869,10.497,2.588,-17.595,-11.73,-5.865
0.8200000000000001,2.347,9.149,-4.407,-5.865,-0.527,10.155,5.173,0.0,2.013,10.497,3.02,-17.595,-11.73,-5.865
0.8250000000000001,2.395,8.862,-4.359,-5.865,-0.623,9.867,5.125,-5.865,2.301,10.497,3.451,-17.595,-5.865,0.0
0.8300000000000001,2.299,8.622,-4.119,-5.865,-0.671,9.436,4.838,-5.865,2.445,10.21,3.883,-17.595,0.0,0.0
0.835,2.203,8.622,-3.545,-5.865,-0.671,9.197,4.311,-5.865,2.876,10.066,4.314,-11.73,5.865,0.0
0.84,1.964,8.718,-2.874,-5.865,-0.575,9.149,3.593,0.0,3.02,9.778,4.745,-11.73,17.595,5.865
0.845,1.581,8.862,-1.916,-0.0,-0.431,9.245,2.635,0.0,3.307,9.347,4.745,-5.865,29.326,5.865
0.85,1.293,9.053,-0.719,-0.0,-0.335,9.436,1.437,0.0,3.307,9.059,4.745,0.0,41.056,5.865
0.855,0.958,9.053,0.527,-0.0,-0.192,9.436,0.192,5.865,3.164,8.916,4.458,5.865,52.786,5.865
0.86,0.623,9.053,1.677,5.865,-0.096,9.436,-1.006,5.865,3.02,9.059,3.883,5.865,64.516,5.865
0.865,0.335,9.101,2.73,-0.0,0.048,9.341,-2.06,5.865,2.588,9.203,3.164,5.865,76.246,5.865
0.87,-0.096,9.197,3.688,5.865,0.335,9.341,-3.066,5.865,1.869,9.347,2.157,5.865,82.111,0.0
0.875,-0.527,9.388,4.646,-0.0,0.479,9.388,-4.024,5.865,1.438,9.635,1.007,5.865,87.977,0.0
0.88,-0.958,9.724,5.7,-0.0,0.862,9.772,-5.077,5.865,0.863,9.635,-0.288,5.865,93.842,0.0
0.885,-1.341,10.059,6.802,-0.0,1.198,10.155,-6.179,0.0,0.431,9.635,-1.438,5.865,93.842,0.0
0.89,-1.677,10.107,7.472,-0.0,1.437,10.203,-6.898,0.0,0.0,9.635,-2.588,5.865,93.842,0.0
0.895,-1.964,10.107,7.904,-0.0,1.629,10.155,-7.377,0.0,-0.719,9.922,-3.595,5.865,87.977,0.0
0.9,-2.156,10.107,8.143,-5.865,1.724,10.107,-7.616,0.0,-1.438,10.21,-4.602,5.865,82.111,0.0
0.905,-2.156,10.107,8.239,-5.865,1.772,10.203,-7.664,0.0,-1.869,10.354,-5.608,5.865,76.246,0.0
0.91,-2.06,10.107,7.951,-5.865,1.772,10.299,-7.425,-5.865,-2.301,10.641,-6.759,5.865,64.516,0.0
0.915,-1.868,10.155,7.472,-5.865,1.724,10.442,-6.993,-5.865,-2.876,10.785,-7.478,0.0,58.651,0.0
0.92,-1.581,10.107,6.706,-11.73,1.533,10.538,-6.227,-5.865,-3.164,10.785,-7.909,0.0,46.921,0.0
0.925,-1.245,9.963,5.7,-11.73,1.437,10.442,-5.221,-11.73,-3.451,10.785,-8.197,-5.865,29.326,5.865
0.93,-0.766,9.724,4.551,-11.73,1.15,10.251,-4.024,-11.73,-3.451,10.785,-8.34,-5.865,17.595,5.865
0.935,-0.24,9.532,3.257,-11.73,0.862,10.107,-2.682,-11.73,-3.307,10.641,-7.909,-5.865,0.0,11.73
0.9400000000000001,0.24,9.436,1.916,-11.73,0.575,10.011,-1.389,-11.73,-3.02,10.641,-7.478,-11.73,-11.73,11.73
0.9450000000000001,0.671,9.388,0.671,-11.73,0.383,10.059,-0.096,-11.73,-2.588,10.497,-6.759,-11.73,-23.46,11.73
0.9500000000000001,1.054,9.293,-0.623,-11.73,0.144,10.011,1.245,-11.73,-2.013,10.354,-5.608,-11.73,-35.191,11.73
0.9550000000000001,1.341,9.293,-1.82,-11.73,-0.048,10.059,2.443,-11.73,-1.438,10.066,-4.458,-11.73,-46.921,11.73
0.96,1.629,9.293,-3.018,-11.73,-0.24,10.107,3.64,-11.73,-0.575,9.922,-3.164,-5.865,-52.786,17.595
0.965,1.916,9.293,-4.024,-11.73,-0.431,10.107,4.694,-11.73,0.144,9.778,-1.726,-5.865,-58.651,11.73
0.97,2.395,9.245,-4.886,-11.73,-0.766,9.963,5.556,-11.73,0.719,9.635,-0.431,-5.865,-58.651,11.73
0.975,2.73,9.149,-5.509,-11.73,-1.054,9.724,6.227,-5.865,1.294,9.635,0.863,0.0,-52.786,11.73
0.98,3.066,8.957,-5.94,-5.865,-1.389,9.436,6.706,-5.865,1.726,9.635,2.157,5.865,-52.786,11.73
0.985,3.257,8.862,-6.083,-0.0,-1.629,9.197,6.85,0.0,2.157,9.491,3.307,5.865,-46.921,11.73
0.99,3.209,8.909,-5.988,-0.0,-1.677,9.197,6.754,0.0,2.588,9.491,4.314,5.865,-41.056,11.73
0.995,3.066,9.101,-5.604,5.865,-1.629,9.341,6.371,5.865,3.164,9.635,5.177,17.595,-29.326,11.73
1.0,2.922,9.436,-4.982,5.865,-1.581,9.58,5.7,5.865,3.595,9.635,5.896,17.595,-23.46,11.73
1.0050000000000001,2.778,9.676,-4.215,11.73,-1.533,9.82,4.934,11.73,4.026,9.635,6.327,23.46,-5.865,5.865
1.01,2.491,9.867,-3.449,11.73,-1.437,9.963,4.167,17.595,4.17,9.635,6.471,23.46,0.0,5.865
1.0150000000000001,2.108,9.915,-2.73,11.73,-1.245,9.963,3.449,17.595,4.026,9.635,6.327,23.46,17.595,0.0
1.02,1.677,10.107,-1.868,17.595,-0.91,10.203,2.587,17.595,3.739,9.922,5.896,17.595,23.46,0.0
1.025,1.389,10.299,-0.91,17.595,-0.623,10.442,1.581,17.595,3.595,10.21,5.321,17.595,35.191,-5.865
1.03,0.958,10.586,0.0,17.595,-0.335,10.682,0.671,17.595,3.164,10.497,4.602,5.865,41.056,-11.73
1.035,0.623,10.73,0.862,17.595,0.048,10.825,-0.192,17.595,2.732,10.785,3.739,5.865,46.921,-11.73
1.04,0.24,10.969,1.724,17.595,0.24,11.257,-1.054,17.595,2.301,10.785,3.02,5.865,52.786,-11.73
1.045,-0.192,11.257,2.395,11.73,0.719,11.64,-1.772,17.595,1.582,10.929,2.157,0.0,58.651,-17.595
1.05,-0.575,11.544,3.018,11.73,1.006,11.927,-2.395,11.73,1.294,11.073,1.15,0.0,58.651,-17.595
1.055,-0.814,11.831,3.545,5.865,1.245,12.215,-2.922,11.73,0.719,11.36,0.144,-5.865,58.651,-17.595
1.06,-1.054,11.927,3.88,5.865,1.485,12.358,-3.305,5.865,0.288,11.504,-0.719,-11.73,58.651,-17.595
1.065,-1.198,11.975,4.024,-0.0,1.581,12.454,-3.449,0.0,-0.144,11.648,-1.582,-11.73,58.651,-11.73
1.07,-1.293,12.023,4.167,-5.865,1.677,12.454,-3.593,0.0,-0.719,11.792,-2.301,-17.595,52.786,-11.73
1.075,-1.293,12.071,4.263,-5.865,1.724,12.406,-3.688,-5.865,-1.15,12.079,-2.876,-17.595,46.921,-5.865
1.08,-1.293,11.975,4.215,-11.73,1.629,12.215,-3.64,-11.73,-1.438,12.223,-3.451,-17.595,41.056,-5.865
1.085,-1.293,11.831,4.119,-11.73,1.677,11.975,-3.545,-11.73,-1.726,12.367,-3.883,-17.595,41.056,-5.865
1.09,-1.198,11.688,3.928,-17.595,1.485,11.783,-3.353,-17.595,-1.869,12.367,-4.026,-11.73,35.191,0.0
1.095,-1.054,11.544,3.688,-23.46,1.437,11.688,-3.114,-23.46,-2.013,12.511,-4.17,-11.73,29.326,5.865
1.1,-0.958,11.496,3.401,-23.46,1.389,11.688,-2.826,-23.46,-2.013,12.654,-4.17,-11.73,23.46,11.73
1.105,-0.766,11.352,2.922,-29.326,1.245,11.688,-2.347,-29.326,-2.013,12.654,-4.17,-11.73,11.73,11.73
1.11,-0.575,11.113,2.395,-29.326,1.198,11.64,-1.82,-29.326,-2.013,12.511,-4.026,-11.73,5.865,17.595
1.115,-0.287,10.921,1.82,-29.326,1.006,11.592,-1.245,-29.326,-2.013,12.511,-3.883,-17.595,0.0,23.46
1.12,0.144,10.73,1.341,-29.326,0.719,11.4,-0.719,-29.326,-1.726,12.223,-3.595,-17.595,-11.73,23.46
1.125,0.431,10.442,0.766,-29.326,0.479,11.065,-0.144,-35.191,-1.582,12.079,-3.307,-23.46,-17.595,29.326
1.1300000000000001,0.766,10.155,0.335,-35.191,0.144,10.73,0.335,-35.191,-1.438,11.935,-2.876,-23.46,-23.46,29.326
1.135,1.054,9.82,-0.144,-35.191,-0.096,10.394,0.814,-35.191,-1.007,11.504,-2.301,-23.46,-29.326,29.326
1.1400000000000001,1.389,9.436,-0.575,-35.191,-0.383,10.011,1.245,-35.191,-0.575,11.216,-1.726,-23.46,-29.326,29.326
1.145,1.772,9.005,-1.006,-35.191,-0.766,9.532,1.677,-35.191,-0.144,11.073,-1.15,-23.46,-35.191,35.191
1.1500000000000001,2.108,8.622,-1.341,-35.191,-1.054,9.005,2.012,-35.191,0.288,10.785,-0.575,-17.595,-35.191,35.191
1.155,2.299,8.287,-1.629,-29.326,-1.245,8.526,2.347,-35.191,0.719,10.497,-0.144,-17.595,-35.191,35.191
1.16,2.491,8.047,-1.82,-29.326,-1.485,8.335,2.539,-29.326,1.15,10.21,0.431,-17.595,-35.191,35.191
1.165,2.587,7.951,-1.868,-23.46,-1.581,8.239,2.587,-29.326,1.582,9.922,0.863,-11.73,-29.326,35.191
1.17,2.635,7.904,-1.868,-23.46,-1.677,8.287,2.587,-23.46,2.013,9.491,1.294,-11.73,-29.326,35.191
1.175,2.539,7.951,-1.772,-17.595,-1.677,8.43,2.443,-17.595,2.445,9.203,1.582,-11.73,-23.46,35.191
1.18,2.491,8.047,-1.485,-17.595,-1.629,8.526,2.203,-17.595,2.588,8.916,1.869,-11.73,-23.46,35.191
1.185,2.539,7.999,-1.293,-11.73,-1.677,8.43,2.012,-17.595,2.876,8.772,2.157,-11.73,-17.595,29.326
1.19,2.587,7.856,-1.198,-11.73,-1.772,8.143,1.916,-11.73,3.02,8.628,2.157,-17.595,-11.73,29.326
1.195,2.635,7.664,-1.006,-11.73,-1.868,7.951,1.724,-11.73,3.02,8.484,2.157,-17.595,-11.73,23.46
1.2,2.587,7.472,-0.862,-11.73,-1.868,7.808,1.533,-11.73,2.876,8.484,2.013,-17.595,-5.865,23.46
1.205,2.443,7.425,-0.671,-11.73,-1.772,7.76,1.341,-11.73,2.732,8.484,1.726,-17.595,0.0,17.595
1.21,2.347,7.472,-0.431,-11.73,-1.677,7.808,1.15,-11.73,2.732,8.628,1.582,-11.73,0.0,17.595
1.215,2.347,7.52,-0.24,-5.865,-1.629,7.904,0.958,-5.865,2.732,8.484,1.438,-11.73,0.0,17.595
1.22,2.299,7.568,-0.144,-5.865,-1.581,7.999,0.862,-5.865,2.876,8.34,1.294,-17.595,5.865,17.595
1.225,2.251,7.664,-0.096,-5.865,-1.389,8.143,0.814,-5.865,2.732,8.053,1.007,-17.595,5.865,11.73
1.23,2.108,7.712,0.048,-5.865,-1.341,8.287,0.671,-5.865,2.588,8.053,0.863,-17.595,11.73,11.73
1.235,2.012,7.712,0.24,-5.865,-1.198,8.287,0.479,-5.865,2.445,8.053,0.719,-17.595,11.73,11.73
1.24,1.964,7.808,0.383,-5.865,-1.198,8.335,0.287,-5.865,2.445,8.053,0.431,-17.595,11.73,11.73
1.245,1.82,7.904,0.527,-0.0,-1.054,8.43,0.192,0.0,2.445,8.053,0.431,-17.595,11.73,5.865
1.25,1.724,8.095,0.671,-0.0,-0.91,8.622,0.048,0.0,2.445,8.197,0.288,-17.595,17.595,5.865
1.2550000000000001,1.581,8.335,0.766,-0.0,-0.862,8.909,-0.096,0.0,2.301,8.053,0.144,-17.595,17.595,5.865
1.26,1.485,8.478,0.958,-0.0,-0.766,9.101,-0.24,0.0,2.157,8.197,-0.0,-11.73,17.595,5.865
1.2650000000000001,1.389,8.622,1.102,-5.865,-0.719,9.197,-0.431,0.0,2.013,8.197,-0.288,-11.73,23.46,5.865
1.27,1.341,8.718,1.293,-0.0,-0.671,9.245,-0.623,0.0,2.013,8.34,-0.288,-11.73,23.46,0.0
1.2750000000000001,1.293,8.814,1.437,-0.0,-0.719,9.245,-0.766,0.0,1.869,8.484,-0.431,-5.865,23.46,5.865
1.28,1.245,8.862,1.533,-5.865,-0.671,9.197,-0.91,-5.865,1.582,8.628,-0.575,-5.865,23.46,0.0
1.285,1.198,8.862,1.581,-5.865,-0.719,9.149,-0.91,0.0,1.438,8.772,-0.863,-5.865,29.326,5.865
1.29,1.245,8.909,1.581,-5.865,-0.719,9.149,-0.91,-5.865,1.438,8.916,-1.007,0.0,29.326,5.865
1.295,1.293,8.909,1.533,-5.865,-0.766,9.101,-0.862,-5.865,1.294,9.203,-1.15,0.0,29.326,5.865
1.3,1.293,8.909,1.533,-5.865,-0.719,9.101,-0.814,-5.865,1.15,9.347,-1.294,5.865,29.326,5.865
1.305,1.245,8.957,1.581,-5.865,-0.623,9.245,-0.91,-5.865,1.007,9.491,-1.438,5.865,23.46,5.865
1.31,1.198,9.101,1.677,-5.865,-0.575,9.388,-1.006,-5.865,1.007,9.491,-1.438,5.865,23.46,5.865
1.315,1.15,9.149,1.772,-5.865,-0.527,9.484,-1.102,-5.865,1.007,9.635,-1.438,0.0,23.46,5.865
1.32,1.102,9.149,1.82,-5.865,-0.431,9.58,-1.15,-5.865,1.15,9.635,-1.438,0.0,17.595,5.865
1.325,1.102,9.149,1.772,-11.73,-0.383,9.628,-1.102,-11.73,1.15,9.635,-1.294,0.0,17.595,5.865
1.33,1.102,9.197,1.772,-11.73,-0.431,9.628,-1.102,-11.73,1.15,9.635,-1.438,-5.865,17.595,5.865
1.335,1.15,9.341,1.82,-11.73,-0.431,9.628,-1.15,-11.73,1.007,9.778,-1.582,-5.865,11.73,11.73
1.34,1.054,9.532,1.868,-11.73,-0.383,9.724,-1.198,-11.73,1.007,9.778,-1.582,-5.865,11.73,11.73
1.345,0.958,9.628,1.82,-17.595,-0.287,9.963,-1.198,-17.595,1.007,9.635,-1.726,-5.865,11.73,11.73
1.35,1.006,9.676,1.629,-17.595,-0.287,10.059,-0.958,-17.595,1.007,9.635,-1.582,-5.865,5.865,11.73
1.355,1.102,9.532,1.437,-23.46,-0.383,9.963,-0.766,-23.46,1.007,9.778,-1.582,-5.865,5.865,11.73
1.36,1.245,9.245,1.198,-23.46,-0.479,9.676,-0.575,-23.46,1.007,10.066,-1.726,-5.865,5.865,11.73
1.365,1.437,8.957,1.102,-23.46,-0.671,9.388,-0.431,-23.46,0.863,10.21,-1.726,-5.865,5.865,11.73
1.37,1.485,8.766,1.102,-23.46,-0.814,9.197,-0.383,-29.326,0.719,10.21,-1.726,-5.865,5.865,17.595
1.375,1.533,8.718,1.006,-23.46,-0.91,9.053,-0.335,-23.46,0.863,10.21,-1.438,-5.865,5.865,23.46
1.3800000000000001,1.677,8.766,0.958,-23.46,-1.006,9.005,-0.287,-23.46,1.007,10.066,-1.294,-5.865,5.865,23.46
1.385,1.82,8.766,1.006,-23.46,-1.198,9.053,-0.335,-23.46,1.15,9.778,-1.007,-5.865,5.865,23.46
1.3900000000000001,1.772,8.622,1.006,-17.595,-1.198,9.101,-0.335,-17.595,1.438,9.491,-1.007,-5.865,0.0,29.326
1.395,1.724,8.574,1.006,-17.595,-1.102,9.149,-0.335,-17.595,1.438,9.347,-1.007,-5.865,0.0,29.326
1.4000000000000001,1.677,8.718,1.006,-17.595,-1.102,9.149,-0.335,-17.595,1.438,9.203,-0.863,-5.865,0.0,29.326
1.405,1.677,8.957,1.054,-17.595,-1.006,9.293,-0.335,-17.595,1.582,9.347,-0.863,-5.865,0.0,23.46
1.41,1.772,9.149,1.006,-11.73,-1.006,9.388,-0.335,-11.73,1.726,9.347,-0.863,-5.865,0.0,23.46
1.415,1.868,9.341,0.958,-11.73,-1.15,9.532,-0.287,-11.73,1.726,9.059,-0.863,-5.865,0.0,23.46
1.42,1.868,9.484,0.958,-11.73,-1.102,9.724,-0.287,-11.73,1.582,9.059,-0.863,-5.865,0.0,17.595
1.425,1.82,9.628,0.91,-11.73,-0.958,10.011,-0.24,-11.73,1.582,9.203,-0.863,-5.865,0.0,17.595
1.43,1.772,9.532,0.91,-17.595,-0.91,10.107,-0.24,-17.595,1.582,9.491,-0.863,-5.865,0.0,17.595
1.435,1.772,9.245,0.91,-17.595,-0.91,9.915,-0.24,-17.595,1.726,9.778,-0.863,-5.865,0.0,17.595
1.44,1.772,8.814,1.054,-23.46,-1.006,9.628,-0.335,-17.595,1.869,10.066,-0.863,-5.865,0.0,11.73
1.445,1.677,8.239,1.198,-23.46,-1.006,9.149,-0.479,-23.46,1.869,10.21,-0.719,-5.865,0.0,11.73
1.45,1.629,7.712,1.245,-23.46,-1.006,8.622,-0.527,-23.46,1.869,10.21,-0.719,-5.865,0.0,17.595
1.455,1.772,7.185,1.245,-23.46,-1.15,8.047,-0.575,-23.46,1.869,9.922,-0.719,-5.865,0.0,17.595
1.46,1.964,6.562,1.293,-23.46,-1.389,7.329,-0.623,-23.46,1.726,9.635,-0.719,-5.865,0.0,23.46
1.465,2.299,5.748,1.341,-17.595,-1.82,6.562,-0.623,-17.595,1.869,9.059,-0.863,-5.865,0.0,23.46
1.47,2.491,4.742,1.437,-17.595,-2.06,5.604,-0.719,-17.595,1.726,8.484,-1.007,0.0,0.0,23.46
1.475,2.635,3.64,1.389,-11.73,-2.299,4.503,-0.671,-11.73,1.582,7.765,-1.007,5.865,0.0,23.46
1.48,2.778,2.587,1.198,-5.865,-2.491,3.114,-0.479,-5.865,1.726,7.334,-1.15,5.865,0.0,23.46
1.485,3.209,1.964,1.15,-0.0,-2.922,2.06,-0.431,0.0,2.013,6.759,-1.15,17.595,0.0,23.46
1.49,3.545,1.964,0.862,17.595,-3.257,2.156,-0.144,17.595,2.301,5.896,-1.15,23.46,0.0,23.46
1.495,3.688,1.916,0.287,41.056,-3.257,2.156,0.479,35.191,2.588,4.889,-1.294,23.46,0.0,17.595
1.5,3.88,1.82,-0.048,52.786,-3.353,1.82,0.814,52.786,2.732,3.739,-1.15,29.326,0.0,11.73
1.5050000000000001,4.072,1.868,-0.479,70.381,-3.401,2.203,1.198,70.381,2.876,2.876,-1.007,35.191,0.0,11.73
1.51,4.598,1.341,-1.102,82.111,-4.119,1.581,1.82,82.111,3.451,2.445,-1.007,41.056,0.0,0.0
1.5150000000000001,4.838,1.485,-1.485,87.977,-4.024,1.964,2.203,87.977,3.883,2.445,-0.719,41.056,0.0,-17.595
1.52,4.838,2.06,-1.006,87.977,-3.64,2.539,1.772,87.977,4.026,2.445,-0.144,41.056,0.0,-35.191
1.5250000000000001,3.832,2.635,-1.341,93.842,-3.018,3.688,2.108,93.842,4.458,2.588,0.288,41.056,0.0,-52.786
1.53,2.443,20.597,1.629,99.707,-1.629,-4.072,-1.389,99.707,4.745,2.301,0.719,35.191,5.865,-70.381
1.5350000000000001,0.431,6.754,-1.006,-5.865,-5.461,19.639,1.916,0.0,5.177,2.013,1.294,35.191,5.865,-82.111
1.54,-4.934,11.64,-3.209,-23.46,7.808,22.178,3.497,-23.46,5.752,1.869,1.726,35.191,11.73,-82.111
1.545,-0.192,11.831,0.479,11.73,1.772,10.634,0.575,11.73,6.04,2.301,1.294,35.191,17.595,-87.977
1.55,0.383,20.597,7.52,41.056,-0.623,18.633,-6.946,41.056,4.458,2.588,1.582,35.191,29.326,-93.842
1.555,-4.694,23.95,3.066,-82.111,5.556,24.094,-3.784,-64.516,1.294,57.664,0.144,41.056,35.191,-93.842
1.56,-5.796,18.968,1.868,-258.064,9.676,9.82,-1.437,-258.064,-4.026,-4.889,1.869,-99.707,29.326,11.73
1.565,-1.341,11.209,2.203,-240.469,1.724,9.628,-1.724,-246.334,-5.177,3.883,3.451,-17.595,23.46,29.326
1.57,0.766,8.526,2.251,-152.493,-0.766,6.993,-1.724,-158.358,0.288,13.23,-0.0,82.111,41.056,-11.73
1.575,0.671,10.825,1.964,-76.246,-0.719,6.85,-1.389,-82.111,-1.15,22.577,-7.621,99.707,35.191,-41.056
1.58,0.862,12.646,1.485,-17.595,-1.102,8.047,-0.91,-17.595,-5.896,29.048,-2.732,134.897,23.46,82.111
1.585,1.389,12.837,1.006,35.191,-1.581,9.724,-0.479,35.191,-4.745,27.034,-1.438,246.334,17.595,263.93
1.59,2.347,12.262,-0.719,70.381,-2.156,10.203,1.198,64.516,-2.445,12.367,-2.013,193.548,29.326,240.469
1.595,3.497,12.454,-2.491,87.977,-2.635,10.73,3.018,87.977,0.0,9.922,-2.013,152.493,29.326,158.358
1.6,4.407,12.789,-3.305,93.842,-3.401,11.304,3.88,93.842,-0.288,14.092,-1.869,129.032,17.595,82.111
1.605,4.407,12.502,-3.449,93.842,-3.161,11.879,4.024,93.842,-0.288,16.681,-1.438,93.842,5.865,17.595
1.61,3.88,12.023,-3.161,99.707,-2.682,12.071,3.784,99.707,0.288,15.962,-1.007,46.921,-5.865,-35.191
1.615,3.64,11.496,-2.251,99.707,-2.539,12.023,2.922,99.707,1.726,14.811,0.863,5.865,-17.595,-64.516
1.62,3.353,11.4,-1.533,99.707,-2.299,12.167,2.156,99.707,3.451,14.811,2.732,-23.46,-29.326,-82.111
1.625,3.018,11.736,-1.245,93.842,-1.916,12.454,1.82,93.842,4.602,14.955,3.595,-46.921,-29.326,-93.842
1.6300000000000001,2.826,11.975,-1.15,76.246,-1.629,12.789,1.724,76.246,4.745,14.092,3.739,-70.381,-29.326,-93.842
1.635,2.491,11.927,-1.102,64.516,-1.006,13.125,1.724,64.516,4.17,12.942,3.451,-87.977,-29.326,-93.842
1.6400000000000001,2.299,11.592,-0.862,58.651,-0.719,13.125,1.533,58.651,3.883,12.079,2.588,-93.842,-23.46,-99.707
1.645,1.964,11.448,-0.144,52.786,-0.479,13.125,0.862,52.786,3.595,11.935,1.869,-93.842,-23.46,-99.707
1.6500000000000001,1.581,11.352,0.671,41.056,-0.24,12.789,0.048,41.056,3.164,12.223,1.582,-87.977,-17.595,-93.842
1.655,1.245,11.304,1.437,35.191,0.0,12.55,-0.766,41.056,3.02,12.367,1.438,-87.977,-17.595,-76.246
1.6600000000000001,1.006,11.304,2.012,35.191,0.096,12.31,-1.293,35.191,3.02,11.935,1.438,-82.111,-11.73,-64.516
1.665,0.766,11.304,2.395,29.326,0.192,12.215,-1.772,29.326,2.876,11.36,1.294,-76.246,-5.865,-58.651
1.67,0.671,11.4,2.635,29.326,0.192,12.358,-2.012,29.326,2.445,11.073,0.431,-64.516,0.0,-46.921
1.675,0.527,11.592,2.922,17.595,0.287,12.358,-2.299,23.46,2.013,11.073,-0.431,-52.786,11.73,-41.056
1.68,0.383,11.783,3.209,11.73,0.287,12.215,-2.587,11.73,1.438,11.216,-1.15,-41.056,17.595,-35.191
1.685,0.144,11.975,3.401,5.865,0.479,12.31,-2.826,5.865,1.15,11.36,-1.869,-29.326,23.46,-35.191
1.69,-0.048,11.927,3.449,-0.0,0.671,12.598,-2.826,0.0,0.719,11.36,-2.301,-23.46,23.46,-29.326
1.695,-0.144,11.783,3.353,-5.865,0.862,12.646,-2.73,-5.865,0.431,11.504,-2.588,-17.595,23.46,-23.46
1.7,-0.096,11.688,3.209,-11.73,0.814,12.502,-2.635,-5.865,0.288,11.935,-2.732,-11.73,23.46,-17.595
1.705,0.0,11.448,3.066,-11.73,0.766,12.119,-2.443,-11.73,0.0,12.367,-3.164,-5.865,23.46,-11.73
1.71,0.096,11.304,2.826,-11.73,0.671,11.879,-2.203,-11.73,-0.288,12.511,-3.307,-5.865,23.46,-5.865
1.715,0.24,11.257,2.635,-17.595,0.527,11.783,-2.012,-17.595,-0.431,12.223,-3.307,-5.865,23.46,5.865
1.72,0.383,11.113,2.443,-17.595,0.383,11.544,-1.82,-17.595,-0.575,11.935,-3.307,-5.865,17.595,11.73
1.725,0.431,10.873,2.347,-23.46,0.24,11.257,-1.677,-23.46,-0.575,11.935,-3.164,0.0,17.595,11.73
1.73,0.527,10.73,2.251,-23.46,0.048,10.921,-1.629,-17.595,-0.288,11.792,-2.876,5.865,11.73,11.73
1.735,0.719,10.634,2.108,-23.46,-0.192,10.73,-1.437,-23.46,-0.144,11.792,-2.732,5.865,11.73,17.595
1.74,0.814,10.346,1.82,-23.46,-0.383,10.394,-1.198,-23.46,0.0,11.648,-2.588,5.865,5.865,17.595
1.745,1.006,9.915,1.533,-23.46,-0.527,9.867,-0.91,-23.46,0.144,11.504,-2.301,5.865,5.865,23.46
1.75,1.341,9.628,1.198,-23.46,-0.814,9.532,-0.575,-23.46,0.144,11.504,-2.157,5.865,5.865,23.46
1.7550000000000001,1.533,9.484,0.91,-23.46,-0.91,9.388,-0.24,-23.46,0.144,11.504,-2.157,5.865,0.0,23.46
1.76,1.533,9.149,0.671,-17.595,-0.958,9.197,0.0,-17.595,0.288,11.36,-2.013,5.865,0.0,23.46
1.7650000000000001,1.629,9.053,0.527,-17.595,-1.006,9.293,0.192,-17.595,0.431,11.216,-1.726,5.865,-5.865,23.46
1.77,1.724,9.101,0.527,-17.595,-1.006,9.388,0.192,-17.595,0.719,10.785,-1.438,5.865,-5.865,23.46
1.7750000000000001,1.724,9.245,0.479,-11.73,-1.006,9.628,0.192,-11.73,1.15,10.497,-1.007,0.0,-11.73,23.46
1.78,1.772,9.197,0.431,-11.73,-1.006,9.532,0.24,-11.73,1.294,10.354,-0.719,-5.865,-11.73,23.46
1.7850000000000001,1.82,9.053,0.24,-11.73,-1.102,9.484,0.431,-17.595,1.438,9.922,-0.431,-11.73,-17.595,23.46
1.79,1.916,8.814,0.096,-17.595,-1.102,9.293,0.623,-17.595,1.582,9.778,-0.288,-11.73,-17.595,17.595
1.795,2.012,8.574,-0.096,-17.595,-1.15,9.101,0.766,-17.595,1.726,9.778,-0.431,-17.595,-23.46,17.595
1.8,2.156,8.478,-0.144,-11.73,-1.245,9.005,0.814,-11.73,1.726,9.778,-0.288,-17.595,-23.46,17.595
1.805,2.203,8.383,-0.144,-11.73,-1.341,8.909,0.814,-17.595,1.726,9.778,-0.288,-17.595,-23.46,17.595
1.81,2.156,8.191,-0.144,-11.73,-1.245,8.622,0.814,-11.73,1.869,9.635,-0.144,-17.595,-17.595,17.595
1.815,2.203,8.191,-0.144,-11.73,-1.293,8.622,0.814,-11.73,2.013,9.347,0.144,-17.595,-17.595,17.595
1.82,2.299,8.239,-0.048,-5.865,-1.437,8.766,0.766,-5.865,2.157,8.916,0.288,-17.595,-17.595,17.595
1.825,2.251,8.191,-0.048,-5.865,-1.437,8.718,0.766,-5.865,2.301,8.916,0.288,-17.595,-17.595,17.595
1.83,2.156,8.143,-0.048,-5.865,-1.341,8.622,0.719,-5.865,2.445,8.772,0.288,-17.595,-11.73,11.73
1.835,2.251,8.143,0.048,-5.865,-1.485,8.574,0.671,0.0,2.445,8.772,0.431,-11.73,-11.73,11.73
1.84,2.299,8.047,0.096,-5.865,-1.533,8.383,0.623,0.0,2.445,8.628,0.431,-11.73,-11.73,11.73
1.845,2.251,7.951,0.192,-0.0,-1.533,8.239,0.527,0.0,2.445,8.628,0.288,-11.73,-5.865,5.865
1.85,2.251,7.999,0.287,-0.0,-1.533,8.287,0.383,0.0,2.445,8.628,0.288,-11.73,-5.865,5.865
1.855,2.156,8.047,0.383,-0.0,-1.485,8.43,0.287,0.0,2.301,8.628,0.288,-5.865,-5.865,5.865
1.86,2.108,8.143,0.431,-0.0,-1.389,8.574,0.24,0.0,2.445,8.628,0.144,-5.865,0.0,5.865
1.865,2.06,8.287,0.527,5.865,-1.341,8.718,0.144,5.865,2.445,8.628,0.144,-5.865,0.0,5.865
1.87,2.06,8.335,0.623,5.865,-1.293,8.766,0.096,5.865,2.301,8.628,0.144,-5.865,0.0,0.0
1.875,2.012,8.335,0.671,5.865,-1.245,8.814,0.0,5.865,2.301,8.628,-0.144,-5.865,5.865,0.0
1.8800000000000001,1.868,8.43,0.862,5.865,-1.15,8.957,-0.192,5.865,2.301,8.628,-0.144,-5.865,5.865,0.0
1.885,1.868,8.43,1.054,5.865,-1.15,9.005,-0.335,5.865,2.157,8.628,-0.288,-5.865,5.865,0.0
1.8900000000000001,1.772,8.43,1.15,5.865,-1.102,8.909,-0.431,5.865,2.157,8.772,-0.431,-5.865,5.865,0.0
1.895,1.724,8.478,1.15,5.865,-1.054,8.862,-0.479,5.865,2.157,8.772,-0.431,-5.865,5.865,0.0
1.9000000000000001,1.724,8.526,1.15,5.865,-1.054,8.909,-0.479,5.865,2.013,8.772,-0.575,-5.865,11.73,0.0
1.905,1.724,8.526,1.15,5.865,-1.054,8.957,-0.479,5.865,1.869,8.772,-0.719,-5.865,11.73,0.0
1.9100000000000001,1.724,8.622,1.15,5.865,-1.006,9.005,-0.479,5.865,1.869,8.772,-0.863,-5.865,11.73,0.0
1.915,1.724,8.766,1.245,5.865,-1.006,9.101,-0.575,11.73,1.726,8.916,-1.007,0.0,11.73,0.0
1.92,1.677,8.814,1.293,5.865,-1.006,9.197,-0.623,11.73,1.726,9.059,-1.007,0.0,11.73,0.0
1.925,1.581,8.862,1.341,11.73,-0.91,9.245,-0.671,11.73,1.726,9.059,-1.007,0.0,11.73,0.0
1.93,1.533,8.957,1.389,11.73,-0.862,9.341,-0.719,11.73,1.726,9.059,-1.007,0.0,11.73,-5.865
1.935,1.485,9.053,1.389,11.73,-0.814,9.388,-0.766,11.73,1.726,9.059,-1.007,0.0,11.73,-5.865
1.94,1.437,9.149,1.437,11.73,-0.766,9.484,-0.766,11.73,1.726,9.347,-1.007,0.0,11.73,-5.865
1.945,1.389,9.245,1.437,11.73,-0.719,9.58,-0.766,11.73,1.582,9.347,-1.15,0.0,11.73,-5.865
1.95,1.341,9.293,1.437,5.865,-0.671,9.676,-0.766,11.73,1.438,9.491,-1.15,0.0,11.73,-5.865
1.955,1.293,9.341,1.437,11.73,-0.671,9.724,-0.814,11.73,1.438,9.491,-1.294,0.0,11.73,-5.865
1.96,1.245,9.341,1.437,11.73,-0.623,9.628,-0.766,11.73,1.438,9.635,-1.294,0.0,5.865,-5.865
1.965,1.198,9.388,1.389,5.865,-0.527,9.724,-0.766,11.73,1.438,9.778,-1.294,0.0,5.865,-11.73
1.97,1.198,9.484,1.341,5.865,-0.479,9.867,-0.719,11.73,1.294,9.778,-1.294,0.0,5.865,-5.865
1.975,1.102,9.628,1.293,11.73,-0.383,10.059,-0.623,11.73,1.294,9.922,-1.294,0.0,5.865,-5.865
1.98,1.054,9.772,1.245,5.865,-0.335,10.203,-0.575,11.73,1.15,9.922,-1.294,0.0,5.865,-5.865
1.985,1.054,9.82,1.198,5.865,-0.335,10.299,-0.527,11.73,1.15,9.922,-1.294,0.0,5.865,-5.865
1.99,1.054,9.772,1.15,5.865,-0.287,10.299,-0.479,5.865,1.15,9.922,-1.294,0.0,5.865,-5.865
1.995,1.006,9.82,1.102,5.865,-0.287,10.251,-0.479,5.865,1.007,9.922,-1.15,0.0,0.0,-5.865
2.0,1.006,9.867,1.15,5.865,-0.24,10.299,-0.479,5.865,1.007,10.21,-1.15,0.0,0.0,-11.73
2.005,0.958,9.915,1.102,5.865,-0.24,10.346,-0.431,5.865,0.863,10.354,-1.15,0.0,0.0,-5.865
2.0100000000000002,0.958,9.963,1.054,5.865,-0.192,10.442,-0.383,5.865,0.863,10.354,-1.007,0.0,0.0,-5.865
2.015,1.054,10.011,1.054,5.865,-0.24,10.49,-0.383,5.865,0.863,10.354,-1.007,5.865,0.0,-5.865
2.02,1.054,10.011,1.006,-0.0,-0.287,10.442,-0.383,0.0,1.007,10.354,-1.007,5.865,0.0,-5.865
2.025,1.054,9.963,1.054,-0.0,-0.287,10.394,-0.383,0.0,0.863,10.354,-1.007,5.865,0.0,-5.865
2.0300000000000002,1.102,9.963,1.102,-5.865,-0.335,10.346,-0.431,0.0,0.863,10.497,-1.007,5.865,0.0,0.0
2.035,1.102,9.867,1.15,-5.865,-0.383,10.251,-0.479,0.0,0.863,10.497,-0.863,5.865,0.0,0.0
2.04,1.15,9.772,1.198,-5.865,-0.431,10.155,-0.527,0.0,1.007,10.497,-0.863,5.865,0.0,0.0
2.045,1.15,9.676,1.293,-5.865,-0.479,10.059,-0.575,-5.865,1.007,10.497,-0.863,5.865,0.0,0.0
2.05,1.198,9.58,1.293,-5.865,-0.479,9.915,-0.623,0.0,1.007,10.497,-0.863,5.865,0.0,0.0
2.055,1.198,9.58,1.293,-5.865,-0.479,9.867,-0.623,0.0,1.007,10.497,-0.863,5.865,-5.865,5.865
2.06,1.245,9.628,1.245,-5.865,-0.527,9.915,-0.575,-5.865,1.007,10.497,-1.007,5.865,-5.865,5.865
2.065,1.293,9.628,1.293,-0.0,-0.575,9.963,-0.623,0.0,1.007,10.354,-1.007,5.865,-5.865,5.865
2.07,1.341,9.676,1.293,-0.0,-0.575,9.963,-0.623,0.0,1.007,10.21,-1.15,5.865,-5.865,5.865
2.075,1.341,9.676,1.389,-5.865,-0.623,10.059,-0.671,0.0,1.007,10.21,-1.15,5.865,-5.865,5.865
2.08,1.341,9.628,1.437,-5.865,-0.671,10.011,-0.766,0.0,1.15,10.21,-1.15,5.865,-5.865,5.865
2.085,1.389,9.484,1.437,-5.865,-0.719,9.867,-0.766,0.0,1.15,10.21,-1.15,5.865,-5.865,5.865
2.09,1.437,9.436,1.389,-5.865,-0.766,9.724,-0.766,-5.865,1.294,10.21,-1.15,5.865,-5.865,5.865
2.095,1.485,9.341,1.341,-5.865,-0.862,9.676,-0.671,0.0,1.294,10.21,-1.15,5.865,-5.865,5.865
2.1,1.581,9.341,1.245,-5.865,-0.91,9.628,-0.575,-5.865,1.294,10.21,-1.294,5.865,-11.73,5.865
2.105,1.629,9.293,1.15,-5.865,-1.006,9.628,-0.479,0.0,1.15,10.21,-1.294,5.865,-11.73,5.865
2.11,1.724,9.245,1.006,-0.0,-1.054,9.628,-0.335,0.0,1.294,10.066,-1.294,5.865,-11.73,5.865
2.115,1.772,9.197,0.862,-0.0,-1.102,9.532,-0.192,0.0,1.294,10.066,-1.294,5.865,-11.73,5.865
2.12,1.868,9.053,0.623,-0.0,-1.198,9.388,0.048,0.0,1.294,9.922,-1.15,5.865,-11.73,5.865
2.125,1.964,8.957,0.287,-0.0,-1.245,9.341,0.383,0.0,1.438,9.922,-1.15,5.865,-11.73,5.865
2.13,2.108,8.862,-0.096,-0.0,-1.293,9.341,0.766,0.0,1.582,9.922,-1.007,0.0,-11.73,5.865
2.1350000000000002,2.299,8.814,-0.527,-0.0,-1.389,9.341,1.198,0.0,1.582,9.778,-0.863,5.865,-17.595,5.865
2.14,2.443,8.766,-0.91,-0.0,-1.437,9.293,1.581,5.865,1.726,9.778,-0.719,5.865,-17.595,5.865
2.145,2.587,8.862,-1.341,5.865,-1.485,9.436,2.012,5.865,1.869,9.635,-0.431,0.0,-17.595,5.865
2.15,2.73,8.909,-1.724,5.865,-1.581,9.58,2.395,5.865,2.013,9.491,-0.144,0.0,-17.595,5.865
2.1550000000000002,2.874,8.957,-2.06,5.865,-1.629,9.58,2.73,5.865,2.301,9.347,0.288,0.0,-17.595,0.0
2.16,3.018,8.957,-2.347,5.865,-1.677,9.532,3.018,11.73,2.588,9.203,0.719,5.865,-17.595,0.0
2.165,3.066,8.909,-2.491,5.865,-1.724,9.436,3.161,11.73,2.732,9.203,1.15,5.865,-11.73,0.0
2.17,3.066,8.766,-2.491,11.73,-1.677,9.341,3.161,11.73,2.876,9.203,1.582,5.865,-11.73,0.0
2.1750000000000003,2.97,8.67,-2.251,11.73,-1.629,9.293,2.97,11.73,3.164,9.203,2.013,5.865,-5.865,-5.865
2.18,2.682,8.67,-1.916,11.73,-1.437,9.245,2.635,11.73,3.451,9.347,2.301,5.865,0.0,-5.865
2.185,2.443,8.862,-1.341,11.73,-1.245,9.341,2.06,11.73,3.595,9.491,2.588,5.865,5.865,-5.865
2.19,2.156,9.149,-0.623,11.73,-1.15,9.532,1.293,11.73,3.739,9.491,2.732,17.595,17.595,-5.865
2.195,1.772,9.293,0.192,11.73,-0.958,9.676,0.479,17.595,3.739,9.203,2.732,17.595,23.46,-5.865
2.2,1.389,9.484,1.102,11.73,-0.814,9.82,-0.383,11.73,3.595,9.059,2.588,17.595,29.326,-5.865
2.205,1.054,9.676,1.964,11.73,-0.671,9.915,-1.293,11.73,3.307,9.203,2.301,17.595,41.056,-5.865
2.21,0.766,9.772,2.73,11.73,-0.479,9.867,-2.06,11.73,2.876,9.347,1.582,23.46,46.921,-11.73
2.215,0.479,9.724,3.401,5.865,-0.287,9.772,-2.778,11.73,2.445,9.778,0.863,23.46,52.786,-11.73
2.22,0.24,9.676,3.928,5.865,-0.096,9.724,-3.305,5.865,1.869,9.922,-0.0,23.46,58.651,-11.73
2.225,0.0,9.676,4.407,5.865,0.096,9.772,-3.784,11.73,1.15,10.066,-0.863,23.46,58.651,-11.73
2.23,-0.192,9.867,4.742,5.865,0.335,9.915,-4.167,11.73,0.719,10.354,-1.869,23.46,58.651,-11.73
2.235,-0.383,10.011,4.982,11.73,0.527,10.059,-4.407,11.73,0.288,10.497,-2.588,23.46,58.651,-5.865
2.24,-0.479,10.203,5.077,11.73,0.671,10.299,-4.551,11.73,-0.144,10.497,-3.307,17.595,46.921,-5.865
2.245,-0.527,10.346,5.173,11.73,0.814,10.538,-4.551,11.73,-0.431,10.497,-3.883,5.865,46.921,-5.865
2.25,-0.527,10.394,5.077,11.73,0.862,10.634,-4.503,11.73,-0.719,10.497,-4.314,5.865,35.191,-5.865
2.255,-0.527,10.394,4.886,5.865,0.91,10.73,-4.311,11.73,-0.863,10.497,-4.745,5.865,29.326,-5.865
2.2600000000000002,-0.431,10.394,4.646,5.865,0.862,10.825,-4.024,5.865,-1.007,10.785,-5.033,5.865,23.46,-5.865
2.265,-0.335,10.299,4.263,5.865,0.862,10.825,-3.688,5.865,-1.15,10.929,-5.033,0.0,11.73,-11.73
2.27,-0.096,10.299,3.736,5.865,0.671,10.825,-3.209,5.865,-1.15,10.929,-5.177,0.0,5.865,-11.73
2.275,0.144,10.299,3.209,5.865,0.479,10.873,-2.635,5.865,-1.15,11.073,-5.033,-5.865,0.0,-11.73
2.2800000000000002,0.383,10.299,2.539,-0.0,0.335,10.969,-1.964,0.0,-1.007,10.929,-4.889,-5.865,-5.865,-5.865
2.285,0.671,10.299,1.772,-0.0,0.144,11.017,-1.198,0.0,-1.007,10.785,-4.602,-5.865,-11.73,-5.865
2.29,1.006,10.251,1.054,-5.865,-0.096,10.969,-0.431,0.0,-0.719,10.785,-4.17,-5.865,-17.595,0.0
2.295,1.341,10.107,0.335,-5.865,-0.383,10.825,0.287,-5.865,-0.431,10.785,-3.739,0.0,-23.46,0.0
2.3000000000000003,1.629,9.963,-0.383,-5.865,-0.623,10.634,1.006,-5.865,-0.144,10.641,-3.164,0.0,-23.46,0.0
2.305,1.964,9.82,-0.958,-5.865,-0.862,10.394,1.581,-5.865,0.144,10.641,-2.445,0.0,-29.326,0.0
2.31,2.156,9.628,-1.437,-11.73,-1.102,10.059,2.108,-11.73,0.575,10.497,-1.582,5.865,-29.326,0.0
2.315,2.347,9.484,-1.82,-11.73,-1.293,9.772,2.491,-11.73,1.007,10.497,-0.863,5.865,-29.326,5.865
2.32,2.539,9.388,-2.012,-11.73,-1.533,9.58,2.73,-11.73,1.438,10.497,-0.144,5.865,-29.326,5.865
2.325,2.73,9.341,-2.203,-5.865,-1.724,9.484,2.922,-5.865,1.726,10.354,0.575,5.865,-29.326,5.865
2.33,2.778,9.341,-2.347,-5.865,-1.772,9.436,3.018,-5.865,2.157,10.354,1.15,17.595,-29.326,11.73
2.335,2.826,9.341,-2.347,-5.865,-1.868,9.436,3.018,-5.865,2.445,10.21,1.726,17.595,-23.46,11.73
2.34,2.874,9.293,-2.299,-5.865,-1.916,9.436,2.97,-5.865,2.588,10.21,2.013,23.46,-23.46,11.73
2.345,2.826,9.293,-2.156,-0.0,-1.868,9.388,2.874,0.0,2.876,10.21,2.301,17.595,-17.595,11.73
2.35,2.826,9.245,-2.012,-0.0,-1.82,9.388,2.682,0.0,3.02,10.21,2.445,17.595,-11.73,11.73
2.355,2.73,9.293,-1.82,5.865,-1.772,9.484,2.539,5.865,3.02,10.21,2.588,5.865,-11.73,11.73
2.36,2.587,9.484,-1.485,5.865,-1.581,9.724,2.203,5.865,3.164,10.21,2.588,5.865,-5.865,5.865
2.365,2.443,9.772,-1.006,5.865,-1.389,10.059,1.724,11.73,3.164,10.21,2.588,5.865,-5.865,5.865
2.37,2.251,9.963,-0.527,11.73,-1.293,10.299,1.245,11.73,3.164,10.066,2.445,5.865,0.0,5.865
2.375,1.964,10.107,-0.048,11.73,-1.054,10.442,0.766,11.73,3.02,10.066,2.301,0.0,5.865,0.0
2.38,1.82,10.203,0.383,11.73,-0.958,10.586,0.287,11.73,3.02,10.066,2.013,-5.865,5.865,0.0
2.3850000000000002,1.581,10.251,0.814,11.73,-0.766,10.682,-0.144,11.73,2.876,10.21,1.726,-5.865,11.73,-5.865
2.39,1.341,10.299,1.198,11.73,-0.527,10.682,-0.527,11.73,2.588,10.354,1.294,-5.865,17.595,-5.865
2.395,1.15,10.394,1.581,5.865,-0.383,10.778,-0.958,5.865,2.301,10.497,0.863,-11.73,17.595,-5.865
2.4,0.91,10.586,1.964,11.73,-0.192,10.921,-1.293,11.73,2.013,10.785,0.288,-11.73,23.46,-11.73
2.4050000000000002,0.671,10.825,2.299,5.865,0.048,11.113,-1.677,11.73,1.869,10.785,-0.288,-11.73,23.46,-5.865
2.41,0.479,11.017,2.587,5.865,0.192,11.304,-1.916,5.865,1.582,10.785,-0.719,-11.73,23.46,-5.865
2.415,0.287,11.209,2.682,5.865,0.383,11.592,-2.06,5.865,1.294,10.785,-1.007,-11.73,23.46,-5.865
2.42,0.144,11.4,2.73,5.865,0.527,11.831,-2.156,5.865,1.007,10.929,-1.438,-11.73,23.46,-5.865
2.4250000000000003,0.144,11.544,2.778,5.865,0.575,11.975,-2.156,5.865,0.719,11.216,-1.869,-11.73,23.46,-5.865
2.43,0.048,11.736,2.874,-0.0,0.623,12.071,-2.251,0.0,0.431,11.36,-2.157,-11.73,23.46,-5.865
2.435,0.0,11.783,2.922,-0.0,0.671,12.119,-2.299,0.0,0.144,11.648,-2.445,-11.73,23.46,-5.865
2.44,-0.048,11.831,2.922,-0.0,0.719,12.167,-2.347,0.0,0.0,11.648,-2.588,-11.73,23.46,-5.865
2.445,-0.144,11.831,2.922,-5.865,0.766,12.167,-2.347,-5.865,-0.144,11.935,-2.588,-11.73,17.595,-5.865
2.45,-0.096,11.783,2.874,-5.865,0.766,12.071,-2.251,-5.865,-0.288,12.079,-2.732,-11.73,17.595,0.0
2.455,-0.048,11.736,2.778,-11.73,0.719,11.975,-2.203,-5.865,-0.288,12.223,-2.732,-11.73,17.595,0.0
2.46,0.0,11.64,2.682,-11.73,0.671,11.831,-2.06,-11.73,-0.431,12.367,-2.876,-11.73,11.73,0.0
2.465,0.096,11.496,2.539,-11.73,0.575,11.736,-1.916,-11.73,-0.431,12.367,-2.876,-11.73,11.73,5.865
2.47,0.24,11.352,2.299,-11.73,0.479,11.592,-1.677,-11.73,-0.575,12.367,-2.876,-11.73,5.865,5.865
2.475,0.383,11.161,2.06,-17.595,0.335,11.448,-1.485,-11.73,-0.575,12.367,-2.732,-11.73,0.0,11.73
2.48,0.527,11.065,1.868,-17.595,0.24,11.352,-1.245,-17.595,-0.431,12.367,-2.732,-17.595,0.0,11.73
2.485,0.671,10.873,1.629,-17.595,0.096,11.304,-1.006,-17.595,-0.431,12.223,-2.588,-17.595,0.0,11.73
2.49,0.862,10.73,1.389,-17.595,-0.096,11.161,-0.719,-17.595,-0.288,12.223,-2.445,-17.595,-5.865,11.73
2.495,1.006,10.538,1.102,-17.595,-0.24,11.065,-0.479,-17.595,-0.144,12.079,-2.157,-17.595,-11.73,17.595
2.5,1.198,10.394,0.814,-23.46,-0.383,10.778,-0.192,-23.46,0.0,11.792,-2.013,-23.46,-11.73,17.595
2.505,1.389,10.155,0.527,-23.46,-0.527,10.586,0.096,-23.46,0.288,11.648,-1.726,-23.46,-11.73,17.595
2.5100000000000002,1.581,9.915,0.287,-29.326,-0.719,10.394,0.335,-29.326,0.575,11.36,-1.438,-23.46,-11.73,17.595
2.515,1.724,9.628,0.096,-29.326,-0.862,10.059,0.527,-29.326,0.719,11.216,-1.15,-23.46,-17.595,17.595
2.52,1.868,9.293,0.0,-29.326,-1.006,9.676,0.671,-35.191,0.863,11.073,-1.007,-23.46,-17.595,23.46
2.525,1.916,9.053,-0.096,-29.326,-1.054,9.484,0.766,-35.191,1.15,10.929,-0.719,-23.46,-17.595,23.46
2.5300000000000002,1.964,8.862,-0.144,-35.191,-1.102,9.293,0.814,-35.191,1.294,10.785,-0.431,-23.46,-17.595,29.326
2.535,2.156,8.766,-0.096,-35.191,-1.389,9.341,0.766,-35.191,1.582,10.497,-0.144,-23.46,-17.595,29.326
2.54,2.012,8.43,-0.096,-35.191,-1.054,8.909,0.766,-35.191,1.726,10.21,0.144,-23.46,-17.595,29.326
2.545,2.203,8.191,-0.096,-29.326,-1.533,8.622,0.814,-29.326,2.013,9.922,0.288,-23.46,-17.595,29.326
2.5500000000000003,2.347,8.143,0.048,-23.46,-1.581,8.478,0.671,-23.46,2.013,9.635,0.288,-23.46,-11.73,35.191
2.555,2.347,8.095,0.144,-23.46,-1.629,8.383,0.527,-29.326,2.013,9.347,0.431,-23.46,-11.73,35.191
2.56,2.299,7.999,0.287,-29.326,-1.629,8.335,0.383,-23.46,2.157,9.203,0.288,-23.46,-11.73,35.191
2.565,2.347,7.856,0.383,-23.46,-1.677,8.239,0.335,-23.46,2.301,8.772,0.288,-23.46,-5.865,35.191
2.57,2.443,7.616,0.431,-23.46,-1.724,8.047,0.287,-23.46,2.301,8.628,0.288,-17.595,-5.865,29.326
2.575,2.491,7.377,0.431,-23.46,-1.82,7.808,0.24,-23.46,2.445,8.772,0.144,-17.595,-5.865,29.326
2.58,2.539,7.185,0.479,-23.46,-1.868,7.568,0.192,-23.46,2.445,8.772,0.144,-17.595,0.0,29.326
2.585,2.587,7.089,0.575,-17.595,-1.916,7.52,0.144,-17.595,2.445,8.628,-0.144,-17.595,0.0,29.326
2.59,2.587,7.089,0.623,-17.595,-1.916,7.52,0.096,-17.595,2.445,8.484,-0.144,-17.595,0.0,29.326
2.595,2.539,6.993,0.671,-17.595,-1.916,7.472,0.0,-17.595,2.588,8.197,-0.288,-17.595,0.0,29.326
2.6,2.491,6.85,0.719,-17.595,-1.868,7.329,0.0,-17.595,2.588,7.909,-0.288,-17.595,0.0,23.46
2.605,2.491,6.754,0.862,-17.595,-1.82,7.233,-0.192,-17.595,2.732,7.765,-0.288,-17.595,0.0,23.46
2.61,2.491,6.706,1.054,-11.73,-1.916,7.185,-0.335,-11.73,2.732,7.621,-0.431,-17.595,0.0,23.46
2.615,2.491,6.658,1.198,-11.73,-1.868,7.137,-0.479,-11.73,2.732,7.621,-0.431,-17.595,5.865,23.46
2.62,2.395,6.562,1.245,-11.73,-1.82,7.089,-0.575,-11.73,2.732,7.478,-0.431,-17.595,5.865,23.46
2.625,2.347,6.467,1.389,-11.73,-1.772,7.041,-0.671,-11.73,2.588,7.334,-0.575,-17.595,5.865,23.46
2.63,2.395,6.275,1.533,-11.73,-1.82,6.946,-0.814,-11.73,2.588,7.19,-0.719,-17.595,5.865,17.595
2.6350000000000002,2.347,5.988,1.581,-11.73,-1.868,6.658,-0.91,-11.73,2.588,7.19,-0.863,-11.73,5.865,17.595
2.64,2.443,5.7,1.677,-11.73,-1.964,6.275,-0.958,-11.73,2.588,7.19,-1.007,-11.73,5.865,17.595
2.645,2.587,5.365,1.629,-11.73,-2.108,5.844,-0.958,-11.73,2.445,7.046,-1.15,-11.73,11.73,17.595
2.65,2.635,5.077,1.533,-11.73,-2.156,5.556,-0.862,-5.865,2.445,6.759,-1.15,-5.865,11.73,17.595
2.6550000000000002,2.73,4.742,1.437,-5.865,-2.203,5.317,-0.719,-5.865,2.445,6.471,-1.294,-5.865,11.73,17.595
2.66,2.874,4.455,1.341,-5.865,-2.299,5.077,-0.623,-5.865,2.445,6.327,-1.438,0.0,11.73,11.73
2.665,3.018,4.072,1.389,-5.865,-2.491,4.838,-0.671,-5.865,2.588,6.04,-1.438,0.0,11.73,11.73
2.67,3.114,3.545,1.293,-0.0,-2.635,4.407,-0.623,0.0,2.732,5.896,-1.438,5.865,5.865,11.73
2.6750000000000003,3.305,2.922,1.198,-0.0,-2.826,3.88,-0.479,5.865,2.876,5.608,-1.294,5.865,11.73,11.73
2.68,3.688,2.395,1.245,5.865,-3.161,3.305,-0.527,5.865,2.876,5.177,-1.15,5.865,11.73,11.73
2.685,3.976,1.772,1.15,11.73,-3.449,2.539,-0.431,11.73,3.02,4.745,-1.15,5.865,11.73,5.865
2.69,4.167,1.054,0.958,17.595,-3.736,1.772,-0.24,17.595,3.307,4.17,-1.15,5.865,11.73,5.865
2.695,4.359,0.335,0.623,23.46,-3.928,1.054,0.096,23.46,3.451,3.595,-1.15,17.595,11.73,5.865
2.7,4.598,-0.24,0.24,35.191,-4.167,0.479,0.527,35.191,3.595,3.02,-1.007,23.46,17.595,0.0
2.705,4.886,-0.623,-0.287,46.921,-4.359,0.096,1.006,46.921,4.17,2.445,-1.007,29.326,17.595,-5.865
2.71,4.934,-0.719,-0.719,58.651,-4.359,-0.335,1.485,58.651,4.458,2.013,-1.007,35.191,17.595,-5.865
2.715,4.742,-0.575,-0.91,76.246,-4.167,-0.383,1.677,76.246,4.602,1.294,-0.719,41.056,23.46,-17.595
2.72,4.598,-0.096,-0.862,87.977,-4.167,0.192,1.629,93.842,4.889,0.431,-0.431,46.921,23.46,-23.46
2.725,4.215,0.575,-0.623,105.572,-3.88,0.862,1.341,105.572,5.177,-0.144,-0.0,52.786,29.326,-35.191
2.73,3.736,1.293,-0.192,111.437,-3.593,1.533,0.91,117.302,5.608,-0.431,0.575,52.786,29.326,-46.921
2.735,2.682,2.156,0.383,117.302,-2.539,2.73,0.383,123.167,5.752,-0.431,1.007,58.651,35.191,-58.651
2.74,-1.054,11.975,1.964,117.302,-1.581,4.072,0.192,123.167,5.464,-0.144,1.294,58.651,41.056,-70.381
2.745,-0.144,11.161,3.018,58.651,-6.419,21.651,-1.198,64.516,5.177,0.288,1.15,58.651,46.921,-87.977
2.75,-8.383,23.902,7.52,-46.921,13.46,24.525,-11.4,-52.786,4.602,1.007,0.863,58.651,52.786,-105.572
2.755,-15.041,23.95,3.832,-246.334,23.327,20.166,-5.221,-357.771,4.026,1.726,0.431,58.651,52.786,-111.437
2.7600000000000002,-8.766,17.484,9.436,-258.064,10.682,1.677,-9.341,-340.176,2.876,2.445,-0.144,58.651,52.786,-117.302
2.765,-2.06,10.442,9.772,-222.874,0.719,4.263,-9.772,-252.199,-4.889,29.479,-3.595,64.516,52.786,-117.302
2.77,-1.533,8.239,7.137,-205.279,1.102,4.646,-6.993,-217.009,-7.478,-0.575,-5.177,111.437,29.326,-41.056
2.775,-2.251,12.358,2.778,-152.493,1.964,7.712,-2.587,-158.358,-13.805,20.132,-6.902,93.842,29.326,52.786
2.7800000000000002,-0.24,13.125,-2.156,-70.381,1.054,8.191,2.587,-76.246,-10.785,42.133,-1.869,363.636,0.0,252.199
2.785,2.587,12.31,-4.167,11.73,-1.82,8.526,4.886,11.73,-8.34,28.76,-8.772,428.152,29.326,258.064
2.79,4.024,13.22,-4.167,87.977,-3.593,9.532,4.886,87.977,-4.17,16.393,-9.778,340.176,46.921,222.874
2.795,3.64,14.897,-3.928,129.032,-3.353,10.634,4.646,134.897,-2.588,10.785,-7.046,252.199,29.326,205.279
2.8000000000000003,3.018,15.855,-3.305,140.762,-3.209,11.975,3.976,140.762,-3.451,15.818,-2.732,199.413,11.73,152.493
2.805,2.347,15.52,-2.06,134.897,-2.778,13.268,2.587,129.032,-0.431,17.112,2.445,152.493,-5.865,70.381
2.81,2.299,14.322,-1.677,123.167,-2.539,13.652,2.06,123.167,2.588,15.674,4.458,99.707,-5.865,-11.73
2.815,2.97,12.215,-1.724,123.167,-2.874,13.125,2.108,123.167,3.883,16.825,4.314,52.786,-5.865,-87.977
2.82,3.832,10.73,-2.395,123.167,-2.922,12.694,2.826,123.167,3.307,19.413,4.17,5.865,-5.865,-134.897
2.825,4.167,10.538,-3.497,111.437,-2.347,12.837,3.976,111.437,2.157,20.132,3.451,-41.056,-11.73,-140.762
2.83,4.311,11.352,-4.167,93.842,-2.108,13.843,4.742,93.842,1.15,18.263,2.301,-87.977,-17.595,-129.032
2.835,3.832,12.023,-3.736,76.246,-1.293,14.226,4.407,76.246,1.294,15.818,1.869,-123.167,-35.191,-123.167
2.84,3.018,11.831,-3.018,58.651,-0.719,14.274,3.736,58.651,2.445,12.511,2.157,-140.762,-46.921,-123.167
2.845,2.299,11.4,-1.677,46.921,-0.383,14.131,2.395,46.921,4.17,10.354,2.732,-140.762,-52.786,-123.167
2.85,1.82,10.969,0.048,35.191,-0.575,13.22,0.671,35.191,5.321,9.778,4.026,-123.167,-52.786,-111.437
2.855,1.341,10.634,1.15,29.326,-0.479,12.358,-0.479,29.326,5.752,10.497,4.602,-105.572,-46.921,-87.977
2.86,1.245,10.442,1.629,17.595,-0.623,11.975,-1.006,17.595,5.464,11.216,4.17,-87.977,-29.326,-70.381
2.865,1.485,10.442,1.581,5.865,-0.862,11.592,-1.006,11.73,4.458,10.929,3.451,-64.516,-5.865,-58.651
2.87,1.389,10.586,1.724,-0.0,-1.054,11.065,-1.102,0.0,3.307,10.21,2.013,-46.921,17.595,-46.921
2.875,1.198,10.682,2.203,-5.865,-1.15,10.586,-1.581,0.0,2.301,10.21,0.288,-23.46,29.326,-35.191
2.88,1.006,10.682,2.539,-5.865,-1.102,10.203,-1.916,-5.865,1.438,10.21,-1.007,0.0,41.056,-23.46
2.8850000000000002,0.814,10.538,2.635,-11.73,-0.958,10.011,-2.012,-5.865,1.15,10.066,-1.438,5.865,46.921,-11.73
2.89,0.719,10.442,2.443,-11.73,-0.814,9.915,-1.82,-5.865,1.438,10.497,-1.438,29.326,46.921,-5.865
2.895,0.719,10.346,2.299,-5.865,-0.719,9.915,-1.677,-5.865,1.15,11.073,-1.582,41.056,46.921,0.0
2.9,0.719,10.251,2.012,-5.865,-0.527,9.963,-1.437,-5.865,0.575,11.648,-2.013,41.056,46.921,5.865
2.9050000000000002,0.862,10.203,1.677,-5.865,-0.479,10.059,-1.054,0.0,0.288,11.935,-2.445,41.056,41.056,5.865
2.91,1.006,10.251,1.293,-0.0,-0.479,10.442,-0.671,0.0,0.0,11.792,-2.588,29.326,35.191,11.73
2.915,1.102,10.346,1.054,-0.0,-0.383,10.778,-0.383,0.0,0.0,11.648,-2.445,23.46,23.46,11.73
2.92,1.102,10.49,0.91,-0.0,-0.335,11.017,-0.287,5.865,0.0,11.504,-2.157,5.865,17.595,11.73
2.9250000000000003,1.054,10.586,0.91,-0.0,-0.287,11.209,-0.24,0.0,0.144,11.36,-2.013,0.0,5.865,5.865
2.93,1.006,10.538,1.006,-0.0,-0.431,11.161,-0.335,0.0,0.575,11.073,-1.582,-5.865,0.0,5.865
2.935,0.91,10.394,1.102,-5.865,-0.383,10.825,-0.431,-5.865,0.863,10.929,-1.15,-11.73,0.0,0.0
2.94,0.958,10.155,1.102,-5.865,-0.527,10.49,-0.431,-5.865,1.15,10.929,-0.863,-17.595,0.0,0.0
2.945,1.054,9.915,1.15,-5.865,-0.623,10.203,-0.479,-5.865,1.15,10.929,-0.719,-17.595,0.0,0.0
2.95,1.054,9.724,1.006,-5.865,-0.623,9.915,-0.335,-5.865,1.15,10.929,-0.719,-11.73,0.0,0.0
2.955,1.15,9.676,0.958,-5.865,-0.719,9.82,-0.287,-5.865,0.863,10.929,-0.863,-11.73,0.0,5.865
2.96,1.198,9.628,0.814,-5.865,-0.719,9.82,-0.144,-5.865,0.719,10.929,-1.007,-5.865,0.0,5.865
2.965,1.245,9.628,0.623,-5.865,-0.766,9.915,0.0,-5.865,0.719,10.785,-1.007,-5.865,0.0,5.865
2.97,1.293,9.628,0.623,-5.865,-0.766,9.867,0.048,-5.865,0.863,10.497,-1.007,-5.865,0.0,5.865
2.975,1.341,9.532,0.623,-5.865,-0.862,9.867,0.048,-5.865,0.863,10.497,-0.863,-5.865,0.0,11.73
2.98,1.341,9.341,0.623,-11.73,-0.862,9.724,0.048,-11.73,1.007,10.354,-0.719,-11.73,-5.865,11.73
2.985,1.341,9.149,0.527,-11.73,-0.814,9.532,0.144,-11.73,1.007,10.354,-0.719,-11.73,-5.865,11.73
2.99,1.341,9.053,0.479,-11.73,-0.814,9.436,0.192,-11.73,1.15,10.354,-0.575,-17.595,-5.865,5.865
2.995,1.437,9.005,0.431,-11.73,-0.91,9.484,0.24,-11.73,1.15,10.21,-0.431,-17.595,-5.865,5.865
3.0,1.533,8.957,0.335,-11.73,-0.91,9.484,0.335,-11.73,1.15,10.21,-0.431,-17.595,-5.865,11.73
3.005,1.581,8.909,0.24,-11.73,-0.958,9.388,0.431,-11.73,1.294,9.922,-0.431,-17.595,-11.73,11.73
3.0100000000000002,1.629,8.862,0.24,-11.73,-1.006,9.341,0.431,-11.73,1.15,9.778,-0.431,-17.595,-11.73,11.73
3.015,1.629,8.766,0.192,-11.73,-1.054,9.245,0.431,-11.73,1.294,9.635,-0.288,-17.595,-11.73,11.73
3.02,1.629,8.67,0.192,-11.73,-1.006,9.245,0.479,-11.73,1.438,9.491,-0.288,-17.595,-11.73,17.595
3.025,1.724,8.67,0.24,-11.73,-1.054,9.245,0.431,-11.73,1.582,9.347,-0.144,-17.595,-11.73,11.73
3.0300000000000002,1.772,8.67,0.24,-11.73,-1.15,9.197,0.431,-5.865,1.582,9.347,-0.144,-17.595,-5.865,11.73
3.035,1.772,8.622,0.24,-5.865,-1.15,9.101,0.431,-5.865,1.726,9.347,-0.0,-17.595,-5.865,11.73
3.04,1.868,8.622,0.287,-5.865,-1.245,9.053,0.383,-5.865,1.726,9.203,-0.0,-11.73,-5.865,11.73
3.045,1.868,8.574,0.383,-5.865,-1.293,9.053,0.287,-5.865,1.726,9.059,-0.0,-11.73,-5.865,11.73
3.0500000000000003,1.82,8.526,0.431,-5.865,-1.245,8.909,0.24,-5.865,1.726,9.059,-0.144,-11.73,-5.865,11.73
3.055,1.82,8.335,0.479,-11.73,-1.245,8.67,0.24,-5.865,1.869,9.059,-0.144,-5.865,-5.865,11.73
3.06,1.772,8.287,0.575,-5.865,-1.198,8.574,0.096,-5.865,1.869,9.059,-0.0,-5.865,0.0,11.73
3.065,1.772,8.335,0.719,-5.865,-1.245,8.718,-0.048,-5.865,2.013,9.059,-0.144,-5.865,0.0,11.73
3.0700000000000003,1.724,8.526,0.766,-5.865,-1.293,8.909,-0.096,-5.865,2.013,9.059,-0.288,-5.865,0.0,5.865
3.075,1.724,8.718,0.814,-0.0,-1.293,9.005,-0.144,0.0,1.869,9.059,-0.288,0.0,0.0,11.73
3.08,1.772,8.862,0.719,-0.0,-1.293,9.053,-0.048,0.0,1.869,8.916,-0.288,0.0,0.0,11.73
3.085,1.772,8.814,0.671,-0.0,-1.293,9.101,0.0,0.0,1.869,8.916,-0.431,0.0,5.865,11.73
3.09,1.82,8.766,0.623,-0.0,-1.293,9.101,0.048,0.0,1.726,8.772,-0.575,0.0,5.865,11.73
3.095,1.82,8.718,0.623,-0.0,-1.293,9.101,0.048,0.0,1.726,9.059,-0.575,0.0,5.865,5.865
3.1,1.868,8.622,0.671,-0.0,-1.341,9.053,0.048,0.0,1.726,9.347,-0.575,0.0,5.865,5.865
3.105,1.868,8.574,0.671,-0.0,-1.341,8.957,0.0,0.0,1.726,9.491,-0.575,0.0,5.865,5.865
3.11,1.868,8.478,0.719,-0.0,-1.341,8.862,-0.048,0.0,1.726,9.491,-0.575,-5.865,0.0,0.0
3.115,1.868,8.383,0.671,5.865,-1.341,8.814,0.0,5.865,1.726,9.347,-0.431,-5.865,0.0,0.0
3.12,1.772,8.43,0.671,5.865,-1.198,8.814,0.0,5.865,1.869,9.203,-0.431,-5.865,0.0,0.0
3.125,1.677,8.622,0.671,5.865,-1.054,9.053,0.0,5.865,1.869,9.203,-0.431,-5.865,0.0,0.0
3.13,1.677,8.862,0.671,5.865,-1.054,9.341,0.0,5.865,1.869,9.059,-0.575,-5.865,0.0,0.0
3.1350000000000002,1.581,9.149,0.719,5.865,-1.006,9.58,-0.048,11.73,1.869,8.916,-0.575,-5.865,0.0,0.0
3.14,1.533,9.341,0.766,5.865,-0.958,9.772,-0.096,11.73,1.869,8.916,-0.575,0.0,0.0,0.0
3.145,1.485,9.484,0.766,5.865,-0.958,9.867,-0.096,5.865,1.726,8.916,-0.431,0.0,0.0,0.0
3.15,1.485,9.532,0.766,5.865,-0.958,9.867,-0.144,5.865,1.726,9.059,-0.431,0.0,5.865,-5.865
3.1550000000000002,1.437,9.484,0.814,5.865,-0.91,9.82,-0.144,5.865,1.726,9.347,-0.575,0.0,5.865,-5.865
3.16,1.437,9.484,0.814,5.865,-0.91,9.82,-0.144,5.865,1.582,9.635,-0.575,0.0,5.865,-5.865
3.165,1.437,9.484,0.814,5.865,-0.91,9.772,-0.144,5.865,1.582,9.922,-0.575,0.0,5.865,-5.865
3.17,1.437,9.484,0.862,5.865,-0.91,9.82,-0.24,5.865,1.438,9.922,-0.575,0.0,5.865,-5.865
3.1750000000000003,1.341,9.58,0.958,5.865,-0.814,9.915,-0.287,5.865,1.438,10.066,-0.575,5.865,5.865,-5.865
3.18,1.198,9.676,1.006,5.865,-0.766,10.059,-0.383,5.865,1.438,10.066,-0.575,5.865,5.865,-5.865
3.185,1.15,9.724,1.102,5.865,-0.671,10.155,-0.479,5.865,1.438,10.066,-0.719,5.865,5.865,-5.865
3.19,1.102,9.724,1.102,5.865,-0.671,10.155,-0.431,5.865,1.438,10.066,-0.719,5.865,5.865,-5.865
3.1950000000000003,1.15,9.772,1.102,5.865,-0.575,10.059,-0.431,5.865,1.294,10.066,-0.719,5.865,5.865,0.0
3.2,1.15,9.82,1.054,5.865,-0.575,10.107,-0.431,5.865,1.294,10.21,-0.863,5.865,5.865,-5.865
3.205,1.102,9.915,1.054,5.865,-0.479,10.203,-0.383,5.865,1.007,10.21,-0.863,5.865,5.865,-5.865
3.21,1.006,10.107,1.102,5.865,-0.431,10.394,-0.431,5.865,1.007,10.21,-1.007,5.865,5.865,0.0
3.215,0.958,10.251,1.15,5.865,-0.383,10.538,-0.527,5.865,1.007,10.21,-0.863,5.865,5.865,0.0
3.22,0.91,10.346,1.293,5.865,-0.383,10.682,-0.623,5.865,1.15,10.354,-0.863,5.865,0.0,-5.865
3.225,0.91,10.346,1.341,5.865,-0.383,10.778,-0.719,5.865,1.15,10.497,-0.863,5.865,0.0,-5.865
3.23,0.91,10.251,1.341,5.865,-0.383,10.73,-0.719,5.865,1.007,10.497,-0.863,5.865,0.0,-5.865
3.235,0.91,10.155,1.389,-0.0,-0.383,10.586,-0.719,5.865,1.007,10.641,-1.007,0.0,0.0,-5.865
3.24,0.958,10.059,1.389,-0.0,-0.431,10.442,-0.719,0.0,0.863,10.785,-1.007,0.0,0.0,-5.865
3.245,1.006,9.963,1.389,-0.0,-0.479,10.299,-0.766,0.0,0.863,10.929,-1.15,0.0,0.0,-5.865
3.25,1.054,9.915,1.341,-0.0,-0.527,10.203,-0.719,0.0,0.719,10.929,-1.15,0.0,0.0,-5.865
3.255,1.102,9.915,1.341,-0.0,-0.575,10.203,-0.719,0.0,0.719,10.785,-1.15,0.0,0.0,0.0
3.2600000000000002,1.102,9.915,1.389,-0.0,-0.575,10.203,-0.719,0.0,0.719,10.641,-1.15,0.0,0.0,0.0
3.265,1.15,9.867,1.437,-0.0,-0.623,10.203,-0.766,0.0,0.863,10.641,-1.294,0.0,0.0,0.0
3.27,1.102,9.867,1.533,-0.0,-0.575,10.203,-0.862,0.0,0.863,10.497,-1.294,0.0,0.0,0.0
3.275,1.054,9.915,1.581,-5.865,-0.575,10.299,-0.958,0.0,1.007,10.641,-1.15,0.0,0.0,0.0
3.2800000000000002,1.006,9.915,1.629,-5.865,-0.575,10.394,-1.006,0.0,1.007,10.497,-1.294,0.0,-5.865,0.0
3.285,1.006,9.963,1.724,-5.865,-0.527,10.394,-1.102,0.0,1.007,10.497,-1.294,0.0,-5.865,0.0
3.29,0.958,9.963,1.772,-5.865,-0.575,10.346,-1.102,-5.865,1.007,10.497,-1.294,0.0,-5.865,0.0
3.295,1.006,9.915,1.724,-5.865,-0.623,10.299,-1.102,-5.865,1.007,10.497,-1.438,0.0,-5.865,0.0
3.3000000000000003,1.102,9.772,1.629,-5.865,-0.671,10.107,-1.006,-5.865,0.863,10.354,-1.438,-5.865,-5.865,5.865
3.305,1.15,9.628,1.533,-5.865,-0.671,10.011,-0.91,-5.865,0.863,10.497,-1.582,0.0,-5.865,5.865
3.31,1.245,9.532,1.437,-5.865,-0.814,9.867,-0.766,-5.865,0.719,10.497,-1.582,0.0,-5.865,5.865
3.315,1.389,9.484,1.245,-11.73,-0.91,9.82,-0.623,-5.865,0.719,10.497,-1.582,0.0,-5.865,5.865
3.3200000000000003,1.533,9.388,1.054,-5.865,-1.054,9.772,-0.431,-5.865,0.863,10.497,-1.582,0.0,-11.73,5.865
3.325,1.677,9.341,0.862,-5.865,-1.15,9.724,-0.24,-5.865,0.863,10.354,-1.438,0.0,-11.73,11.73
3.33,1.82,9.197,0.671,-5.865,-1.341,9.58,0.0,-5.865,1.007,10.21,-1.438,0.0,-17.595,11.73
3.335,2.06,9.053,0.335,-11.73,-1.533,9.436,0.287,-5.865,1.15,10.066,-1.294,0.0,-17.595,11.73
3.34,2.251,8.862,0.0,-5.865,-1.724,9.245,0.623,-5.865,1.294,10.066,-1.15,0.0,-17.595,11.73
3.345,2.443,8.718,-0.383,-5.865,-1.82,9.053,1.054,-5.865,1.438,9.922,-0.863,0.0,-17.595,5.865
3.35,2.73,8.574,-0.766,-5.865,-2.06,8.957,1.437,-5.865,1.582,9.922,-0.719,0.0,-17.595,11.73
3.355,2.778,8.287,-1.198,-5.865,-1.964,8.718,1.82,-5.865,1.869,9.778,-0.431,0.0,-17.595,11.73
3.36,3.018,8.239,-1.533,-0.0,-2.156,8.622,2.203,0.0,2.013,9.635,-0.144,0.0,-17.595,11.73
3.365,3.305,8.43,-1.724,-0.0,-2.395,8.766,2.395,0.0,2.301,9.347,0.144,0.0,-17.595,11.73
3.37,3.305,8.478,-1.916,-0.0,-2.347,8.862,2.587,0.0,2.588,9.347,0.575,0.0,-17.595,11.73
3.375,3.209,8.43,-2.108,-0.0,-2.203,8.909,2.778,0.0,3.02,9.059,1.007,0.0,-17.595,11.73
3.38,3.209,8.383,-2.156,-0.0,-2.251,9.005,2.826,0.0,3.164,8.772,1.438,0.0,-17.595,5.865
3.3850000000000002,3.257,8.287,-2.108,5.865,-2.299,8.862,2.778,5.865,3.451,8.772,1.869,0.0,-11.73,5.865
3.39,3.209,8.287,-1.964,5.865,-2.251,8.718,2.635,5.865,3.739,9.059,2.013,0.0,-5.865,0.0
3.395,3.066,8.383,-1.772,5.865,-2.203,8.718,2.443,5.865,3.883,9.059,2.157,0.0,-5.865,0.0
3.4,2.874,8.43,-1.437,5.865,-2.108,8.67,2.156,11.73,3.739,8.916,2.445,0.0,0.0,0.0
3.4050000000000002,2.635,8.574,-0.958,11.73,-2.012,8.814,1.677,11.73,3.739,8.772,2.445,5.865,5.865,0.0
3.41,2.347,8.766,-0.431,11.73,-1.82,9.005,1.102,11.73,3.739,8.772,2.445,5.865,17.595,0.0
3.415,2.108,8.957,0.24,11.73,-1.724,9.149,0.479,11.73,3.595,8.772,2.301,5.865,23.46,0.0
3.42,1.868,9.053,0.766,11.73,-1.485,9.245,-0.096,17.595,3.595,8.916,2.013,5.865,29.326,-5.865
3.4250000000000003,1.533,9.197,1.341,11.73,-1.245,9.341,-0.671,17.595,3.164,9.059,1.726,5.865,29.326,-5.865
3.43,1.293,9.293,1.916,17.595,-0.958,9.484,-1.245,17.595,2.876,9.347,1.294,5.865,35.191,-5.865
3.435,1.006,9.436,2.443,11.73,-0.719,9.676,-1.82,17.595,2.445,9.491,0.575,5.865,41.056,-11.73
3.44,0.671,9.628,2.97,17.595,-0.383,9.867,-2.347,17.595,2.013,9.635,-0.0,5.865,41.056,-11.73
3.4450000000000003,0.383,9.82,3.497,17.595,-0.144,10.155,-2.874,17.595,1.726,9.778,-0.575,5.865,41.056,-11.73
3.45,0.096,10.011,3.88,11.73,0.144,10.394,-3.305,17.595,1.294,9.922,-1.15,5.865,41.056,-11.73
3.455,-0.144,10.203,4.215,11.73,0.383,10.634,-3.64,11.73,1.007,9.922,-1.726,0.0,35.191,-11.73
3.46,-0.287,10.346,4.455,11.73,0.527,10.873,-3.88,11.73,0.719,10.066,-2.445,0.0,35.191,-11.73
3.465,-0.383,10.49,4.503,11.73,0.623,11.017,-3.928,11.73,0.288,10.21,-2.876,0.0,29.326,-11.73
3.47,-0.431,10.538,4.455,5.865,0.719,11.113,-3.832,11.73,0.0,10.354,-3.451,0.0,29.326,-11.73
3.475,-0.383,10.586,4.263,5.865,0.719,11.161,-3.688,5.865,-0.288,10.497,-3.883,-5.865,23.46,-11.73
3.48,-0.335,10.586,4.024,5.865,0.671,11.161,-3.449,5.865,-0.575,10.641,-4.17,-5.865,17.595,-11.73
3.485,-0.24,10.634,3.736,-0.0,0.575,11.065,-3.161,0.0,-0.719,10.785,-4.458,-5.865,17.595,-11.73
3.49,-0.144,10.634,3.305,-0.0,0.527,11.017,-2.73,0.0,-0.863,10.929,-4.458,0.0,11.73,-5.865
3.495,0.0,10.586,2.874,-0.0,0.431,11.017,-2.299,0.0,-0.863,10.929,-4.314,0.0,5.865,-5.865
3.5,0.192,10.538,2.395,-5.865,0.287,10.969,-1.82,-5.865,-0.863,10.929,-4.17,0.0,0.0,-5.865
3.505,0.431,10.442,1.82,-5.865,0.096,10.921,-1.245,-5.865,-0.863,11.073,-4.026,5.865,0.0,0.0
3.5100000000000002,0.671,10.346,1.245,-5.865,-0.096,10.73,-0.671,-5.865,-0.719,11.073,-3.595,5.865,-5.865,0.0
3.515,0.958,10.251,0.719,-5.865,-0.335,10.634,-0.096,-5.865,-0.575,11.073,-3.307,5.865,-11.73,0.0
3.52,1.245,10.107,0.144,-5.865,-0.575,10.442,0.479,-5.865,-0.288,11.073,-2.732,5.865,-11.73,5.865
3.525,1.485,9.963,-0.335,-5.865,-0.766,10.251,0.958,-5.865,-0.144,11.073,-2.301,5.865,-17.595,5.865
3.5300000000000002,1.772,9.772,-0.671,-5.865,-1.006,9.963,1.293,-5.865,0.144,10.929,-1.726,5.865,-17.595,5.865
3.535,1.964,9.58,-0.91,-5.865,-1.198,9.772,1.581,-5.865,0.575,10.929,-1.007,5.865,-17.595,5.865
3.54,2.108,9.484,-1.15,-5.865,-1.341,9.676,1.82,-5.865,0.863,10.785,-0.575,5.865,-23.46,5.865
3.545,2.203,9.484,-1.245,-0.0,-1.437,9.724,1.916,0.0,1.294,10.785,0.144,5.865,-23.46,5.865
3.5500000000000003,2.251,9.532,-1.293,-0.0,-1.485,9.772,1.964,0.0,1.582,10.641,0.575,5.865,-17.595,11.73
3.555,2.251,9.532,-1.245,-0.0,-1.533,9.82,1.916,0.0,1.869,10.497,0.863,5.865,-17.595,5.865
3.56,2.347,9.58,-1.15,-0.0,-1.581,9.867,1.868,0.0,2.157,10.354,1.15,5.865,-17.595,5.865
3.565,2.299,9.532,-1.054,-0.0,-1.581,9.867,1.772,0.0,2.301,10.21,1.438,5.865,-11.73,5.865
3.5700000000000003,2.251,9.484,-0.958,-0.0,-1.485,9.82,1.677,0.0,2.445,10.21,1.438,0.0,-11.73,5.865
3.575,2.203,9.484,-0.766,-0.0,-1.437,9.772,1.437,5.865,2.445,10.21,1.582,0.0,-5.865,0.0
3.58,2.156,9.484,-0.575,-0.0,-1.437,9.724,1.245,0.0,2.445,10.21,1.438,0.0,-5.865,0.0
3.585,2.108,9.532,-0.287,5.865,-1.389,9.772,0.958,5.865,2.588,10.21,1.438,-5.865,-5.865,0.0
3.59,1.964,9.676,0.048,5.865,-1.293,9.915,0.671,5.865,2.588,10.21,1.294,-5.865,0.0,0.0
3.595,1.82,9.82,0.383,5.865,-1.198,10.107,0.287,5.865,2.445,10.21,1.294,-5.865,5.865,0.0
3.6,1.677,10.011,0.766,5.865,-1.102,10.251,-0.096,11.73,2.445,10.066,1.007,-5.865,5.865,0.0
3.605,1.485,10.203,1.102,5.865,-0.91,10.394,-0.479,11.73,2.301,10.066,0.863,-5.865,11.73,0.0
3.61,1.293,10.346,1.437,5.865,-0.766,10.586,-0.766,5.865,2.301,10.21,0.575,-5.865,11.73,0.0
3.615,1.15,10.49,1.724,5.865,-0.623,10.73,-1.054,11.73,2.013,10.354,0.144,-5.865,17.595,-5.865
3.62,1.006,10.586,1.916,5.865,-0.527,10.825,-1.293,11.73,1.869,10.497,-0.144,-11.73,17.595,-5.865
3.625,0.862,10.682,2.108,5.865,-0.431,11.017,-1.437,5.865,1.582,10.641,-0.575,-11.73,17.595,-5.865
3.63,0.766,10.825,2.251,5.865,-0.287,11.113,-1.629,5.865,1.438,10.929,-0.863,-11.73,17.595,-5.865
3.6350000000000002,0.671,11.017,2.347,5.865,-0.192,11.257,-1.724,5.865,1.15,10.929,-1.294,-11.73,17.595,-5.865
3.64,0.575,11.161,2.395,5.865,-0.096,11.448,-1.772,5.865,1.007,11.073,-1.582,-17.595,17.595,-5.865
3.645,0.431,11.257,2.443,5.865,0.048,11.64,-1.82,5.865,0.863,11.216,-1.869,-17.595,17.595,-5.865
3.65,0.383,11.448,2.443,5.865,0.096,11.831,-1.82,5.865,0.719,11.36,-2.013,-17.595,17.595,-5.865
3.6550000000000002,0.383,11.544,2.443,-0.0,0.144,11.879,-1.868,5.865,0.575,11.504,-2.157,-17.595,17.595,-5.865
3.66,0.335,11.688,2.443,-0.0,0.192,12.023,-1.868,0.0,0.431,11.648,-2.157,-17.595,11.73,-5.865
3.665,0.287,11.736,2.491,-5.865,0.24,12.119,-1.868,0.0,0.288,11.792,-2.301,-17.595,11.73,-5.865
3.67,0.335,11.688,2.443,-5.865,0.192,12.167,-1.868,-5.865,0.144,11.792,-2.301,-17.595,11.73,0.0
3.6750000000000003,0.335,11.592,2.395,-5.865,0.192,12.023,-1.82,-5.865,0.144,11.935,-2.301,-17.595,5.865,0.0
3.68,0.335,11.448,2.347,-11.73,0.192,11.879,-1.772,-11.73,0.0,12.079,-2.301,-17.595,5.865,0.0
3.685,0.383,11.4,2.347,-11.73,0.144,11.831,-1.724,-11.73,0.0,12.223,-2.301,-23.46,5.865,0.0
3.69,0.431,11.304,2.251,-17.595,0.096,11.783,-1.629,-17.595,0.0,12.223,-2.301,-17.595,0.0,5.865
3.6950000000000003,0.575,11.161,2.203,-17.595,-0.048,11.544,-1.629,-17.595,0.0,12.223,-2.301,-23.46,0.0,5.865
3.7,0.575,10.778,1.916,-17.595,-0.096,11.113,-1.293,-23.46,0.0,12.079,-2.301,-17.595,0.0,11.73
3.705,0.862,10.634,1.772,-17.595,-0.383,11.017,-1.15,-17.595,0.0,12.079,-2.301,-17.595,0.0,11.73
3.71,1.006,10.538,1.629,-23.46,-0.479,10.825,-1.054,-23.46,0.144,11.935,-2.157,-17.595,-5.865,17.595
3.715,1.054,10.49,1.437,-23.46,-0.575,10.778,-0.814,-23.46,0.144,11.792,-2.157,-17.595,-5.865,17.595
3.72,1.245,10.49,1.293,-23.46,-0.719,10.825,-0.671,-29.326,0.288,11.648,-2.013,-17.595,-5.865,23.46
3.725,1.341,10.251,1.054,-29.326,-0.766,10.538,-0.479,-29.326,0.288,11.36,-1.726,-17.595,-11.73,23.46
3.73,1.485,9.915,0.91,-29.326,-0.91,10.346,-0.287,-29.326,0.575,11.216,-1.726,-17.595,-11.73,23.46
3.735,1.677,9.676,0.814,-35.191,-1.102,10.059,-0.144,-35.191,0.863,11.216,-1.438,-17.595,-11.73,23.46
3.74,1.772,9.484,0.671,-35.191,-1.198,9.772,-0.048,-35.191,0.863,11.216,-1.294,-17.595,-11.73,29.326
3.745,1.868,9.245,0.575,-35.191,-1.293,9.628,0.048,-35.191,1.007,11.073,-1.15,-23.46,-17.595,29.326
3.75,1.964,9.053,0.527,-35.191,-1.389,9.436,0.144,-35.191,1.294,10.929,-1.007,-23.46,-17.595,29.326
3.755,2.012,8.862,0.479,-35.191,-1.437,9.245,0.192,-35.191,1.438,10.497,-0.719,-23.46,-17.595,29.326
3.7600000000000002,2.06,8.718,0.431,-35.191,-1.485,9.149,0.24,-35.191,1.582,10.354,-0.575,-23.46,-17.595,35.191
3.765,2.156,8.622,0.431,-35.191,-1.581,9.053,0.24,-35.191,1.726,10.066,-0.575,-23.46,-17.595,35.191
3.77,2.156,8.574,0.431,-35.191,-1.629,9.005,0.24,-35.191,1.869,9.778,-0.431,-23.46,-17.595,35.191
3.775,2.347,8.383,0.431,-35.191,-1.772,8.766,0.24,-35.191,2.013,9.635,-0.288,-23.46,-17.595,35.191
3.7800000000000002,2.443,8.191,0.479,-35.191,-1.868,8.67,0.24,-35.191,2.013,9.347,-0.288,-23.46,-17.595,35.191
3.785,2.443,7.999,0.431,-35.191,-1.868,8.43,0.24,-35.191,2.013,9.203,-0.288,-23.46,-17.595,35.191
3.79,2.539,7.712,0.383,-35.191,-2.012,8.191,0.287,-35.191,2.157,9.203,-0.288,-23.46,-11.73,35.191
3.795,2.682,7.425,0.383,-35.191,-2.108,7.999,0.287,-35.191,2.301,9.059,-0.288,-23.46,-11.73,35.191
3.8000000000000003,2.874,7.185,0.335,-35.191,-2.299,7.76,0.383,-35.191,2.445,8.916,-0.288,-17.595,-11.73,35.191
3.805,2.97,6.898,0.24,-35.191,-2.395,7.329,0.431,-35.191,2.588,8.628,-0.288,-17.595,-11.73,35.191
3.81,3.114,6.562,0.192,-35.191,-2.587,7.041,0.479,-35.191,2.588,8.484,-0.288,-17.595,-11.73,35.191
3.815,3.161,6.323,0.192,-29.326,-2.682,6.802,0.527,-35.191,2.732,8.197,-0.288,-17.595,-11.73,35.191
3.8200000000000003,3.257,6.131,0.24,-29.326,-2.778,6.562,0.479,-29.326,2.876,7.765,-0.144,-17.595,-11.73,35.191
3.825,3.353,5.94,0.24,-29.326,-2.874,6.323,0.431,-29.326,3.164,7.621,-0.144,-11.73,-5.865,35.191
3.83,3.401,5.7,0.24,-29.326,-2.922,6.035,0.479,-29.326,3.307,7.334,-0.144,-11.73,-5.865,35.191
3.835,3.449,5.365,0.24,-23.46,-2.97,5.7,0.479,-23.46,3.307,7.046,-0.0,-5.865,-5.865,35.191
3.84,3.545,5.077,0.24,-23.46,-3.066,5.461,0.431,-23.46,3.451,6.759,-0.0,-5.865,0.0,35.191
3.845,3.593,4.79,0.335,-17.595,-3.114,5.269,0.383,-17.595,3.451,6.615,-0.0,-5.865,0.0,35.191
3.85,3.593,4.503,0.431,-17.595,-3.161,4.982,0.287,-17.595,3.595,6.471,-0.144,-5.865,0.0,29.326
3.855,3.688,4.311,0.527,-17.595,-3.305,4.742,0.192,-17.595,3.595,6.183,-0.0,-5.865,0.0,29.326
3.86,3.736,4.119,0.623,-11.73,-3.305,4.455,0.096,-11.73,3.739,5.896,-0.0,-5.865,5.865,29.326
3.865,3.736,3.976,0.766,-11.73,-3.353,4.455,-0.048,-5.865,3.883,5.608,-0.0,0.0,5.865,23.46
3.87,3.784,3.832,0.814,-5.865,-3.401,4.407,-0.144,-5.865,3.883,5.177,-0.144,0.0,5.865,23.46
3.875,3.88,3.64,0.814,-5.865,-3.449,4.215,-0.096,-5.865,3.883,5.033,-0.144,0.0,11.73,17.595
3.88,4.024,3.209,0.766,-0.0,-3.497,3.736,-0.048,0.0,4.026,4.745,-0.288,5.865,11.73,17.595
3.8850000000000002,4.119,2.778,0.719,5.865,-3.64,3.305,0.0,5.865,4.026,4.602,-0.431,5.865,11.73,11.73
3.89,4.359,2.395,0.766,11.73,-3.88,2.922,-0.048,11.73,4.026,4.458,-0.575,5.865,17.595,11.73
3.895,4.503,1.916,0.862,11.73,-3.976,2.682,-0.144,17.595,4.026,4.17,-0.719,5.865,17.595,11.73
3.9,4.407,1.293,0.814,23.46,-3.928,2.251,-0.096,17.595,4.17,4.026,-0.575,5.865,17.595,5.865
3.9050000000000002,4.455,0.527,0.719,29.326,-3.88,1.581,-0.048,29.326,4.458,3.595,-0.575,17.595,23.46,5.865
3.91,4.646,0.048,0.719,41.056,-4.072,1.054,0.0,41.056,4.602,3.164,-0.575,17.595,23.46,-5.865
3.915,4.79,-0.287,0.479,52.786,-4.215,0.527,0.24,52.786,4.889,2.732,-0.575,23.46,23.46,-11.73
3.92,4.79,-0.479,0.24,64.516,-4.119,0.096,0.479,64.516,5.033,2.013,-0.575,23.46,29.326,-11.73
3.9250000000000003,4.455,-0.287,0.24,76.246,-3.88,0.048,0.479,76.246,5.033,1.15,-0.575,29.326,29.326,-17.595
3.93,3.832,0.383,0.527,87.977,-3.497,0.575,0.192,87.977,5.177,0.288,-0.431,35.191,35.191,-23.46
3.935,3.401,1.15,1.054,99.707,-3.209,1.341,-0.335,105.572,5.321,-0.144,-0.431,46.921,41.056,-41.056
3.94,2.874,1.82,1.485,111.437,-2.97,2.108,-0.814,111.437,5.608,-0.431,-0.288,52.786,46.921,-52.786
3.9450000000000003,2.203,2.491,1.772,117.302,-2.395,2.922,-1.102,117.302,5.608,-0.288,0.144,64.516,52.786,-64.516
3.95,1.581,3.305,1.82,123.167,-1.772,3.88,-1.198,123.167,5.177,-0.144,0.144,64.516,58.651,-70.381
3.955,1.054,4.455,1.677,123.167,-1.198,5.03,-1.102,123.167,4.314,0.719,-0.288,70.381,64.516,-87.977
3.96,0.575,18.154,7.185,117.302,2.012,3.018,-6.706,123.167,3.595,1.582,-0.719,70.381,70.381,-99.707
3.9650000000000003,-5.7,18.585,3.736,52.786,-1.82,24.142,-2.922,52.786,2.876,2.301,-1.294,70.381,70.381,-111.437
3.97,-10.059,23.95,7.76,-41.056,8.862,24.525,-10.873,-46.921,2.013,2.732,-1.582,70.381,70.381,-117.302
3.975,-13.939,23.95,6.898,-205.279,21.89,13.604,-7.137,-269.795,1.294,3.595,-1.726,70.381,64.516,-117.302
3.98,-9.532,13.891,9.005,-234.604,9.867,2.012,-8.287,-258.064,0.719,4.602,-1.582,76.246,64.516,-117.302
3.985,-2.443,8.718,7.856,-211.144,1.868,6.419,-7.616,-217.009,0.863,47.31,-9.059,76.246,46.921,-117.302
3.99,-0.766,9.197,2.682,-158.358,1.198,6.323,-2.491,-164.223,-12.654,10.929,-4.17,-105.572,41.056,-41.056
3.995,-0.192,12.119,-3.736,-82.111,1.341,8.957,4.167,-87.977,-17.831,28.041,-6.759,29.326,23.46,41.056
4.0,1.868,13.077,-5.221,-11.73,0.096,9.436,6.035,-11.73,-9.059,48.173,-5.464,369.501,-5.865,205.279
4.005,2.73,13.22,-4.934,64.516,-1.916,10.586,5.7,64.516,-11.36,24.59,-8.916,375.366,17.595,234.604
4.01,2.73,15.041,-3.449,117.302,-3.066,11.927,4.167,117.302,-3.883,10.785,-7.765,246.334,23.46,211.144
4.015,2.587,16.621,-2.539,140.762,-3.401,13.077,3.161,140.762,-0.863,11.216,-2.588,181.818,5.865,158.358
4.0200000000000005,2.251,16.478,-1.581,134.897,-3.353,13.843,2.203,134.897,0.144,14.811,4.026,146.628,0.0,82.111
4.025,2.299,15.855,-0.814,105.572,-3.353,15.52,1.245,111.437,2.876,16.106,5.608,111.437,5.865,11.73
4.03,2.06,13.795,-1.437,82.111,-2.347,15.568,1.82,82.111,3.02,15.818,5.321,76.246,17.595,-64.516
4.035,2.922,11.64,-2.73,58.651,-2.347,13.939,3.161,58.651,1.869,18.406,3.595,41.056,23.46,-117.302
4.04,4.024,9.772,-3.64,52.786,-2.682,11.352,4.167,52.786,1.15,20.707,2.588,0.0,17.595,-134.897
4.045,4.359,9.005,-4.503,52.786,-2.156,9.963,5.173,52.786,0.575,19.988,1.726,-41.056,5.865,-129.032
4.05,4.838,9.484,-4.359,46.921,-2.97,10.155,5.125,46.921,0.719,17.256,0.863,-76.246,-17.595,-105.572
4.055,3.88,9.963,-3.401,41.056,-2.012,10.778,4.167,41.056,1.294,13.517,1.726,-93.842,-35.191,-82.111
4.0600000000000005,2.587,10.155,-2.299,41.056,-1.198,11.352,3.018,41.056,3.02,10.929,3.02,-87.977,-46.921,-58.651
4.065,1.916,10.346,-0.287,41.056,-1.006,11.161,1.006,41.056,4.889,9.491,4.026,-70.381,-46.921,-52.786
4.07,1.389,10.394,0.766,41.056,-0.958,11.496,-0.096,41.056,5.896,9.347,4.889,-52.786,-41.056,-52.786
4.075,1.15,10.538,1.533,35.191,-0.766,11.736,-0.91,35.191,6.183,9.922,4.745,-46.921,-29.326,-46.921
4.08,0.91,10.73,1.82,23.46,-0.623,11.64,-1.198,29.326,5.321,10.21,3.739,-41.056,-5.865,-41.056
4.085,0.91,10.825,1.916,17.595,-0.575,11.544,-1.293,17.595,3.451,10.066,2.588,-35.191,11.73,-41.056
4.09,0.91,10.778,1.772,11.73,-0.527,11.448,-1.198,17.595,2.301,10.641,0.575,-29.326,23.46,-41.056
4.095,1.054,10.778,1.485,11.73,-0.479,11.496,-0.862,11.73,1.294,10.497,-0.575,-23.46,29.326,-41.056
4.1,1.102,10.921,1.485,5.865,-0.575,11.304,-0.862,5.865,1.007,10.497,-1.438,-17.595,35.191,-29.326
4.105,0.91,10.969,1.629,-0.0,-0.575,11.257,-1.006,5.865,0.575,10.785,-1.726,-5.865,29.326,-23.46
4.11,0.671,10.873,1.677,-5.865,-0.383,11.257,-1.054,0.0,0.719,11.216,-1.726,0.0,29.326,-17.595
4.115,0.527,10.73,1.677,-5.865,-0.287,11.065,-1.054,-5.865,0.719,11.216,-1.582,5.865,29.326,-11.73
4.12,0.527,10.442,1.533,-5.865,-0.287,10.73,-0.91,-5.865,1.007,11.073,-1.294,5.865,23.46,-11.73
4.125,0.623,10.203,1.389,-5.865,-0.335,10.394,-0.766,-5.865,1.007,11.504,-1.294,5.865,29.326,-5.865
4.13,0.814,10.059,1.15,-5.865,-0.479,10.107,-0.527,-5.865,0.719,11.648,-1.438,5.865,29.326,0.0
4.135,0.91,10.059,0.958,-5.865,-0.479,10.059,-0.287,0.0,0.288,11.36,-1.582,5.865,23.46,5.865
4.14,0.91,10.155,0.766,-0.0,-0.479,10.203,-0.144,0.0,0.144,11.36,-1.582,5.865,23.46,5.865
4.1450000000000005,1.006,10.346,0.671,-0.0,-0.623,10.442,0.0,0.0,0.144,11.073,-1.438,5.865,17.595,5.865
4.15,0.814,10.394,0.814,-0.0,-0.431,10.586,-0.144,0.0,0.288,10.929,-1.294,5.865,17.595,5.865
4.155,0.766,10.346,0.814,-0.0,-0.479,10.538,-0.192,0.0,0.575,10.929,-1.007,5.865,17.595,5.865
4.16,0.671,10.251,0.814,-0.0,-0.335,10.49,-0.192,0.0,0.719,10.929,-0.719,5.865,11.73,5.865
4.165,0.623,10.155,0.766,-0.0,-0.335,10.394,-0.096,0.0,0.863,10.929,-0.575,0.0,11.73,0.0
4.17,0.623,10.203,0.719,-5.865,-0.335,10.442,-0.096,0.0,0.863,11.073,-0.431,0.0,11.73,5.865
4.175,0.623,10.203,0.623,-0.0,-0.24,10.538,0.048,0.0,0.575,11.073,-0.719,-5.865,5.865,0.0
4.18,0.719,10.155,0.527,-0.0,-0.287,10.586,0.144,0.0,0.431,11.073,-0.719,-5.865,5.865,0.0
4.1850000000000005,0.766,10.059,0.431,-5.865,-0.287,10.49,0.192,0.0,0.288,10.929,-0.719,-11.73,5.865,5.865
4.19,0.719,9.867,0.431,-5.865,-0.287,10.299,0.24,-5.865,0.288,10.785,-0.575,-11.73,0.0,5.865
4.195,0.719,9.532,0.479,-5.865,-0.287,10.011,0.192,-5.865,0.431,10.785,-0.575,-17.595,0.0,5.865
4.2,0.766,9.197,0.527,-5.865,-0.335,9.676,0.144,-5.865,0.431,10.785,-0.431,-17.595,0.0,5.865
4.205,0.958,8.957,0.527,-5.865,-0.479,9.341,0.144,-5.865,0.575,10.641,-0.288,-17.595,-5.865,5.865
4.21,1.054,8.909,0.335,-5.865,-0.527,9.341,0.287,-5.865,0.575,10.641,-0.288,-17.595,-5.865,5.865
4.215,1.198,9.053,0.24,-5.865,-0.671,9.484,0.431,-5.865,0.575,10.354,-0.288,-17.595,-5.865,5.865
4.22,1.15,9.101,0.335,-11.73,-0.623,9.58,0.335,-5.865,0.575,9.922,-0.288,-17.595,-5.865,5.865
4.225,1.054,9.005,0.527,-11.73,-0.575,9.532,0.144,-11.73,0.575,9.635,-0.431,-11.73,-5.865,5.865
4.23,1.006,8.862,0.671,-11.73,-0.623,9.388,0.0,-11.73,0.863,9.491,-0.288,-11.73,-5.865,5.865
4.235,1.102,8.814,0.814,-11.73,-0.671,9.341,-0.144,-11.73,1.15,9.491,-0.144,-11.73,-5.865,5.865
4.24,1.198,8.862,0.862,-11.73,-0.766,9.436,-0.192,-11.73,1.15,9.491,-0.144,-11.73,-5.865,5.865
4.245,1.245,8.814,0.814,-17.595,-0.719,9.388,-0.192,-17.595,1.15,9.491,-0.144,-11.73,-5.865,11.73
4.25,1.245,8.67,0.814,-17.595,-0.766,9.197,-0.192,-17.595,1.007,9.347,-0.288,-11.73,-5.865,11.73
4.255,1.341,8.574,1.054,-17.595,-0.91,9.053,-0.383,-17.595,1.007,9.203,-0.575,-5.865,-5.865,11.73
4.26,1.293,8.478,1.293,-11.73,-0.862,8.814,-0.575,-17.595,1.007,9.203,-0.719,-5.865,-5.865,11.73
4.265,1.293,8.383,1.437,-11.73,-0.958,8.766,-0.814,-11.73,1.15,9.203,-0.719,-5.865,-5.865,11.73
4.2700000000000005,1.293,8.287,1.581,-11.73,-1.006,8.574,-0.958,-11.73,1.294,9.203,-0.719,0.0,-5.865,17.595
4.275,1.293,8.191,1.772,-5.865,-1.006,8.383,-1.102,-5.865,1.294,9.059,-0.719,0.0,-5.865,23.46
4.28,1.389,8.239,1.964,-5.865,-1.102,8.43,-1.293,-5.865,1.294,9.059,-0.863,0.0,-5.865,17.595
4.285,1.437,8.526,2.108,-0.0,-1.198,8.766,-1.437,0.0,1.294,8.916,-1.15,5.865,-5.865,17.595
4.29,1.389,8.862,2.156,-0.0,-1.15,9.053,-1.533,0.0,1.294,8.916,-1.294,5.865,-5.865,17.595
4.295,1.389,9.053,2.203,-0.0,-1.054,9.388,-1.533,0.0,1.15,8.772,-1.438,5.865,-5.865,11.73
4.3,1.437,9.005,2.203,-0.0,-1.15,9.388,-1.629,0.0,1.15,8.772,-1.582,5.865,-5.865,11.73
4.305,1.533,8.67,2.156,-0.0,-1.198,9.101,-1.533,5.865,1.294,8.772,-1.869,5.865,-5.865,5.865
4.3100000000000005,1.629,8.718,2.203,5.865,-1.245,9.149,-1.581,5.865,1.294,9.203,-2.013,0.0,-5.865,0.0
4.315,1.724,8.909,2.347,5.865,-1.389,9.388,-1.724,5.865,1.294,9.347,-2.013,0.0,-11.73,5.865
4.32,1.724,9.005,2.299,5.865,-1.341,9.532,-1.677,5.865,1.294,9.491,-2.013,0.0,-11.73,0.0
4.325,1.629,8.766,2.156,-0.0,-1.198,9.436,-1.533,0.0,1.294,9.491,-2.157,0.0,-17.595,0.0
4.33,1.772,8.478,2.06,5.865,-1.341,9.197,-1.389,5.865,1.438,9.059,-2.013,5.865,-17.595,0.0
4.335,2.108,8.43,2.06,11.73,-1.581,9.053,-1.437,11.73,1.582,9.203,-2.013,5.865,-17.595,-5.865
4.34,2.203,8.43,1.964,11.73,-1.677,9.053,-1.341,11.73,1.582,9.347,-2.157,5.865,-17.595,-5.865
4.345,2.251,8.526,1.82,11.73,-1.724,9.197,-1.198,11.73,1.582,9.347,-2.157,5.865,-17.595,0.0
4.3500000000000005,2.251,8.574,1.677,11.73,-1.724,9.293,-1.054,11.73,1.726,8.916,-2.013,5.865,-23.46,0.0
4.355,2.347,8.67,1.629,11.73,-1.772,9.388,-1.006,17.595,1.869,8.628,-1.869,5.865,-23.46,-5.865
4.36,2.443,8.718,1.581,23.46,-1.916,9.388,-0.958,17.595,2.157,8.772,-1.869,17.595,-17.595,-11.73
4.365,2.539,8.766,1.485,23.46,-1.916,9.532,-0.862,23.46,2.301,8.772,-1.869,23.46,-17.595,-11.73
4.37,2.635,8.862,1.485,23.46,-1.964,9.58,-0.862,23.46,2.445,8.772,-1.582,23.46,-17.595,-11.73
4.375,2.73,8.909,1.485,23.46,-2.203,9.484,-0.862,23.46,2.445,8.772,-1.438,29.326,-17.595,-11.73
4.38,2.635,8.814,1.389,23.46,-2.251,9.245,-0.766,23.46,2.588,8.772,-1.438,35.191,-11.73,-11.73
4.385,2.587,9.005,1.437,29.326,-2.156,9.341,-0.814,29.326,2.588,8.916,-1.438,41.056,-11.73,-17.595
4.39,2.682,9.101,1.437,35.191,-2.347,9.436,-0.814,35.191,2.732,8.916,-1.294,46.921,-11.73,-17.595
4.3950000000000005,2.491,9.245,1.389,35.191,-2.156,9.58,-0.766,35.191,2.876,9.059,-1.294,52.786,-11.73,-23.46
4.4,2.395,9.388,1.293,41.056,-2.108,9.82,-0.671,41.056,2.876,9.203,-1.294,52.786,-5.865,-23.46
4.405,2.251,9.58,1.102,41.056,-1.964,9.915,-0.527,41.056,2.732,9.203,-1.15,58.651,-5.865,-23.46
4.41,2.012,9.82,0.958,46.921,-1.724,10.203,-0.383,46.921,2.732,9.491,-1.294,58.651,-5.865,-23.46
4.415,1.724,10.107,0.766,46.921,-1.485,10.682,-0.192,46.921,2.588,9.635,-1.294,64.516,-5.865,-35.191
4.42,1.341,10.394,0.383,46.921,-1.054,11.113,0.192,46.921,2.445,9.778,-1.15,64.516,-5.865,-35.191
4.425,1.054,10.73,-0.096,52.786,-0.719,11.448,0.623,46.921,2.301,9.922,-1.15,64.516,-5.865,-41.056
4.43,0.814,11.161,-0.671,52.786,-0.383,11.831,1.198,52.786,2.157,10.066,-1.007,64.516,-5.865,-41.056
4.4350000000000005,0.575,11.592,-1.245,52.786,-0.048,12.215,1.82,52.786,1.869,10.21,-0.863,64.516,-5.865,-41.056
4.44,0.335,12.023,-1.868,52.786,0.287,12.598,2.395,52.786,1.438,10.497,-0.575,64.516,-5.865,-46.921
4.445,0.096,12.454,-2.395,52.786,0.671,12.981,2.97,52.786,1.15,10.641,-0.144,70.381,-5.865,-46.921
4.45,-0.048,12.789,-2.778,52.786,0.862,13.22,3.353,52.786,0.863,10.929,0.288,76.246,-11.73,-46.921
4.455,-0.096,13.029,-3.018,52.786,0.958,13.364,3.593,52.786,0.719,11.36,0.863,76.246,-11.73,-52.786
4.46,-0.335,13.125,-3.161,46.921,1.102,13.508,3.784,46.921,0.575,11.935,1.438,82.111,-11.73,-52.786
4.465,-0.527,13.125,-3.209,41.056,1.293,13.556,3.832,46.921,0.288,12.367,2.157,82.111,-11.73,-52.786
4.47,-0.671,13.029,-3.209,41.056,1.389,13.46,3.784,41.056,0.0,12.942,2.732,87.977,-11.73,-52.786
4.4750000000000005,-0.862,12.837,-3.066,35.191,1.485,13.316,3.688,41.056,0.0,13.373,3.02,87.977,-5.865,-52.786
4.48,-0.958,12.694,-2.778,35.191,1.437,13.125,3.353,35.191,-0.144,13.661,3.307,87.977,-5.865,-52.786
4.485,-1.006,12.55,-2.539,35.191,1.389,12.837,3.114,35.191,-0.431,13.805,3.451,87.977,0.0,-46.921
4.49,-1.15,12.262,-2.395,35.191,1.485,12.502,2.97,35.191,-0.575,13.805,3.451,87.977,0.0,-41.056
4.495,-1.293,11.975,-2.395,35.191,1.629,12.262,2.97,35.191,-0.863,13.517,3.451,82.111,5.865,-41.056
4.5,-1.341,11.831,-2.491,35.191,1.677,12.167,3.114,35.191,-1.15,13.373,3.307,82.111,5.865,-35.191
4.505,-1.293,11.783,-2.587,35.191,1.772,12.119,3.161,35.191,-1.294,13.373,3.02,82.111,5.865,-35.191
4.51,-1.293,11.879,-2.635,41.056,1.772,12.215,3.257,41.056,-1.438,13.23,2.732,82.111,5.865,-35.191
4.515,-1.245,12.023,-2.682,41.056,1.724,12.406,3.305,41.056,-1.726,12.942,2.588,76.246,5.865,-35.191
4.5200000000000005,-1.293,12.167,-2.778,35.191,1.82,12.646,3.401,35.191,-1.726,12.654,2.588,76.246,5.865,-35.191
4.525,-1.389,12.215,-2.922,35.191,1.868,12.885,3.497,35.191,-1.726,12.367,2.732,76.246,0.0,-35.191
4.53,-1.437,12.071,-3.018,35.191,2.012,12.789,3.593,35.191,-1.582,12.367,2.876,76.246,0.0,-35.191
4.535,-1.341,11.927,-3.066,35.191,1.964,12.646,3.688,35.191,-1.582,12.511,2.876,70.381,0.0,-41.056
4.54,-1.293,11.592,-3.257,29.326,1.964,12.31,3.832,29.326,-1.582,12.654,2.876,70.381,0.0,-41.056
4.545,-1.245,11.209,-3.401,23.46,1.964,11.783,4.024,23.46,-1.582,12.654,3.02,70.381,-5.865,-35.191
4.55,-1.15,11.017,-3.497,23.46,1.916,11.4,4.119,23.46,-1.726,12.654,3.164,70.381,-5.865,-35.191
4.555,-1.15,10.778,-3.88,23.46,1.82,11.257,4.503,23.46,-1.726,12.367,3.307,70.381,-5.865,-35.191
4.5600000000000005,-0.958,10.969,-3.88,23.46,1.916,11.496,4.551,23.46,-1.582,12.223,3.307,70.381,-5.865,-29.326
4.565,-0.91,11.113,-3.976,17.595,1.629,11.783,4.598,17.595,-1.438,12.079,3.595,76.246,-5.865,-23.46
4.57,-1.102,10.921,-3.928,11.73,1.868,11.783,4.503,11.73,-1.294,11.792,3.739,76.246,0.0,-23.46
4.575,-1.198,10.634,-3.928,5.865,1.677,11.736,4.503,5.865,-1.15,11.648,3.739,76.246,0.0,-17.595
4.58,-1.245,10.203,-3.784,-0.0,1.677,11.352,4.359,0.0,-1.15,11.36,4.17,76.246,0.0,-17.595
4.585,-1.198,9.724,-3.64,-5.865,1.485,10.873,4.215,0.0,-0.863,11.504,4.17,76.246,5.865,-17.595
4.59,-1.293,9.293,-3.449,-5.865,1.485,10.394,4.024,0.0,-1.007,11.504,4.314,76.246,11.73,-17.595
4.595,-1.389,9.005,-3.401,-5.865,1.485,9.867,3.976,0.0,-1.15,11.073,4.17,76.246,11.73,-11.73
4.6000000000000005,-1.389,8.957,-3.401,-0.0,1.533,9.484,3.976,0.0,-1.438,10.785,4.17,76.246,17.595,0.0
4.605,-1.389,9.101,-3.497,5.865,1.485,9.293,4.072,5.865,-1.438,10.21,4.026,82.111,17.595,0.0
4.61,-1.341,9.245,-3.832,5.865,1.485,9.197,4.455,5.865,-1.582,9.778,3.883,87.977,17.595,5.865
4.615,-1.15,9.436,-4.072,11.73,1.389,9.436,4.694,11.73,-1.726,9.347,3.739,99.707,11.73,5.865
4.62,-1.102,9.628,-4.407,17.595,1.533,9.58,4.982,17.595,-1.869,9.203,3.739,99.707,11.73,5.865
4.625,-1.054,9.628,-4.646,17.595,1.629,9.724,5.221,23.46,-1.869,9.347,3.739,105.572,5.865,0.0
4.63,-1.15,9.676,-4.79,17.595,1.82,9.82,5.461,17.595,-1.869,9.778,3.739,111.437,0.0,0.0
4.635,-1.198,9.58,-4.982,23.46,1.772,9.963,5.604,17.595,-1.726,10.066,4.026,111.437,0.0,-5.865
4.64,-1.198,9.532,-4.934,23.46,2.06,9.963,5.604,23.46,-1.582,10.354,4.314,105.572,-5.865,-11.73
4.6450000000000005,-1.15,9.005,-5.317,23.46,1.916,9.772,5.94,17.595,-1.294,10.497,4.745,99.707,-5.865,-17.595
4.65,-1.245,9.724,-4.838,5.865,2.156,9.82,5.461,5.865,-1.15,10.497,4.889,93.842,-11.73,-17.595
4.655,-1.868,9.341,-5.125,11.73,2.587,9.676,5.748,11.73,-1.15,10.497,5.033,87.977,-11.73,-17.595
4.66,-1.629,9.724,-4.742,17.595,2.299,10.059,5.413,17.595,-1.294,10.21,5.321,87.977,-5.865,-17.595
4.665,-1.629,9.867,-4.503,11.73,2.156,10.011,5.173,17.595,-1.007,10.066,5.321,82.111,-5.865,-17.595
4.67,-1.916,9.963,-4.455,11.73,2.395,10.059,5.125,11.73,-1.007,9.635,5.608,82.111,0.0,-17.595
4.675,-2.06,10.107,-4.263,5.865,2.443,10.203,4.934,11.73,-1.15,10.354,5.177,82.111,0.0,-5.865
4.68,-2.156,9.963,-4.167,5.865,2.443,10.155,4.79,5.865,-1.869,10.066,5.464,76.246,5.865,-11.73
4.6850000000000005,-2.156,9.867,-3.976,-0.0,2.395,10.155,4.646,0.0,-1.726,10.354,5.033,76.246,11.73,-11.73
4.69,-2.251,9.724,-3.832,-5.865,2.395,10.203,4.455,-5.865,-1.726,10.785,4.745,76.246,11.73,-11.73
4.695,-2.251,9.532,-3.64,-5.865,2.347,10.346,4.215,-5.865,-2.157,10.785,4.745,70.381,17.595,-11.73
4.7,-2.251,9.436,-3.401,-5.865,2.299,10.442,4.024,-5.865,-2.445,10.929,4.458,64.516,17.595,-5.865
4.705,-2.203,9.436,-3.353,-11.73,2.299,10.442,3.928,-11.73,-2.588,10.785,4.314,58.651,11.73,0.0
4.71,-2.156,9.772,-3.161,-11.73,2.347,10.346,3.784,-11.73,-2.732,10.641,4.17,52.786,11.73,0.0
4.715,-2.108,10.346,-3.066,-11.73,2.251,10.203,3.688,-5.865,-2.732,10.21,4.026,52.786,5.865,5.865
4.72,-1.916,11.065,-2.347,-11.73,2.395,9.963,3.018,-5.865,-2.876,9.778,3.883,52.786,5.865,11.73
4.7250000000000005,-2.73,10.586,-3.257,-11.73,1.629,10.49,3.832,-11.73,-2.876,9.491,3.595,52.786,0.0,11.73
4.73,-3.161,9.293,-3.114,-17.595,2.874,11.304,3.688,-23.46,-2.732,9.491,3.595,58.651,-5.865,11.73
4.735,-2.73,9.58,-3.593,-29.326,2.922,10.873,4.024,-29.326,-2.588,10.21,3.307,64.516,-11.73,11.73
4.74,-3.114,8.478,-2.922,-29.326,3.593,10.251,3.497,-29.326,-2.732,11.36,3.307,64.516,-17.595,11.73
4.745,-2.443,9.149,-3.161,-23.46,2.491,10.394,3.784,-23.46,-2.301,12.942,2.588,58.651,-17.595,11.73
4.75,-2.156,9.053,-2.778,-23.46,2.778,9.82,3.353,-23.46,-4.314,11.648,3.307,46.921,-23.46,17.595
4.755,-2.299,9.149,-2.874,-29.326,2.587,9.772,3.449,-29.326,-4.026,8.484,3.307,35.191,-35.191,23.46
4.76,-2.443,9.101,-2.922,-35.191,2.73,9.772,3.497,-35.191,-3.307,9.203,3.739,41.056,-46.921,29.326
4.765,-2.587,8.814,-2.97,-41.056,2.97,9.484,3.545,-41.056,-3.307,7.909,3.164,52.786,-52.786,29.326
4.7700000000000005,-2.347,8.574,-3.018,-41.056,2.874,8.909,3.593,-41.056,-3.02,9.059,3.451,64.516,-52.786,23.46
4.775,-2.156,8.574,-3.018,-41.056,2.635,8.526,3.593,-46.921,-2.301,9.347,3.02,76.246,-52.786,23.46
4.78,-2.347,8.67,-3.066,-41.056,2.635,8.574,3.688,-46.921,-2.732,9.635,3.02,82.111,-58.651,29.326
4.785,-2.491,8.862,-2.97,-46.921,2.73,8.957,3.593,-46.921,-2.876,9.347,3.164,82.111,-58.651,35.191
4.79,-2.539,8.957,-2.922,-46.921,2.778,9.293,3.497,-52.786,-2.876,9.203,3.307,87.977,-58.651,41.056
4.795,-2.635,8.909,-3.018,-52.786,2.73,9.388,3.593,-52.786,-2.588,9.203,3.307,87.977,-64.516,41.056
4.8,-2.682,8.957,-3.114,-52.786,2.826,9.484,3.688,-52.786,-2.445,9.635,3.307,87.977,-64.516,46.921
4.805,-2.778,9.005,-3.209,-58.651,2.874,9.532,3.784,-58.651,-2.732,9.635,3.307,82.111,-64.516,46.921
4.8100000000000005,-2.874,8.957,-3.353,-58.651,3.066,9.388,3.928,-58.651,-2.876,9.635,3.164,76.246,-64.516,46.921
4.815,-2.874,9.005,-3.497,-58.651,3.114,9.293,4.072,-64.516,-3.02,9.491,3.164,70.381,-70.381,52.786
4.82,-2.874,8.957,-3.593,-58.651,3.209,9.293,4.167,-64.516,-3.164,9.491,3.164,64.516,-70.381,52.786
4.825,-2.874,8.909,-3.688,-64.516,3.209,9.245,4.263,-64.516,-3.307,9.347,3.307,64.516,-76.246,52.786
4.83,-2.874,8.862,-3.736,-64.516,3.257,9.197,4.311,-64.516,-3.307,9.491,3.451,64.516,-82.111,58.651
4.835,-2.826,8.718,-3.784,-64.516,3.209,9.053,4.359,-70.381,-3.307,9.491,3.595,64.516,-87.977,58.651
4.84,-2.778,8.574,-3.784,-70.381,3.257,8.909,4.407,-70.381,-3.307,9.635,3.739,58.651,-93.842,64.516
4.845,-2.778,8.478,-3.784,-70.381,3.209,8.766,4.407,-70.381,-3.307,9.635,3.883,58.651,-93.842,58.651
4.8500000000000005,-2.73,8.43,-3.736,-70.381,3.209,8.766,4.359,-76.246,-3.307,9.635,3.883,52.786,-93.842,64.516
4.855,-2.73,8.287,-3.688,-70.381,3.161,8.67,4.263,-76.246,-3.164,9.491,4.026,52.786,-99.707,64.516
4.86,-2.682,8.239,-3.545,-76.246,3.114,8.574,4.119,-76.246,-3.164,9.347,4.026,46.921,-99.707,70.381
4.865,-2.682,8.143,-3.353,-76.246,3.066,8.478,3.976,-76.246,-3.02,9.203,4.17,46.921,-99.707,70.381
4.87,-2.682,7.951,-3.161,-76.246,3.018,8.335,3.784,-82.111,-3.02,9.059,4.026,41.056,-105.572,70.381
4.875,-2.682,7.808,-2.97,-82.111,2.97,8.239,3.593,-87.977,-2.876,9.059,4.026,41.056,-105.572,70.381
4.88,-2.778,7.616,-2.874,-87.977,2.97,8.191,3.449,-87.977,-3.02,8.916,4.026,35.191,-105.572,76.246
4.885,-2.778,7.472,-2.778,-87.977,2.97,8.143,3.353,-93.842,-3.02,8.916,3.739,29.326,-105.572,76.246
4.89,-2.682,7.329,-2.778,-87.977,2.874,8.095,3.305,-93.842,-3.02,8.772,3.595,29.326,-105.572,76.246
4.8950000000000005,-2.635,7.329,-2.778,-93.842,2.778,8.095,3.353,-93.842,-3.02,8.628,3.451,29.326,-111.437,82.111
4.9,-2.587,7.329,-2.874,-93.842,2.778,8.047,3.449,-99.707,-3.02,8.34,3.307,23.46,-111.437,82.111
4.905,-2.491,7.281,-3.018,-99.707,2.682,7.808,3.593,-99.707,-3.164,8.053,3.164,23.46,-111.437,87.977
4.91,-2.443,7.185,-3.209,-99.707,2.682,7.568,3.736,-99.707,-3.164,7.765,3.02,23.46,-117.302,87.977
4.915,-2.395,7.137,-3.353,-99.707,2.635,7.52,3.88,-99.707,-3.164,7.621,3.02,23.46,-117.302,93.842
4.92,-2.251,7.089,-3.449,-93.842,2.587,7.425,4.024,-99.707,-3.02,7.621,3.02,23.46,-123.167,93.842
4.925,-2.156,7.137,-3.64,-93.842,2.491,7.377,4.215,-99.707,-3.02,7.621,3.164,23.46,-123.167,93.842
4.93,-2.156,7.089,-3.832,-93.842,2.587,7.281,4.407,-99.707,-2.876,7.765,3.307,23.46,-129.032,99.707
4.9350000000000005,-2.06,7.041,-3.976,-93.842,2.635,7.233,4.551,-99.707,-2.876,7.765,3.451,23.46,-129.032,99.707
4.94,-1.964,6.993,-4.024,-87.977,2.539,7.281,4.646,-93.842,-2.732,7.621,3.595,23.46,-134.897,99.707
4.945,-1.916,6.898,-4.167,-87.977,2.587,7.137,4.742,-93.842,-2.588,7.765,3.739,17.595,-134.897,99.707
4.95,-1.916,6.898,-4.119,-87.977,2.587,7.137,4.742,-93.842,-2.445,7.765,4.026,17.595,-140.762,99.707
4.955,-1.868,6.802,-4.119,-87.977,2.539,7.137,4.694,-87.977,-2.301,7.765,4.17,5.865,-140.762,93.842
4.96,-1.868,6.706,-3.976,-82.111,2.491,7.137,4.598,-87.977,-2.157,7.765,4.314,5.865,-140.762,93.842
4.965,-1.82,6.706,-3.784,-82.111,2.347,7.137,4.407,-87.977,-2.013,7.621,4.458,0.0,-140.762,93.842
4.97,-1.868,6.706,-3.545,-82.111,2.347,7.089,4.167,-87.977,-1.869,7.621,4.458,0.0,-140.762,87.977
4.9750000000000005,-1.868,6.562,-3.305,-82.111,2.299,6.946,3.928,-87.977,-1.869,7.621,4.458,-5.865,-134.897,87.977
4.98,-1.964,6.514,-3.161,-82.111,2.347,6.946,3.784,-87.977,-1.869,7.478,4.458,-11.73,-134.897,87.977
4.985,-2.012,6.514,-3.161,-82.111,2.395,7.041,3.736,-87.977,-1.869,7.334,4.314,-11.73,-129.032,87.977
4.99,-1.964,6.514,-3.161,-82.111,2.347,7.137,3.736,-87.977,-1.869,7.19,4.17,-17.595,-129.032,87.977
4.995,-2.012,6.658,-3.209,-82.111,2.491,7.185,3.736,-87.977,-1.869,7.19,3.883,-17.595,-129.032,87.977
5.0,-2.012,6.802,-3.161,-82.111,2.539,7.185,3.736,-87.977,-2.013,7.19,3.595,-23.46,-129.032,87.977
5.005,-2.06,6.993,-3.114,-82.111,2.491,7.425,3.688,-87.977,-2.157,7.046,3.451,-23.46,-129.032,87.977
5.01,-2.203,7.137,-3.018,-87.977,2.587,7.616,3.593,-87.977,-2.301,6.902,3.451,-23.46,-129.032,82.111
5.015,-2.203,7.329,-2.922,-87.977,2.587,7.856,3.449,-93.842,-2.157,6.902,3.451,-23.46,-129.032,87.977
5.0200000000000005,-2.203,7.377,-2.826,-87.977,2.491,7.951,3.353,-93.842,-2.157,7.046,3.595,-23.46,-129.032,87.977
5.025,-2.203,7.281,-2.826,-93.842,2.587,7.808,3.353,-93.842,-2.157,7.334,3.451,-23.46,-129.032,87.977
5.03,-2.203,7.185,-2.922,-93.842,2.587,7.712,3.449,-99.707,-2.157,7.478,3.451,-29.326,-129.032,87.977
5.035,-2.108,7.089,-3.018,-93.842,2.491,7.664,3.545,-99.707,-2.445,7.621,3.307,-29.326,-129.032,87.977
5.04,-2.012,6.993,-3.114,-93.842,2.395,7.616,3.64,-99.707,-2.445,7.765,3.164,-29.326,-129.032,87.977
5.045,-1.916,6.946,-3.257,-93.842,2.251,7.52,3.832,-93.842,-2.445,7.765,3.164,-29.326,-129.032,93.842
5.05,-1.82,6.993,-3.401,-93.842,2.203,7.472,3.928,-93.842,-2.445,7.765,3.164,-29.326,-129.032,93.842
5.055,-1.724,7.185,-3.545,-87.977,2.06,7.52,4.072,-93.842,-2.445,7.621,3.164,-35.191,-129.032,93.842
5.0600000000000005,-1.629,7.281,-3.64,-87.977,2.06,7.616,4.215,-93.842,-2.301,7.478,3.307,-35.191,-129.032,93.842
5.065,-1.581,7.377,-3.784,-82.111,1.964,7.712,4.359,-87.977,-2.301,7.334,3.451,-35.191,-129.032,93.842
5.07,-1.485,7.425,-3.832,-82.111,1.868,7.76,4.359,-82.111,-2.157,7.334,3.595,-35.191,-129.032,93.842
5.075,-1.485,7.568,-3.832,-76.246,1.82,7.951,4.359,-82.111,-2.013,7.478,3.739,-35.191,-134.897,93.842
5.08,-1.533,7.712,-3.832,-76.246,1.868,8.143,4.407,-82.111,-1.869,7.765,3.883,-35.191,-134.897,93.842
5.085,-1.533,7.904,-3.832,-76.246,1.868,8.383,4.407,-76.246,-1.869,7.765,4.026,-35.191,-134.897,87.977
5.09,-1.533,8.239,-3.928,-76.246,1.868,8.766,4.407,-76.246,-1.726,7.909,4.17,-41.056,-134.897,87.977
5.095,-1.485,8.478,-4.024,-76.246,1.868,9.149,4.503,-76.246,-1.726,7.909,4.17,-41.056,-134.897,82.111
5.1000000000000005,-1.485,8.718,-4.119,-76.246,1.868,9.388,4.598,-76.246,-1.726,8.053,4.17,-41.056,-134.897,82.111
5.105,-1.485,8.814,-4.311,-76.246,1.868,9.436,4.79,-82.111,-1.726,8.197,4.17,-46.921,-134.897,82.111
5.11,-1.533,9.053,-4.503,-76.246,1.964,9.58,4.982,-82.111,-1.726,8.34,4.17,-46.921,-134.897,76.246
5.115,-1.533,9.293,-4.79,-76.246,1.964,9.82,5.269,-82.111,-1.726,8.628,4.314,-46.921,-134.897,76.246
5.12,-1.485,9.628,-5.077,-76.246,2.012,10.155,5.556,-82.111,-1.726,8.772,4.314,-46.921,-140.762,76.246
5.125,-1.485,9.772,-5.461,-76.246,2.012,10.49,5.94,-82.111,-1.726,9.059,4.458,-46.921,-140.762,76.246
5.13,-1.437,10.011,-5.796,-76.246,2.06,10.73,6.323,-82.111,-1.726,9.203,4.745,-46.921,-140.762,76.246
5.135,-1.389,10.251,-6.083,-76.246,2.06,10.921,6.61,-76.246,-1.726,9.491,4.889,-46.921,-140.762,76.246
5.14,-1.389,10.442,-6.323,-76.246,2.156,10.969,6.898,-76.246,-1.726,9.778,5.177,-46.921,-140.762,76.246
5.1450000000000005,-1.341,10.49,-6.514,-76.246,2.203,10.969,7.089,-76.246,-1.582,10.066,5.464,-46.921,-140.762,76.246
5.15,-1.245,10.442,-6.61,-70.381,2.156,10.921,7.185,-76.246,-1.726,10.066,5.896,-46.921,-140.762,76.246
5.155,-1.198,10.299,-6.562,-70.381,2.108,10.825,7.137,-76.246,-1.582,10.354,6.183,-46.921,-140.762,76.246
5.16,-1.15,9.963,-6.371,-70.381,2.06,10.538,6.993,-76.246,-1.438,10.641,6.471,-46.921,-134.897,76.246
5.165,-1.054,9.58,-6.083,-70.381,1.916,10.251,6.706,-76.246,-1.438,10.929,6.759,-46.921,-134.897,76.246
5.17,-1.006,9.197,-5.7,-70.381,1.772,9.772,6.323,-76.246,-1.294,11.073,7.046,-46.921,-129.032,76.246
5.175,-0.958,8.814,-5.173,-70.381,1.677,9.341,5.796,-70.381,-1.15,11.073,7.046,-46.921,-129.032,76.246
5.18,-1.006,8.43,-4.742,-64.516,1.485,8.862,5.365,-70.381,-1.007,10.785,7.046,-52.786,-123.167,76.246
5.1850000000000005,-0.91,8.191,-4.311,-64.516,1.341,8.478,4.934,-64.516,-1.007,10.497,6.759,-52.786,-117.302,76.246
5.19,-0.958,7.999,-3.832,-58.651,1.245,8.335,4.455,-64.516,-1.007,9.922,6.471,-52.786,-111.437,70.381
5.195,-1.102,7.999,-3.449,-52.786,1.245,8.287,4.024,-58.651,-1.007,9.635,6.04,-52.786,-105.572,76.246
5.2,-1.15,8.095,-3.066,-46.921,1.198,8.43,3.64,-52.786,-1.007,9.203,5.608,-52.786,-105.572,70.381
5.205,-1.102,8.191,-2.826,-41.056,1.102,8.622,3.353,-46.921,-1.007,8.916,5.033,-52.786,-99.707,70.381
5.21,-1.198,8.287,-2.778,-41.056,1.15,8.766,3.305,-41.056,-1.15,8.772,4.602,-52.786,-99.707,64.516
5.215,-1.245,8.478,-2.826,-35.191,1.198,9.053,3.353,-41.056,-1.294,8.628,4.17,-52.786,-99.707,64.516
5.22,-1.245,8.718,-2.922,-35.191,1.245,9.245,3.401,-35.191,-1.438,8.628,3.739,-58.651,-99.707,58.651
5.2250000000000005,-1.245,8.862,-3.209,-29.326,1.389,9.436,3.688,-35.191,-1.582,8.628,3.307,-58.651,-99.707,52.786
5.23,-1.198,9.005,-3.449,-29.326,1.389,9.628,3.928,-35.191,-1.726,8.628,3.164,-58.651,-105.572,46.921
5.235,-1.15,9.053,-3.736,-23.46,1.437,9.724,4.167,-29.326,-1.726,8.628,3.02,-58.651,-111.437,41.056
5.24,-1.102,9.053,-3.928,-23.46,1.485,9.82,4.359,-29.326,-1.726,8.772,3.164,-64.516,-117.302,35.191
5.245,-1.102,9.053,-4.072,-29.326,1.437,9.915,4.551,-29.326,-1.869,9.059,3.164,-58.651,-123.167,35.191
5.25,-1.054,9.053,-4.167,-29.326,1.437,9.963,4.646,-29.326,-1.726,9.203,3.595,-58.651,-129.032,29.326
5.255,-1.006,9.005,-4.263,-29.326,1.389,9.867,4.79,-29.326,-1.726,9.347,3.739,-58.651,-129.032,29.326
5.26,-0.958,8.862,-4.407,-29.326,1.341,9.628,4.934,-35.191,-1.438,9.347,4.026,-58.651,-134.897,29.326
5.265,-0.814,8.67,-4.598,-29.326,1.245,9.388,5.077,-35.191,-1.438,9.347,4.314,-52.786,-134.897,29.326
5.2700000000000005,-0.671,8.574,-4.742,-35.191,1.054,9.197,5.221,-35.191,-1.438,9.203,4.458,-52.786,-140.762,29.326
5.275,-0.527,8.287,-4.838,-35.191,0.91,8.718,5.365,-35.191,-1.294,9.203,4.602,-46.921,-140.762,29.326
5.28,-0.335,8.143,-4.886,-35.191,0.862,8.478,5.413,-35.191,-1.294,9.203,4.745,-46.921,-140.762,29.326
5.285,-0.144,7.904,-4.982,-35.191,0.575,8.095,5.509,-35.191,-1.15,9.203,4.889,-41.056,-140.762,29.326
5.29,-0.096,7.712,-4.838,-29.326,0.575,7.999,5.365,-35.191,-1.007,9.059,5.033,-41.056,-140.762,35.191
5.295,0.0,7.472,-4.79,-29.326,0.431,7.712,5.317,-35.191,-0.863,8.916,5.177,-35.191,-140.762,35.191
5.3,0.144,7.281,-4.551,-29.326,0.24,7.568,5.125,-29.326,-0.719,8.772,5.177,-35.191,-140.762,35.191
5.305,0.192,7.089,-4.215,-23.46,0.144,7.425,4.79,-29.326,-0.431,8.772,5.321,-35.191,-140.762,35.191
5.3100000000000005,0.287,6.946,-3.928,-23.46,-0.096,7.377,4.455,-29.326,-0.288,8.628,5.321,-41.056,-140.762,35.191
5.315,0.24,6.85,-3.64,-23.46,-0.144,7.281,4.167,-23.46,-0.144,8.484,5.321,-41.056,-140.762,35.191
5.32,0.287,6.802,-3.401,-17.595,-0.24,7.233,3.928,-23.46,0.0,8.197,5.177,-46.921,-140.762,35.191
5.325,0.335,6.754,-3.257,-17.595,-0.287,7.233,3.736,-23.46,0.0,7.909,4.889,-46.921,-140.762,29.326
5.33,0.383,6.658,-3.161,-17.595,-0.335,7.089,3.64,-17.595,0.144,7.621,4.602,-46.921,-140.762,29.326
5.335,0.479,6.706,-3.161,-11.73,-0.431,7.137,3.593,-17.595,0.0,7.334,4.314,-52.786,-140.762,23.46
5.34,0.479,6.802,-3.209,-11.73,-0.431,7.281,3.64,-17.595,-0.144,7.334,4.026,-52.786,-140.762,23.46
5.345,0.527,6.898,-3.305,-11.73,-0.431,7.425,3.736,-17.595,0.0,7.334,3.739,-52.786,-146.628,23.46
5.3500000000000005,0.479,6.946,-3.401,-11.73,-0.383,7.52,3.832,-11.73,0.0,7.19,3.595,-52.786,-146.628,23.46
5.355,0.527,7.089,-3.497,-5.865,-0.383,7.568,3.928,-11.73,0.0,7.19,3.595,-52.786,-152.493,17.595
5.36,0.527,7.233,-3.593,-5.865,-0.335,7.808,4.024,-5.865,0.144,7.19,3.595,-52.786,-158.358,17.595
5.365,0.527,7.329,-3.832,-0.0,-0.24,7.951,4.215,-5.865,0.144,7.19,3.595,-52.786,-158.358,17.595
5.37,0.479,7.52,-4.072,-0.0,-0.144,8.143,4.455,-5.865,0.144,7.19,3.739,-46.921,-164.223,17.595
5.375,0.479,7.712,-4.167,-0.0,-0.048,8.335,4.598,0.0,0.144,7.334,3.883,-46.921,-164.223,11.73
5.38,0.431,7.856,-4.263,-0.0,0.0,8.43,4.694,0.0,0.144,7.478,3.883,-46.921,-170.088,11.73
5.385,0.383,7.951,-4.311,5.865,0.096,8.526,4.742,0.0,0.288,7.621,4.026,-46.921,-170.088,5.865
5.39,0.383,8.047,-4.359,5.865,0.144,8.622,4.79,0.0,0.288,7.621,4.314,-41.056,-175.953,5.865
5.3950000000000005,0.335,8.095,-4.311,-0.0,0.192,8.718,4.742,0.0,0.288,7.765,4.458,-41.056,-175.953,0.0
5.4,0.287,8.143,-4.263,-0.0,0.287,8.718,4.742,0.0,0.288,8.053,4.602,-41.056,-175.953,0.0
5.405,0.24,8.095,-4.215,-0.0,0.335,8.718,4.646,0.0,0.431,8.197,4.745,-41.056,-175.953,0.0
5.41,0.192,8.095,-4.119,-0.0,0.383,8.67,4.551,-5.865,0.431,8.34,4.745,-35.191,-175.953,0.0
5.415,0.192,7.999,-3.976,-5.865,0.383,8.622,4.455,-5.865,0.431,8.484,4.745,-35.191,-175.953,0.0
5.42,0.144,7.856,-3.88,-5.865,0.431,8.526,4.359,-11.73,0.288,8.484,4.745,-29.326,-175.953,0.0
5.425,0.144,7.76,-3.688,-11.73,0.431,8.478,4.167,-11.73,0.288,8.484,4.745,-29.326,-175.953,0.0
5.43,0.096,7.616,-3.545,-11.73,0.431,8.335,4.024,-11.73,0.144,8.484,4.745,-29.326,-170.088,0.0
5.4350000000000005,0.048,7.472,-3.353,-11.73,0.431,8.191,3.832,-11.73,0.288,8.484,4.602,-29.326,-170.088,5.865
5.44,0.0,7.329,-3.161,-17.595,0.479,8.047,3.64,-17.595,0.288,8.34,4.458,-23.46,-170.088,5.865
5.445,-0.096,7.329,-3.018,-17.595,0.479,7.951,3.497,-17.595,0.144,8.197,4.314,-23.46,-170.088,5.865
5.45,-0.096,7.281,-2.922,-17.595,0.527,7.808,3.401,-17.595,0.144,8.053,4.17,-23.46,-164.223,11.73
5.455,-0.096,7.233,-2.874,-17.595,0.527,7.76,3.353,-23.46,0.144,7.909,3.883,-17.595,-164.223,11.73
5.46,-0.144,7.185,-2.826,-17.595,0.575,7.664,3.305,-23.46,0.0,7.765,3.739,-17.595,-164.223,17.595
5.465,-0.096,7.137,-2.826,-17.595,0.575,7.616,3.305,-23.46,-0.144,7.621,3.595,-11.73,-164.223,17.595
5.47,-0.048,7.137,-2.778,-17.595,0.575,7.568,3.257,-23.46,-0.144,7.621,3.451,-11.73,-158.358,17.595
5.4750000000000005,0.0,7.137,-2.682,-17.595,0.575,7.616,3.209,-23.46,-0.144,7.765,3.307,-11.73,-164.223,23.46
5.48,0.0,7.185,-2.587,-17.595,0.575,7.712,3.114,-17.595,-0.288,7.621,3.307,-5.865,-164.223,23.46
5.485,0.0,7.233,-2.491,-17.595,0.575,7.76,2.97,-17.595,-0.144,7.621,3.164,-5.865,-164.223,23.46
5.49,0.0,7.281,-2.347,-17.595,0.575,7.808,2.826,-17.595,-0.144,7.621,3.164,-5.865,-164.223,23.46
5.495,0.0,7.281,-2.156,-17.595,0.575,7.856,2.682,-23.46,0.0,7.621,3.164,-5.865,-164.223,23.46
5.5,-0.048,7.329,-1.964,-17.595,0.575,7.904,2.443,-17.595,0.0,7.621,3.164,-5.865,-158.358,23.46
5.505,-0.096,7.377,-1.772,-17.595,0.575,7.904,2.299,-17.595,0.0,7.621,3.02,-5.865,-158.358,23.46
5.51,-0.144,7.568,-1.533,-17.595,0.575,8.095,2.06,-17.595,0.0,7.621,2.876,-5.865,-158.358,23.46
5.515,-0.144,7.616,-1.341,-17.595,0.527,8.191,1.916,-17.595,0.0,7.621,2.732,-5.865,-152.493,23.46
5.5200000000000005,-0.096,7.616,-1.245,-17.595,0.479,8.287,1.772,-23.46,0.0,7.621,2.588,0.0,-152.493,17.595
5.525,-0.144,7.568,-1.15,-17.595,0.479,8.239,1.677,-23.46,0.0,7.621,2.301,0.0,-152.493,17.595
5.53,-0.192,7.52,-1.102,-17.595,0.527,8.143,1.581,-23.46,-0.144,7.765,2.157,0.0,-152.493,17.595
5.535,-0.24,7.472,-1.054,-17.595,0.575,8.047,1.581,-23.46,-0.288,7.909,1.869,0.0,-152.493,17.595
5.54,-0.24,7.52,-1.102,-17.595,0.575,7.999,1.581,-23.46,-0.288,7.909,1.726,0.0,-146.628,17.595
5.545,-0.287,7.616,-1.198,-17.595,0.671,8.047,1.677,-23.46,-0.288,7.909,1.582,5.865,-152.493,23.46
5.55,-0.287,7.808,-1.293,-17.595,0.671,8.143,1.772,-17.595,-0.288,7.909,1.438,5.865,-152.493,23.46
5.555,-0.287,7.999,-1.389,-11.73,0.719,8.335,1.916,-17.595,-0.431,7.765,1.438,5.865,-152.493,23.46
5.5600000000000005,-0.287,8.191,-1.533,-11.73,0.766,8.478,2.06,-11.73,-0.431,7.765,1.438,5.865,-152.493,23.46
5.565,-0.335,8.43,-1.724,-5.865,0.814,8.67,2.203,-11.73,-0.431,7.909,1.438,5.865,-152.493,23.46
5.57,-0.431,8.622,-1.82,-5.865,0.91,8.814,2.347,-5.865,-0.431,8.053,1.582,5.865,-152.493,23.46
5.575,-0.431,8.862,-1.964,-0.0,1.006,8.957,2.443,-5.865,-0.431,8.34,1.582,5.865,-158.358,17.595
5.58,-0.431,9.053,-2.06,-0.0,1.054,9.197,2.587,0.0,-0.431,8.628,1.726,5.865,-158.358,11.73
5.585,-0.479,9.388,-2.251,-0.0,1.15,9.58,2.73,0.0,-0.431,8.772,1.869,5.865,-158.358,11.73
5.59,-0.479,9.676,-2.299,5.865,1.245,9.963,2.826,0.0,-0.431,9.059,2.013,5.865,-158.358,11.73
5.595,-0.431,9.915,-2.347,-0.0,1.245,10.394,2.826,0.0,-0.575,9.347,2.157,5.865,-158.358,5.865
5.6000000000000005,-0.431,10.011,-2.347,-0.0,1.245,10.586,2.874,0.0,-0.575,9.635,2.301,5.865,-158.358,5.865
5.605,-0.383,10.059,-2.347,-5.865,1.245,10.778,2.874,-5.865,-0.431,9.778,2.445,5.865,-152.493,0.0
5.61,-0.335,10.059,-2.251,-5.865,1.198,10.873,2.778,-5.865,-0.431,10.066,2.588,0.0,-152.493,0.0
5.615,-0.192,10.011,-2.156,-11.73,1.054,10.825,2.682,-11.73,-0.431,10.354,2.732,0.0,-152.493,0.0
5.62,-0.144,10.011,-2.06,-17.595,0.958,10.682,2.587,-17.595,-0.288,10.497,2.732,-5.865,-146.628,0.0
5.625,-0.048,9.915,-1.964,-17.595,0.814,10.73,2.539,-17.595,-0.288,10.497,2.732,-5.865,-146.628,0.0
5.63,0.048,9.724,-1.916,-23.46,0.719,10.586,2.443,-29.326,-0.288,10.497,2.732,-5.865,-140.762,5.865
5.635,0.192,9.484,-1.772,-29.326,0.527,10.299,2.347,-35.191,-0.288,10.354,2.588,0.0,-134.897,5.865
5.64,0.24,9.197,-1.677,-29.326,0.479,9.915,2.203,-35.191,-0.144,10.354,2.445,0.0,-134.897,11.73
5.6450000000000005,0.24,8.957,-1.533,-35.191,0.431,9.58,2.108,-35.191,0.0,10.354,2.445,5.865,-129.032,17.595
5.65,0.287,8.766,-1.437,-35.191,0.335,9.341,2.012,-35.191,0.0,10.21,2.301,5.865,-129.032,23.46
5.655,0.24,8.67,-1.389,-29.326,0.287,9.101,1.964,-35.191,0.144,9.922,2.301,5.865,-123.167,23.46
5.66,0.24,8.622,-1.341,-29.326,0.24,8.957,1.916,-29.326,0.288,9.778,2.157,5.865,-123.167,29.326
5.665,0.287,8.622,-1.341,-23.46,0.192,8.814,1.916,-29.326,0.288,9.491,2.013,17.595,-117.302,29.326
5.67,0.192,8.67,-1.389,-23.46,0.192,8.718,1.964,-23.46,0.288,9.347,1.869,23.46,-117.302,35.191
5.675,0.144,8.718,-1.533,-17.595,0.287,8.814,2.06,-17.595,0.288,9.203,1.726,23.46,-111.437,35.191
5.68,0.096,8.862,-1.677,-11.73,0.335,9.053,2.251,-17.595,0.144,9.203,1.726,23.46,-111.437,35.191
5.6850000000000005,0.096,9.053,-1.82,-5.865,0.383,9.293,2.395,-11.73,0.144,9.203,1.582,23.46,-111.437,29.326
5.69,0.0,9.245,-1.916,-5.865,0.479,9.484,2.491,-5.865,0.144,9.203,1.582,23.46,-105.572,29.326
5.695,-0.192,9.436,-2.012,-0.0,0.671,9.676,2.587,0.0,0.0,9.347,1.726,23.46,-111.437,23.46
5.7,-0.287,9.676,-2.108,-0.0,0.766,9.915,2.682,0.0,0.0,9.491,1.726,17.595,-111.437,17.595
5.705,-0.383,9.82,-2.108,5.865,0.862,10.155,2.635,5.865,0.0,9.491,2.013,17.595,-111.437,17.595
5.71,-0.479,9.82,-2.06,5.865,0.958,10.203,2.635,5.865,0.0,9.635,2.157,5.865,-111.437,11.73
5.715,-0.623,9.724,-1.964,11.73,1.102,10.203,2.539,5.865,-0.144,9.922,2.157,5.865,-111.437,5.865
5.72,-0.766,9.676,-1.868,5.865,1.198,10.203,2.395,5.865,-0.288,10.066,2.301,5.865,-111.437,0.0
5.7250000000000005,-0.91,9.628,-1.724,11.73,1.245,10.251,2.251,11.73,-0.431,10.354,2.445,5.865,-111.437,0.0
5.73,-1.054,9.628,-1.581,11.73,1.293,10.251,2.108,11.73,-0.575,10.354,2.445,5.865,-111.437,0.0
5.735,-1.198,9.676,-1.485,11.73,1.389,10.203,2.06,11.73,-0.719,10.354,2.301,5.865,-111.437,-5.865
5.74,-1.198,9.772,-1.485,11.73,1.389,10.251,2.012,11.73,-0.863,10.21,2.301,5.865,-105.572,-5.865
5.745,-1.198,9.867,-1.533,17.595,1.437,10.442,2.06,17.595,-1.007,10.066,2.157,5.865,-111.437,-5.865
5.75,-1.245,10.059,-1.629,23.46,1.485,10.682,2.156,17.595,-1.15,9.922,2.013,5.865,-111.437,-5.865
5.755,-1.245,10.251,-1.677,23.46,1.485,10.825,2.203,17.595,-1.438,9.922,1.869,5.865,-111.437,-11.73
5.76,-1.245,10.49,-1.724,23.46,1.485,11.017,2.203,17.595,-1.582,10.066,1.726,5.865,-111.437,-11.73
5.765,-1.293,10.73,-1.82,23.46,1.533,11.209,2.299,23.46,-1.582,10.21,1.726,5.865,-117.302,-11.73
5.7700000000000005,-1.341,10.921,-1.964,23.46,1.629,11.4,2.443,23.46,-1.726,10.21,1.726,5.865,-117.302,-17.595
5.775,-1.437,11.113,-2.108,23.46,1.724,11.736,2.587,23.46,-1.726,10.354,1.869,5.865,-123.167,-17.595
5.78,-1.581,11.496,-2.443,23.46,1.964,12.167,2.874,23.46,-1.726,10.641,2.013,5.865,-123.167,-17.595
5.785,-1.724,11.879,-2.73,23.46,2.156,12.502,3.161,23.46,-1.726,10.929,2.013,5.865,-129.032,-17.595
5.79,-1.772,12.358,-3.018,23.46,2.299,12.837,3.449,17.595,-1.726,11.216,2.157,17.595,-129.032,-23.46
5.795,-1.772,12.837,-3.257,23.46,2.443,13.173,3.736,17.595,-1.726,11.36,2.301,17.595,-134.897,-23.46
5.8,-1.772,13.22,-3.497,17.595,2.539,13.46,3.976,17.595,-1.869,11.504,2.445,17.595,-140.762,-23.46
5.805,-1.724,13.46,-3.64,11.73,2.587,13.747,4.167,11.73,-2.013,11.792,2.732,17.595,-140.762,-23.46
5.8100000000000005,-1.629,13.508,-3.784,5.865,2.635,13.987,4.263,5.865,-2.157,12.223,3.02,23.46,-140.762,-23.46
5.815,-1.533,13.46,-3.784,-0.0,2.587,14.131,4.311,0.0,-2.013,12.798,3.307,23.46,-146.628,-17.595
5.82,-1.485,13.268,-3.688,-5.865,2.491,14.178,4.215,-11.73,-2.013,13.517,3.595,23.46,-146.628,-17.595
5.825,-1.389,12.885,-3.449,-17.595,2.395,13.843,3.976,-17.595,-1.869,13.949,3.883,23.46,-146.628,-17.595
5.83,-1.389,12.406,-3.209,-23.46,2.299,13.316,3.736,-23.46,-1.726,14.236,4.026,23.46,-140.762,-11.73
5.835,-1.437,11.783,-2.97,-35.191,2.203,12.646,3.545,-35.191,-1.582,14.092,4.17,17.595,-140.762,-5.865
5.84,-1.485,11.257,-2.778,-35.191,2.251,12.023,3.305,-41.056,-1.438,13.949,4.17,5.865,-134.897,5.865
5.845,-1.485,10.73,-2.682,-41.056,2.156,11.4,3.209,-41.056,-1.438,13.517,4.026,5.865,-129.032,11.73
5.8500000000000005,-1.533,10.251,-2.539,-41.056,2.203,10.873,3.114,-46.921,-1.294,13.23,3.739,17.595,-129.032,17.595
5.855,-1.677,10.011,-2.395,-41.056,2.156,10.538,2.97,-46.921,-1.438,12.654,3.595,23.46,-123.167,23.46
5.86,-1.916,10.059,-2.156,-41.056,2.347,10.299,2.73,-41.056,-1.438,12.079,3.307,23.46,-117.302,35.191
5.865,-2.012,10.155,-1.868,-35.191,2.347,10.155,2.443,-41.056,-1.582,11.648,3.164,29.326,-117.302,41.056
5.87,-2.012,10.107,-1.677,-29.326,2.299,10.011,2.251,-35.191,-1.582,11.073,3.02,29.326,-111.437,41.056
5.875,-2.108,9.82,-1.533,-29.326,2.299,9.772,2.108,-35.191,-1.582,10.641,2.876,29.326,-111.437,41.056
5.88,-2.06,9.58,-1.437,-29.326,2.347,9.676,1.964,-29.326,-1.869,10.497,2.732,29.326,-111.437,41.056
5.885,-2.012,9.341,-1.437,-23.46,2.347,9.676,1.964,-29.326,-2.301,10.641,2.445,29.326,-111.437,41.056
5.89,-2.012,9.149,-1.485,-23.46,2.443,9.628,2.06,-23.46,-2.445,10.929,2.157,29.326,-111.437,35.191
5.8950000000000005,-1.916,9.053,-1.485,-17.595,2.395,9.58,2.06,-17.595,-2.445,11.073,1.869,23.46,-111.437,35.191
5.9,-1.868,9.101,-1.533,-11.73,2.395,9.388,2.06,-11.73,-2.588,10.785,1.869,17.595,-117.302,29.326
5.905,-1.868,9.149,-1.581,-11.73,2.491,9.293,2.156,-11.73,-2.445,10.354,1.726,5.865,-117.302,29.326
5.91,-1.916,9.341,-1.629,-5.865,2.587,9.484,2.203,-5.865,-2.301,9.922,1.726,5.865,-123.167,23.46
5.915,-2.06,9.532,-1.772,-5.865,2.778,9.867,2.347,-5.865,-2.301,9.635,1.869,0.0,-123.167,23.46
5.92,-2.06,9.724,-1.916,-5.865,2.826,10.251,2.491,-5.865,-2.157,9.491,1.869,0.0,-123.167,17.595
5.925,-1.964,9.867,-2.012,-5.865,2.826,10.538,2.587,-5.865,-2.013,9.635,1.869,0.0,-123.167,11.73
5.93,-1.916,9.915,-2.06,-5.865,2.826,10.634,2.635,-5.865,-2.013,9.922,1.869,0.0,-123.167,11.73
5.9350000000000005,-1.82,9.867,-2.012,-11.73,2.778,10.682,2.587,-11.73,-2.013,10.066,2.013,-5.865,-123.167,5.865
5.94,-1.772,9.676,-1.916,-11.73,2.682,10.634,2.491,-17.595,-2.013,10.066,2.157,-5.865,-123.167,5.865
5.945,-1.772,9.484,-1.677,-17.595,2.635,10.394,2.299,-17.595,-2.013,10.21,2.157,-11.73,-117.302,5.865
5.95,-1.772,9.197,-1.389,-23.46,2.539,10.107,2.012,-23.46,-1.869,10.354,2.301,-11.73,-117.302,5.865
5.955,-1.772,9.005,-1.102,-23.46,2.395,9.724,1.724,-29.326,-1.869,10.21,2.445,-11.73,-111.437,11.73
5.96,-1.82,8.909,-0.814,-29.326,2.347,9.388,1.437,-29.326,-1.726,10.066,2.301,-5.865,-111.437,11.73
5.965,-1.868,8.766,-0.575,-29.326,2.251,9.101,1.198,-35.191,-1.582,9.922,2.301,-5.865,-105.572,11.73
5.97,-1.82,8.574,-0.431,-35.191,2.156,8.862,1.054,-35.191,-1.726,9.635,2.013,0.0,-99.707,17.595
5.9750000000000005,-1.724,8.383,-0.383,-35.191,2.06,8.622,1.006,-35.191,-1.726,9.347,1.726,0.0,-99.707,23.46
5.98,-1.677,8.239,-0.431,-35.191,2.06,8.383,1.006,-35.191,-1.869,9.347,1.438,5.865,-93.842,29.326
5.985,-1.581,8.047,-0.479,-35.191,2.06,8.143,1.102,-35.191,-2.013,9.491,1.007,5.865,-93.842,29.326
5.99,-1.485,7.951,-0.527,-35.191,2.012,7.999,1.15,-35.191,-2.157,9.347,0.863,5.865,-93.842,29.326
5.995,-1.341,7.856,-0.575,-35.191,1.916,7.904,1.198,-35.191,-2.157,9.203,0.719,5.865,-93.842,35.191
6.0,-1.245,7.808,-0.623,-35.191,1.82,7.712,1.293,-35.191,-2.013,9.059,0.575,5.865,-93.842,35.191
6.005,-1.102,7.76,-0.671,-29.326,1.772,7.664,1.293,-35.191,-1.869,8.916,0.719,0.0,-93.842,35.191
6.01,-1.006,7.76,-0.671,-29.326,1.581,7.808,1.293,-35.191,-1.726,8.772,0.719,0.0,-99.707,35.191
6.015000000000001,-1.054,7.712,-0.575,-29.326,1.629,7.856,1.198,-35.191,-1.582,8.772,0.719,-5.865,-99.707,35.191
6.0200000000000005,-1.006,7.712,-0.479,-29.326,1.581,7.856,1.102,-29.326,-1.438,8.628,0.863,-11.73,-99.707,35.191
6.025,-1.006,7.712,-0.383,-23.46,1.485,7.856,1.006,-29.326,-1.294,8.772,0.863,-17.595,-93.842,35.191
6.03,-0.958,7.76,-0.24,-23.46,1.437,7.856,0.862,-23.46,-1.15,8.628,1.007,-23.46,-93.842,35.191
6.035,-0.862,7.712,-0.192,-23.46,1.245,7.856,0.814,-23.46,-1.007,8.484,0.863,-29.326,-93.842,29.326
6.04,-0.766,7.568,-0.144,-23.46,1.15,7.76,0.766,-23.46,-1.15,8.484,0.863,-35.191,-93.842,29.326
6.045,-0.623,7.472,-0.24,-23.46,1.006,7.664,0.814,-23.46,-1.007,8.484,0.719,-35.191,-87.977,29.326
6.05,-0.527,7.472,-0.383,-23.46,0.958,7.712,0.91,-23.46,-1.15,8.484,0.575,-41.056,-87.977,29.326
6.055,-0.335,7.425,-0.431,-23.46,0.814,7.904,1.006,-23.46,-1.15,8.484,0.575,-41.056,-87.977,23.46
6.0600000000000005,-0.144,7.377,-0.575,-23.46,0.719,7.951,1.198,-23.46,-1.007,8.484,0.431,-46.921,-87.977,23.46
6.065,0.048,7.329,-0.719,-23.46,0.623,7.904,1.341,-23.46,-0.863,8.34,0.431,-52.786,-87.977,23.46
6.07,0.335,7.281,-0.91,-23.46,0.431,7.951,1.485,-29.326,-0.863,8.197,0.431,-52.786,-87.977,23.46
6.075,0.479,7.233,-1.006,-23.46,0.335,7.951,1.581,-23.46,-0.719,8.053,0.575,-58.651,-87.977,23.46
6.08,0.671,7.233,-1.054,-23.46,0.192,7.999,1.677,-23.46,-0.431,7.909,0.719,-58.651,-87.977,23.46
6.085,0.766,7.281,-1.102,-23.46,0.096,8.047,1.724,-23.46,-0.144,7.765,0.863,-58.651,-87.977,23.46
6.09,0.814,7.425,-1.006,-23.46,-0.048,8.095,1.629,-23.46,0.144,7.621,1.007,-58.651,-87.977,23.46
6.095,0.814,7.52,-0.862,-23.46,-0.144,8.143,1.485,-23.46,0.575,7.621,1.15,-58.651,-82.111,23.46
6.1000000000000005,0.766,7.664,-0.671,-23.46,-0.287,8.095,1.341,-23.46,0.863,7.478,1.294,-52.786,-82.111,29.326
6.105,0.719,7.856,-0.623,-23.46,-0.335,7.999,1.245,-29.326,1.007,7.478,1.438,-52.786,-76.246,29.326
6.11,0.719,7.951,-0.575,-23.46,-0.431,7.904,1.245,-23.46,1.15,7.478,1.438,-46.921,-70.381,29.326
6.115,0.814,8.095,-0.623,-23.46,-0.479,7.856,1.245,-23.46,1.15,7.621,1.294,-41.056,-64.516,23.46
6.12,0.91,8.239,-0.671,-17.595,-0.527,7.904,1.245,-23.46,1.007,7.909,1.15,-41.056,-64.516,23.46
6.125,0.958,8.335,-0.814,-17.595,-0.575,7.999,1.437,-17.595,0.863,8.197,1.007,-41.056,-58.651,23.46
6.13,0.958,8.526,-1.054,-11.73,-0.527,8.095,1.629,-17.595,0.719,8.484,0.863,-35.191,-58.651,29.326
6.135,0.958,8.622,-1.198,-11.73,-0.431,8.287,1.772,-11.73,0.719,8.772,0.863,-41.056,-58.651,29.326
6.140000000000001,0.862,8.957,-1.389,-5.865,-0.24,8.718,1.964,-5.865,0.719,9.059,0.863,-41.056,-58.651,23.46
6.1450000000000005,0.766,9.149,-1.533,-5.865,-0.144,9.149,2.156,-5.865,0.863,9.347,0.863,-46.921,-58.651,23.46
6.15,0.719,9.484,-1.629,-0.0,0.0,9.724,2.156,0.0,0.863,9.491,1.007,-52.786,-58.651,17.595
6.155,0.766,9.676,-1.581,-0.0,0.048,10.059,2.156,0.0,1.007,9.635,1.294,-64.516,-58.651,17.595
6.16,0.766,9.867,-1.533,5.865,0.096,10.251,2.108,5.865,1.007,9.778,1.438,-70.381,-58.651,11.73
