time_aligned_sec,L_Acc_X_aligned,L_Acc_Y_aligned,L_Acc_Z_aligned,L_Gyro_Z_aligned,R_Acc_X_aligned,R_Acc_Y_aligned,R_Acc_Z_aligned,R_Gyro_Z_aligned,T_Acc_X_aligned,T_Acc_Y_aligned,T_Acc_Z_aligned,T_Gyro_X_aligned,T_Gyro_Y_aligned,T_Gyro_Z_aligned
0.0,1.245,-1.293,10.538,-23.46,-1.245,-1.868,-10.155,-17.595,1.15,-1.294,-10.641,70.381,23.46,23.46
0.005,1.198,-1.198,10.586,-23.46,-1.198,-1.772,-10.155,-17.595,1.15,-1.294,-10.641,70.381,29.326,23.46
0.01,1.15,-1.054,10.634,-23.46,-1.15,-1.677,-10.251,-23.46,1.15,-1.007,-10.785,76.246,29.326,23.46
0.015,1.054,-0.958,10.634,-29.326,-1.102,-1.581,-10.299,-23.46,1.007,-0.863,-10.785,76.246,29.326,29.326
0.02,0.958,-0.862,10.634,-29.326,-1.054,-1.533,-10.299,-29.326,0.863,-0.863,-10.785,82.111,35.191,29.326
0.025,0.958,-0.814,10.682,-29.326,-0.958,-1.341,-10.251,-29.326,0.863,-0.863,-10.785,82.111,35.191,29.326
0.03,0.958,-0.814,10.73,-29.326,-0.91,-1.245,-10.346,-29.326,0.863,-0.863,-10.929,87.977,41.056,35.191
0.035,0.958,-0.719,10.73,-29.326,-0.91,-1.15,-10.394,-29.326,1.007,-0.863,-10.929,87.977,41.056,29.326
0.04,1.006,-0.719,10.73,-29.326,-0.862,-1.054,-10.346,-29.326,1.007,-0.719,-10.929,87.977,41.056,29.326
0.045,1.054,-0.623,10.682,-35.191,-0.958,-1.15,-10.394,-29.326,1.007,-0.719,-10.929,93.842,41.056,35.191
0.05,0.958,-0.623,10.682,-35.191,-1.054,-1.054,-10.299,-35.191,1.007,-0.719,-10.785,93.842,41.056,35.191
0.055,0.958,-0.527,10.825,-35.191,-0.91,-1.006,-10.346,-35.191,1.007,-0.719,-10.929,93.842,46.921,35.191
0.06,0.91,-0.335,10.921,-35.191,-0.91,-0.862,-10.49,-35.191,0.863,-0.431,-11.073,93.842,46.921,35.191
0.065,0.814,-0.192,11.017,-35.191,-0.91,-0.671,-10.538,-35.191,0.863,-0.431,-11.216,93.842,46.921,35.191
0.07,0.766,0.0,11.113,-35.191,-0.766,-0.479,-10.634,-35.191,0.863,-0.288,-11.216,99.707,46.921,35.191
0.075,0.766,0.192,11.161,-35.191,-0.766,-0.287,-10.778,-35.191,0.863,0.0,-11.36,99.707,52.786,35.191
0.08,0.623,0.335,11.161,-35.191,-0.766,-0.144,-10.825,-35.191,0.719,0.144,-11.36,99.707,52.786,35.191
0.085,0.575,0.383,11.209,-35.191,-0.671,0.048,-10.778,-35.191,0.575,0.144,-11.36,99.707,52.786,35.191
0.09,0.527,0.383,11.209,-35.191,-0.527,0.192,-10.873,-35.191,0.431,0.144,-11.36,99.707,58.651,35.191
0.095,0.623,0.431,11.209,-35.191,-0.575,0.192,-10.825,-35.191,0.575,0.144,-11.36,99.707,58.651,35.191
0.1,0.623,0.383,11.209,-29.326,-0.623,0.287,-10.873,-29.326,0.575,0.144,-11.36,93.842,58.651,35.191
0.105,0.623,0.383,11.113,-29.326,-0.623,0.287,-10.825,-29.326,0.719,0.144,-11.36,93.842,64.516,35.191
0.11,0.623,0.431,10.921,-29.326,-0.575,0.335,-10.73,-29.326,0.719,0.144,-11.216,93.842,64.516,35.191
0.115,0.671,0.479,10.73,-29.326,-0.575,0.287,-10.586,-29.326,0.719,0.144,-11.073,87.977,64.516,29.326
0.12,0.623,0.671,10.49,-29.326,-0.623,0.335,-10.346,-29.326,0.863,0.288,-10.785,87.977,64.516,29.326
0.125,0.575,0.814,10.346,-29.326,-0.479,0.479,-10.155,-29.326,0.863,0.575,-10.641,87.977,64.516,35.191
0.13,0.527,0.91,10.299,-29.326,-0.479,0.623,-9.963,-29.326,0.863,0.863,-10.497,87.977,64.516,35.191
0.135,0.479,1.054,10.155,-29.326,-0.479,0.623,-9.915,-29.326,0.719,1.007,-10.354,82.111,64.516,35.191
0.14,0.431,1.102,10.059,-29.326,-0.431,0.766,-9.772,-29.326,0.719,1.15,-10.21,87.977,70.381,29.326
0.145,0.431,1.15,9.963,-29.326,-0.335,0.862,-9.676,-29.326,0.719,1.15,-10.21,87.977,70.381,29.326
0.15,0.383,1.198,9.867,-23.46,-0.287,0.958,-9.58,-29.326,0.719,1.15,-10.066,87.977,64.516,29.326
0.155,0.383,1.245,9.82,-23.46,-0.287,0.958,-9.484,-23.46,0.719,1.15,-10.066,87.977,64.516,29.326
0.16,0.383,1.293,9.82,-23.46,-0.287,1.006,-9.436,-23.46,0.719,1.294,-9.922,87.977,64.516,29.326
0.165,0.383,1.245,9.724,-23.46,-0.24,1.006,-9.388,-23.46,0.719,1.294,-9.922,87.977,64.516,29.326
0.17,0.383,1.198,9.628,-29.326,-0.287,0.958,-9.341,-23.46,0.719,1.294,-9.922,87.977,64.516,29.326
0.17500000000000002,0.383,1.198,9.58,-29.326,-0.287,0.862,-9.293,-23.46,0.719,1.294,-9.778,87.977,64.516,29.326
0.18,0.431,1.198,9.676,-29.326,-0.383,0.814,-9.197,-29.326,0.719,1.294,-9.778,93.842,64.516,29.326
0.185,0.335,1.198,9.676,-29.326,-0.335,0.814,-9.293,-29.326,0.719,1.294,-9.922,93.842,64.516,29.326
0.19,0.287,1.293,9.628,-29.326,-0.287,0.91,-9.293,-29.326,0.575,1.294,-9.778,99.707,64.516,29.326
0.195,0.24,1.485,9.676,-29.326,-0.192,1.102,-9.293,-29.326,0.575,1.438,-9.778,99.707,64.516,35.191
0.2,0.192,1.629,9.772,-35.191,-0.192,1.245,-9.341,-29.326,0.575,1.582,-9.922,99.707,64.516,35.191
0.20500000000000002,0.0,1.677,9.82,-35.191,-0.144,1.341,-9.388,-35.191,0.144,1.726,-9.922,99.707,64.516,35.191
0.21,0.0,1.772,9.963,-35.191,-0.096,1.341,-9.484,-35.191,0.144,1.869,-10.066,99.707,64.516,35.191
0.215,0.096,1.82,9.867,-41.056,-0.048,1.389,-9.58,-35.191,0.144,2.013,-10.066,105.572,64.516,41.056
0.22,0.048,1.868,9.82,-41.056,-0.24,1.437,-9.484,-35.191,0.144,2.013,-10.066,111.437,70.381,41.056
0.225,0.0,2.012,9.772,-41.056,-0.096,1.581,-9.388,-41.056,0.144,2.013,-9.922,111.437,70.381,41.056
0.23,-0.048,2.156,9.772,-41.056,0.0,1.772,-9.388,-41.056,0.288,2.157,-9.922,117.302,76.246,41.056
0.23500000000000001,-0.144,2.251,9.772,-41.056,0.048,1.964,-9.388,-41.056,0.144,2.301,-10.066,117.302,70.381,46.921
0.24,-0.24,2.395,9.772,-46.921,0.144,2.156,-9.388,-41.056,0.144,2.301,-9.922,117.302,70.381,46.921
0.245,-0.287,2.539,9.772,-46.921,0.287,2.347,-9.388,-46.921,0.0,2.445,-10.066,117.302,76.246,46.921
0.25,-0.335,2.682,9.724,-46.921,0.335,2.491,-9.388,-46.921,0.0,2.445,-10.066,117.302,76.246,46.921
0.255,-0.383,2.73,9.676,-46.921,0.335,2.682,-9.341,-46.921,0.0,2.588,-9.922,111.437,76.246,46.921
0.26,-0.479,2.874,9.628,-46.921,0.431,2.874,-9.293,-46.921,-0.144,2.588,-9.922,111.437,76.246,46.921
0.265,-0.431,3.018,9.58,-41.056,0.527,3.066,-9.245,-46.921,-0.144,2.588,-9.922,105.572,76.246,46.921
0.27,-0.479,3.114,9.58,-41.056,0.527,3.257,-9.197,-46.921,0.0,2.732,-9.778,99.707,76.246,46.921
0.275,-0.527,3.257,9.484,-41.056,0.575,3.401,-9.245,-41.056,0.0,2.732,-9.778,93.842,70.381,41.056
0.28,-0.623,3.401,9.341,-41.056,0.671,3.593,-9.101,-41.056,0.0,2.876,-9.635,87.977,70.381,41.056
0.28500000000000003,-0.671,3.497,9.197,-35.191,0.766,3.784,-8.957,-41.056,-0.144,3.02,-9.491,82.111,70.381,41.056
0.29,-0.623,3.545,9.101,-35.191,0.862,3.88,-8.814,-35.191,0.0,3.164,-9.347,76.246,64.516,35.191
0.295,-0.575,3.497,8.957,-29.326,0.814,3.88,-8.718,-35.191,0.0,3.164,-9.203,64.516,64.516,35.191
0.3,-0.623,3.401,8.862,-29.326,0.766,3.736,-8.622,-29.326,0.0,3.164,-9.059,58.651,58.651,29.326
0.305,-0.575,3.305,8.766,-29.326,0.719,3.545,-8.526,-29.326,-0.144,3.164,-8.916,52.786,58.651,29.326
0.31,-0.527,3.209,8.766,-23.46,0.671,3.449,-8.43,-29.326,0.0,3.164,-8.916,52.786,58.651,29.326
0.315,-0.479,3.114,8.718,-23.46,0.623,3.305,-8.43,-23.46,0.0,3.02,-8.916,46.921,52.786,29.326
0.32,-0.479,3.066,8.718,-23.46,0.575,3.161,-8.43,-23.46,0.0,3.02,-8.916,46.921,52.786,29.326
0.325,-0.527,3.018,8.622,-29.326,0.527,3.018,-8.383,-23.46,-0.144,3.02,-8.772,41.056,52.786,29.326
0.33,-0.575,3.066,8.574,-29.326,0.575,2.874,-8.287,-29.326,-0.144,3.164,-8.772,41.056,52.786,29.326
0.335,-0.575,3.018,8.478,-29.326,0.575,2.922,-8.239,-29.326,-0.144,3.164,-8.628,41.056,52.786,35.191
0.34,-0.527,3.114,8.383,-35.191,0.575,2.826,-8.143,-29.326,-0.144,3.164,-8.628,41.056,52.786,35.191
0.34500000000000003,-0.575,3.114,8.335,-35.191,0.575,2.922,-8.095,-29.326,-0.144,3.307,-8.484,46.921,52.786,35.191
0.35000000000000003,-0.623,3.209,8.335,-35.191,0.623,2.97,-8.047,-35.191,-0.144,3.307,-8.484,46.921,52.786,35.191
0.355,-0.623,3.353,8.287,-35.191,0.623,3.066,-7.999,-35.191,-0.144,3.451,-8.484,46.921,52.786,41.056
0.36,-0.719,3.449,8.191,-41.056,0.671,3.209,-7.951,-35.191,-0.288,3.451,-8.34,46.921,52.786,41.056
0.365,-0.766,3.497,8.239,-41.056,0.719,3.401,-7.856,-41.056,-0.288,3.595,-8.34,46.921,52.786,41.056
0.37,-0.719,3.64,8.287,-41.056,0.814,3.497,-7.904,-41.056,-0.288,3.595,-8.34,46.921,46.921,41.056
0.375,-0.719,3.736,8.239,-41.056,0.814,3.64,-7.951,-41.056,-0.144,3.595,-8.34,46.921,46.921,41.056
0.38,-0.814,3.88,8.239,-41.056,0.814,3.832,-7.951,-41.056,-0.288,3.739,-8.34,46.921,46.921,41.056
0.385,-0.91,4.024,8.239,-41.056,0.862,3.976,-7.904,-41.056,-0.288,4.026,-8.34,41.056,46.921,41.056
0.39,-0.958,4.119,8.143,-41.056,0.958,4.119,-7.904,-41.056,-0.431,4.026,-8.34,41.056,46.921,41.056
0.395,-1.006,4.215,8.143,-35.191,1.006,4.263,-7.856,-41.056,-0.431,4.17,-8.197,41.056,46.921,35.191
0.4,-1.006,4.263,8.095,-35.191,1.054,4.359,-7.808,-35.191,-0.431,4.17,-8.197,35.191,46.921,35.191
0.405,-1.006,4.311,8.095,-35.191,1.102,4.407,-7.808,-35.191,-0.431,4.17,-8.197,35.191,41.056,35.191
0.41000000000000003,-1.006,4.311,7.999,-29.326,1.102,4.407,-7.76,-29.326,-0.431,4.314,-8.197,29.326,41.056,29.326
0.41500000000000004,-1.054,4.311,7.951,-29.326,1.102,4.455,-7.712,-29.326,-0.431,4.314,-8.053,29.326,41.056,29.326
0.42,-1.006,4.215,7.951,-23.46,1.15,4.455,-7.616,-29.326,-0.431,4.17,-8.053,23.46,35.191,29.326
0.425,-1.006,4.215,7.904,-23.46,1.15,4.359,-7.616,-29.326,-0.431,4.17,-8.053,23.46,35.191,29.326
0.43,-0.958,4.167,7.808,-23.46,1.102,4.263,-7.568,-23.46,-0.431,4.17,-7.909,23.46,35.191,29.326
0.435,-0.91,4.167,7.808,-23.46,1.054,4.119,-7.52,-23.46,-0.431,4.314,-7.909,17.595,29.326,23.46
0.44,-0.958,4.119,7.808,-23.46,0.958,4.024,-7.52,-23.46,-0.288,4.314,-7.909,17.595,29.326,29.326
0.445,-0.958,4.167,7.808,-23.46,1.054,3.976,-7.472,-23.46,-0.431,4.458,-7.909,17.595,29.326,29.326
0.45,-0.958,4.215,7.856,-29.326,0.958,3.976,-7.472,-23.46,-0.431,4.602,-7.909,23.46,29.326,29.326
0.455,-1.006,4.215,7.904,-29.326,0.958,3.976,-7.52,-29.326,-0.431,4.602,-7.909,23.46,29.326,29.326
0.46,-1.006,4.263,7.951,-29.326,1.006,4.024,-7.616,-29.326,-0.431,4.602,-8.053,29.326,23.46,29.326
0.465,-1.054,4.311,8.047,-29.326,0.958,4.072,-7.616,-29.326,-0.575,4.602,-8.053,29.326,23.46,29.326
0.47000000000000003,-1.102,4.407,8.143,-29.326,1.054,4.167,-7.76,-29.326,-0.575,4.602,-8.197,29.326,23.46,29.326
0.47500000000000003,-1.15,4.503,8.191,-35.191,1.054,4.311,-7.856,-29.326,-0.575,4.602,-8.197,35.191,29.326,29.326
0.48,-1.245,4.551,8.191,-29.326,1.102,4.407,-7.904,-29.326,-0.719,4.745,-8.34,35.191,23.46,35.191
0.485,-1.245,4.598,8.191,-35.191,1.198,4.503,-7.904,-35.191,-0.719,4.745,-8.34,35.191,29.326,35.191
0.49,-1.293,4.646,8.239,-35.191,1.245,4.646,-7.904,-35.191,-0.719,4.745,-8.34,35.191,29.326,35.191
0.495,-1.293,4.694,8.287,-29.326,1.293,4.694,-7.951,-35.191,-0.719,4.745,-8.34,35.191,29.326,35.191
0.5,-1.341,4.79,8.287,-29.326,1.293,4.742,-7.999,-29.326,-0.719,4.889,-8.34,35.191,29.326,35.191
0.505,-1.341,4.838,8.335,-29.326,1.293,4.838,-7.999,-29.326,-0.719,4.889,-8.34,35.191,29.326,29.326
0.51,-1.437,4.886,8.335,-29.326,1.341,4.934,-7.999,-29.326,-0.863,4.889,-8.484,29.326,29.326,29.326
0.515,-1.437,4.982,8.335,-29.326,1.437,5.03,-7.999,-29.326,-0.863,4.889,-8.484,29.326,29.326,29.326
0.52,-1.533,4.982,8.335,-29.326,1.485,5.173,-7.999,-29.326,-1.007,5.033,-8.484,29.326,23.46,29.326
0.525,-1.533,4.982,8.335,-29.326,1.533,5.173,-8.047,-29.326,-1.007,5.033,-8.484,23.46,23.46,29.326
0.53,-1.533,4.934,8.287,-23.46,1.533,5.173,-8.047,-23.46,-1.007,4.889,-8.484,23.46,23.46,29.326
0.535,-1.533,4.934,8.287,-23.46,1.533,5.173,-7.999,-23.46,-1.007,4.889,-8.484,17.595,23.46,23.46
0.54,-1.485,4.982,8.239,-23.46,1.581,5.125,-7.999,-23.46,-0.863,4.889,-8.34,5.865,23.46,23.46
0.545,-1.485,5.077,8.143,-23.46,1.581,5.173,-7.951,-17.595,-0.863,5.033,-8.34,5.865,23.46,23.46
0.55,-1.485,5.125,7.999,-17.595,1.533,5.221,-7.808,-17.595,-0.863,5.177,-8.197,5.865,17.595,23.46
0.555,-1.533,5.173,7.951,-17.595,1.581,5.269,-7.664,-17.595,-0.863,5.321,-8.053,5.865,17.595,23.46
0.56,-1.485,5.173,7.999,-17.595,1.581,5.221,-7.664,-17.595,-0.863,5.321,-8.053,5.865,17.595,17.595
0.5650000000000001,-1.485,5.173,8.047,-11.73,1.533,5.221,-7.712,-17.595,-0.719,5.321,-8.197,5.865,17.595,17.595
0.5700000000000001,-1.533,5.125,8.095,-11.73,1.533,5.173,-7.76,-17.595,-0.863,5.321,-8.197,0.0,17.595,17.595
0.5750000000000001,-1.533,5.077,8.143,-11.73,1.533,5.077,-7.808,-11.73,-0.863,5.321,-8.197,5.865,11.73,11.73
0.58,-1.533,4.982,8.143,-11.73,1.533,4.982,-7.808,-11.73,-1.007,5.464,-8.197,5.865,11.73,11.73
0.585,-1.533,4.934,8.143,-11.73,1.437,4.838,-7.856,-11.73,-1.007,5.464,-8.197,5.865,11.73,11.73
0.59,-1.485,4.886,8.143,-11.73,1.437,4.742,-7.856,-11.73,-1.007,5.321,-8.197,5.865,11.73,11.73
0.595,-1.533,4.838,8.095,-11.73,1.389,4.694,-7.856,-11.73,-1.007,5.321,-8.197,5.865,11.73,11.73
0.6,-1.485,4.838,8.095,-11.73,1.389,4.646,-7.808,-11.73,-1.007,5.321,-8.197,17.595,17.595,17.595
0.605,-1.485,4.838,8.143,-17.595,1.389,4.646,-7.808,-11.73,-1.007,5.177,-8.197,17.595,17.595,17.595
0.61,-1.533,4.886,8.143,-17.595,1.389,4.742,-7.808,-11.73,-1.007,5.177,-8.197,23.46,17.595,17.595
0.615,-1.533,4.982,8.143,-17.595,1.437,4.79,-7.856,-17.595,-1.007,5.177,-8.34,23.46,17.595,17.595
0.62,-1.629,5.077,8.143,-17.595,1.485,4.934,-7.856,-17.595,-1.15,5.321,-8.197,29.326,17.595,23.46
0.625,-1.724,5.269,8.047,-17.595,1.533,5.077,-7.808,-17.595,-1.15,5.464,-8.197,29.326,17.595,23.46
0.63,-1.724,5.461,7.951,-23.46,1.629,5.269,-7.76,-17.595,-1.15,5.752,-8.053,29.326,23.46,23.46
0.635,-1.82,5.604,7.808,-23.46,1.629,5.461,-7.616,-23.46,-1.15,5.896,-7.909,29.326,23.46,23.46
0.64,-1.868,5.748,7.712,-17.595,1.772,5.604,-7.472,-17.595,-1.294,5.896,-7.909,29.326,23.46,23.46
0.645,-1.916,5.844,7.664,-17.595,1.82,5.796,-7.425,-17.595,-1.294,6.04,-7.765,29.326,23.46,17.595
0.65,-1.916,5.94,7.568,-17.595,1.868,5.892,-7.329,-17.595,-1.294,6.04,-7.765,29.326,23.46,17.595
0.655,-2.012,5.988,7.425,-17.595,1.916,6.035,-7.281,-17.595,-1.294,6.183,-7.621,29.326,23.46,17.595
0.66,-2.06,5.988,7.329,-11.73,2.012,6.131,-7.137,-11.73,-1.294,6.183,-7.478,29.326,17.595,17.595
0.665,-2.06,5.988,7.185,-11.73,2.108,6.179,-6.993,-11.73,-1.294,6.183,-7.334,29.326,17.595,17.595
0.67,-2.06,6.035,7.041,-11.73,2.108,6.131,-6.898,-11.73,-1.294,6.183,-7.19,29.326,17.595,11.73
0.675,-2.06,6.083,6.898,-5.865,2.108,6.179,-6.754,-11.73,-1.294,6.327,-7.046,29.326,17.595,11.73
0.68,-2.06,6.131,6.706,-5.865,2.108,6.179,-6.61,-5.865,-1.294,6.327,-6.902,23.46,11.73,5.865
0.685,-2.012,6.131,6.514,-5.865,2.108,6.227,-6.371,-5.865,-1.15,6.327,-6.759,23.46,11.73,5.865
0.6900000000000001,-2.012,6.179,6.323,-5.865,2.108,6.227,-6.227,-5.865,-1.15,6.471,-6.471,23.46,5.865,5.865
0.6950000000000001,-2.012,6.275,6.179,-0.0,2.108,6.227,-5.988,-5.865,-1.15,6.615,-6.327,29.326,5.865,5.865
0.7000000000000001,-1.964,6.323,6.083,-0.0,2.108,6.275,-5.844,0.0,-1.15,6.759,-6.183,29.326,0.0,5.865
0.705,-1.964,6.371,6.035,-0.0,2.108,6.275,-5.748,0.0,-1.007,6.759,-6.183,29.326,0.0,0.0
0.71,-1.964,6.371,6.035,-0.0,2.06,6.323,-5.7,0.0,-1.15,6.902,-6.04,29.326,-5.865,0.0
0.715,-1.964,6.371,6.083,5.865,2.06,6.275,-5.748,5.865,-1.15,6.902,-6.183,29.326,-5.865,0.0
0.72,-1.964,6.323,6.179,5.865,2.012,6.275,-5.796,5.865,-1.15,6.759,-6.183,35.191,-11.73,-5.865
0.725,-1.82,6.227,6.323,5.865,2.012,6.275,-5.844,5.865,-1.007,6.759,-6.327,41.056,-11.73,-5.865
0.73,-1.772,6.035,6.419,11.73,1.868,6.131,-6.035,11.73,-1.007,6.615,-6.471,41.056,-17.595,-5.865
0.735,-1.677,5.94,6.514,11.73,1.82,5.892,-6.131,11.73,-1.007,6.471,-6.471,46.921,-17.595,-11.73
0.74,-1.629,5.796,6.706,11.73,1.677,5.748,-6.227,11.73,-0.863,6.327,-6.759,46.921,-23.46,-11.73
0.745,-1.581,5.7,6.946,11.73,1.629,5.604,-6.419,11.73,-1.007,6.183,-6.902,52.786,-23.46,-11.73
0.75,-1.629,5.604,7.185,11.73,1.581,5.509,-6.658,11.73,-1.007,6.04,-7.19,52.786,-23.46,-11.73
0.755,-1.629,5.556,7.329,5.865,1.581,5.461,-6.85,11.73,-1.007,5.896,-7.334,58.651,-23.46,-5.865
0.76,-1.629,5.509,7.568,5.865,1.581,5.509,-7.041,11.73,-1.007,5.752,-7.621,58.651,-23.46,-5.865
0.765,-1.581,5.413,7.808,11.73,1.581,5.556,-7.233,5.865,-1.007,5.608,-7.765,64.516,-23.46,-5.865
0.77,-1.533,5.269,7.951,5.865,1.629,5.509,-7.472,11.73,-0.863,5.321,-8.053,58.651,-23.46,-5.865
0.775,-1.437,5.125,8.191,5.865,1.581,5.461,-7.664,11.73,-0.719,5.177,-8.197,58.651,-23.46,-5.865
0.78,-1.341,4.982,8.526,11.73,1.533,5.365,-7.951,11.73,-0.575,4.889,-8.484,52.786,-29.326,-5.865
0.785,-1.245,4.838,8.909,11.73,1.485,5.221,-8.239,11.73,-0.431,4.745,-8.916,52.786,-29.326,-5.865
0.79,-1.15,4.646,9.341,11.73,1.485,5.125,-8.622,11.73,-0.431,4.458,-9.347,46.921,-35.191,-5.865
0.795,-1.054,4.407,9.963,11.73,1.341,4.934,-9.101,11.73,-0.288,4.17,-9.778,41.056,-35.191,-11.73
0.8,-0.91,4.167,10.538,11.73,1.245,4.694,-9.676,11.73,-0.288,3.883,-10.497,35.191,-41.056,-11.73
0.805,-0.862,3.976,11.209,11.73,1.054,4.503,-10.299,11.73,-0.288,3.739,-11.073,29.326,-41.056,-11.73
0.81,-0.862,3.64,11.975,11.73,0.91,4.215,-11.017,17.595,-0.431,3.451,-11.792,23.46,-46.921,-11.73
0.8150000000000001,-0.814,3.257,12.646,11.73,0.719,3.688,-11.736,17.595,-0.719,3.307,-12.511,17.595,-46.921,-11.73
0.8200000000000001,-0.719,2.874,13.268,11.73,0.431,3.161,-12.454,11.73,-1.007,3.164,-13.23,5.865,-41.056,-11.73
0.8250000000000001,-0.671,2.539,13.843,5.865,0.144,2.635,-13.077,11.73,-1.15,2.876,-13.805,5.865,-35.191,-5.865
0.8300000000000001,-0.719,2.251,14.274,-0.0,0.0,2.156,-13.652,5.865,-1.294,2.732,-14.236,5.865,-23.46,-5.865
0.835,-0.766,2.06,14.514,-5.865,-0.048,1.772,-14.083,0.0,-1.582,2.588,-14.668,5.865,-11.73,5.865
0.84,-0.766,1.916,14.61,-11.73,-0.144,1.389,-14.322,-5.865,-1.726,2.588,-14.811,23.46,5.865,11.73
0.845,-0.719,1.964,14.562,-23.46,-0.24,1.15,-14.37,-11.73,-1.869,2.732,-14.811,29.326,23.46,23.46
0.85,-0.671,2.203,14.37,-29.326,-0.335,1.15,-14.322,-23.46,-1.726,2.732,-14.668,41.056,41.056,29.326
0.855,-0.719,2.587,14.083,-41.056,-0.287,1.581,-14.131,-35.191,-1.438,2.876,-14.524,46.921,58.651,35.191
0.86,-0.766,2.97,13.652,-46.921,-0.096,2.156,-13.795,-41.056,-1.294,3.02,-14.092,52.786,76.246,46.921
0.865,-0.862,3.209,13.125,-52.786,0.096,2.778,-13.316,-46.921,-1.294,3.164,-13.661,58.651,93.842,52.786
0.87,-0.814,3.497,12.598,-58.651,0.287,3.161,-12.789,-52.786,-1.15,3.307,-13.086,64.516,105.572,58.651
0.875,-0.766,3.736,12.023,-58.651,0.335,3.545,-12.262,-58.651,-0.863,3.451,-12.654,58.651,111.437,64.516
0.88,-0.766,3.928,11.209,-64.516,0.479,3.88,-11.64,-58.651,-0.575,3.595,-11.935,58.651,123.167,64.516
0.885,-0.671,4.119,10.394,-64.516,0.575,4.167,-10.825,-64.516,-0.431,3.595,-11.073,52.786,129.032,70.381
0.89,-0.623,4.311,9.58,-64.516,0.623,4.311,-10.011,-64.516,-0.144,3.883,-10.21,52.786,129.032,70.381
0.895,-0.623,4.503,8.766,-64.516,0.623,4.503,-9.149,-64.516,-0.144,4.17,-9.491,46.921,129.032,70.381
0.9,-0.671,4.79,7.904,-70.381,0.671,4.694,-8.335,-70.381,0.0,4.458,-8.484,41.056,129.032,70.381
0.905,-0.671,5.077,7.185,-70.381,0.719,4.934,-7.472,-70.381,0.0,4.745,-7.765,41.056,129.032,70.381
0.91,-0.623,5.413,6.514,-70.381,0.719,5.173,-6.754,-70.381,0.144,5.177,-7.046,35.191,129.032,70.381
0.915,-0.766,5.844,5.796,-70.381,0.719,5.509,-6.083,-70.381,0.144,5.608,-6.327,35.191,129.032,70.381
0.92,-0.91,6.227,5.03,-70.381,0.862,5.94,-5.365,-70.381,0.144,6.04,-5.608,29.326,123.167,70.381
0.925,-1.006,6.706,4.311,-70.381,1.054,6.419,-4.598,-70.381,0.0,6.471,-4.745,29.326,117.302,70.381
0.93,-1.006,7.185,3.593,-70.381,1.198,6.85,-3.88,-70.381,0.144,7.046,-4.026,29.326,117.302,70.381
0.935,-1.102,7.712,2.826,-70.381,1.245,7.329,-3.161,-70.381,0.288,7.621,-3.307,29.326,111.437,70.381
0.9400000000000001,-1.245,8.191,2.06,-64.516,1.341,7.808,-2.395,-64.516,0.144,8.197,-2.588,29.326,105.572,70.381
0.9450000000000001,-1.341,8.67,1.293,-64.516,1.533,8.239,-1.677,-64.516,0.144,8.772,-1.726,29.326,99.707,64.516
0.9500000000000001,-1.437,9.197,0.575,-58.651,1.677,8.718,-0.862,-58.651,0.431,9.347,-1.007,29.326,87.977,64.516
0.9550000000000001,-1.437,9.628,0.048,-52.786,1.868,9.293,-0.192,-58.651,0.431,9.778,-0.288,35.191,82.111,58.651
0.96,-1.485,10.011,-0.383,-46.921,1.964,9.676,0.335,-52.786,0.575,10.21,0.288,35.191,70.381,52.786
0.965,-1.581,10.299,-0.623,-41.056,2.012,10.059,0.766,-46.921,0.575,10.641,0.575,35.191,52.786,46.921
0.97,-1.82,10.442,-0.719,-35.191,2.203,10.394,1.006,-41.056,0.431,10.785,0.863,41.056,41.056,41.056
0.975,-2.06,10.538,-0.623,-29.326,2.395,10.682,1.102,-35.191,0.144,10.785,0.719,41.056,29.326,35.191
0.98,-2.156,10.586,-0.527,-23.46,2.635,10.969,0.958,-29.326,-0.144,10.785,0.575,41.056,11.73,29.326
0.985,-2.299,10.586,-0.24,-11.73,2.73,11.161,0.814,-23.46,-0.288,10.641,0.431,35.191,-5.865,17.595
0.99,-2.299,10.49,0.192,-0.0,2.826,11.209,0.479,-11.73,-0.431,10.497,-0.0,29.326,-17.595,5.865
0.995,-2.203,10.299,0.527,11.73,2.826,11.209,0.144,5.865,-0.288,10.066,-0.431,23.46,-29.326,-5.865
1.0,-2.156,9.963,0.862,23.46,2.778,11.113,-0.24,11.73,-0.144,9.778,-0.863,5.865,-41.056,-17.595
1.0050000000000001,-1.964,9.58,1.341,35.191,2.682,10.778,-0.575,23.46,-0.144,9.491,-1.15,5.865,-58.651,-23.46
1.01,-1.868,9.197,1.916,41.056,2.491,10.299,-1.006,35.191,-0.144,9.059,-1.726,-5.865,-70.381,-35.191
1.0150000000000001,-1.772,8.814,2.587,46.921,2.299,9.82,-1.581,41.056,-0.144,8.772,-2.445,-11.73,-82.111,-46.921
1.02,-1.724,8.335,3.449,52.786,2.156,9.245,-2.251,46.921,-0.288,8.628,-3.164,-17.595,-93.842,-46.921
1.025,-1.629,7.808,4.455,52.786,1.964,8.526,-3.161,46.921,-0.431,8.34,-4.026,-23.46,-99.707,-52.786
1.03,-1.581,7.329,5.556,52.786,1.677,7.712,-4.167,52.786,-0.575,8.053,-5.177,-23.46,-105.572,-52.786
1.035,-1.629,6.85,6.754,52.786,1.437,6.993,-5.317,52.786,-1.007,7.765,-6.327,-23.46,-111.437,-52.786
1.04,-1.772,6.275,7.951,46.921,1.389,6.323,-6.514,46.921,-1.294,7.334,-7.478,-17.595,-111.437,-46.921
1.045,-1.868,5.748,9.149,41.056,1.437,5.748,-7.712,46.921,-1.582,6.902,-8.772,-5.865,-111.437,-46.921
1.05,-1.964,5.221,10.346,41.056,1.341,5.221,-8.909,41.056,-1.869,6.327,-9.922,5.865,-105.572,-41.056
1.055,-2.108,4.79,11.4,35.191,1.341,4.79,-10.155,35.191,-2.301,5.752,-11.073,5.865,-99.707,-35.191
1.06,-2.299,4.407,12.31,29.326,1.341,4.455,-11.209,35.191,-2.732,5.177,-12.079,17.595,-87.977,-29.326
1.065,-2.491,4.167,13.029,23.46,1.533,4.215,-12.119,29.326,-3.02,4.745,-12.942,23.46,-70.381,-23.46
1.07,-2.539,4.024,13.46,23.46,1.629,4.024,-12.837,23.46,-3.164,4.458,-13.517,29.326,-58.651,-23.46
1.075,-2.491,3.928,13.604,17.595,1.724,3.976,-13.268,23.46,-3.02,4.314,-13.805,29.326,-46.921,-17.595
1.08,-2.299,3.88,13.604,11.73,1.772,3.976,-13.412,17.595,-2.876,4.026,-13.805,29.326,-29.326,-17.595
1.085,-2.108,3.736,13.412,11.73,1.629,3.928,-13.364,17.595,-2.588,3.883,-13.661,29.326,-17.595,-11.73
1.09,-1.916,3.832,13.173,-0.0,1.581,3.832,-13.173,11.73,-2.157,3.883,-13.517,29.326,-5.865,-5.865
1.095,-1.916,4.024,12.789,-5.865,1.485,3.88,-12.885,0.0,-2.013,4.026,-13.086,29.326,0.0,5.865
1.1,-1.916,4.167,12.454,-11.73,1.485,4.024,-12.55,-5.865,-2.013,4.17,-12.798,29.326,11.73,11.73
1.105,-2.012,4.311,12.215,-17.595,1.533,4.263,-12.167,-11.73,-2.013,4.314,-12.511,29.326,17.595,11.73
1.11,-2.06,4.503,12.071,-17.595,1.629,4.455,-11.927,-17.595,-2.157,4.458,-12.367,23.46,29.326,17.595
1.115,-2.06,4.646,11.927,-17.595,1.677,4.694,-11.831,-17.595,-2.157,4.458,-12.223,23.46,35.191,17.595
1.12,-2.06,4.742,11.688,-17.595,1.724,4.934,-11.64,-17.595,-2.013,4.458,-12.079,23.46,41.056,17.595
1.125,-1.964,4.838,11.352,-17.595,1.772,5.125,-11.4,-17.595,-1.869,4.602,-11.792,5.865,46.921,23.46
1.1300000000000001,-1.868,4.838,10.825,-17.595,1.677,5.173,-11.065,-17.595,-1.726,4.745,-11.36,5.865,52.786,23.46
1.135,-1.772,4.934,10.155,-17.595,1.581,4.982,-10.538,-17.595,-1.582,5.033,-10.641,5.865,58.651,23.46
1.1400000000000001,-1.581,5.03,9.341,-17.595,1.581,4.982,-9.82,-17.595,-1.294,5.177,-9.922,0.0,64.516,23.46
1.145,-1.437,5.03,8.574,-17.595,1.389,4.934,-9.005,-17.595,-1.007,5.464,-9.059,0.0,64.516,23.46
1.1500000000000001,-1.245,4.934,7.904,-23.46,1.293,4.886,-8.239,-17.595,-0.719,5.321,-8.34,0.0,70.381,23.46
1.155,-1.006,4.982,7.52,-29.326,1.245,4.694,-7.568,-23.46,-0.431,5.464,-7.765,5.865,70.381,29.326
1.16,-1.198,5.173,7.041,-35.191,0.862,4.551,-7.185,-29.326,-0.431,5.752,-7.334,5.865,70.381,35.191
1.165,-1.389,5.556,6.562,-35.191,1.198,4.838,-6.706,-35.191,-0.719,5.896,-6.902,5.865,70.381,35.191
1.17,-1.341,5.892,6.371,-41.056,1.341,5.317,-6.227,-41.056,-0.719,6.183,-6.615,23.46,70.381,41.056
1.175,-1.389,6.083,6.227,-46.921,1.198,5.7,-6.035,-41.056,-0.719,6.471,-6.327,23.46,70.381,46.921
1.18,-1.485,6.179,5.844,-46.921,1.245,5.94,-5.892,-46.921,-0.575,6.471,-6.183,29.326,70.381,52.786
1.185,-1.485,6.371,5.461,-52.786,1.581,6.179,-5.461,-52.786,-0.575,6.471,-5.752,29.326,70.381,52.786
1.19,-1.389,6.562,5.173,-52.786,1.533,6.467,-5.077,-52.786,-0.575,6.759,-5.321,35.191,64.516,52.786
1.195,-1.341,6.802,4.934,-52.786,1.485,6.61,-4.79,-52.786,-0.431,6.902,-5.177,35.191,64.516,52.786
1.2,-1.341,6.993,4.79,-52.786,1.437,6.802,-4.598,-52.786,-0.288,7.046,-4.889,35.191,58.651,52.786
1.205,-1.341,7.137,4.598,-52.786,1.437,7.089,-4.455,-52.786,-0.144,7.19,-4.745,35.191,58.651,52.786
1.21,-1.341,7.233,4.503,-46.921,1.533,7.329,-4.263,-52.786,-0.144,7.19,-4.602,35.191,52.786,52.786
1.215,-1.293,7.281,4.503,-46.921,1.533,7.52,-4.167,-46.921,-0.144,7.19,-4.602,29.326,46.921,46.921
1.22,-1.341,7.281,4.646,-41.056,1.437,7.472,-4.215,-46.921,-0.288,7.334,-4.745,29.326,41.056,46.921
1.225,-1.293,7.281,4.79,-41.056,1.437,7.377,-4.359,-41.056,-0.288,7.478,-4.745,29.326,35.191,46.921
1.23,-1.198,7.233,4.934,-35.191,1.341,7.281,-4.503,-41.056,-0.288,7.478,-4.889,29.326,35.191,41.056
1.235,-1.15,7.089,4.982,-35.191,1.245,7.185,-4.598,-35.191,-0.288,7.478,-5.033,29.326,29.326,35.191
1.24,-1.102,6.898,5.125,-35.191,1.15,6.946,-4.694,-35.191,-0.288,7.334,-5.177,29.326,29.326,35.191
1.245,-1.054,6.706,5.317,-35.191,1.054,6.754,-4.838,-35.191,-0.144,7.19,-5.321,29.326,23.46,35.191
1.25,-0.91,6.514,5.461,-35.191,0.958,6.514,-5.03,-35.191,-0.144,6.902,-5.464,35.191,23.46,35.191
1.2550000000000001,-1.006,6.61,5.652,-35.191,0.862,6.371,-5.173,-35.191,0.0,6.615,-5.608,35.191,23.46,41.056
1.26,-1.82,9.293,6.227,-41.056,1.15,6.898,-5.365,-41.056,-0.144,6.759,-6.04,35.191,23.46,41.056
1.2650000000000001,-3.88,15.663,6.898,-41.056,2.299,11.257,-6.035,-41.056,-0.288,9.347,-7.19,29.326,17.595,41.056
1.27,-4.79,16.478,5.221,-46.921,5.173,19.447,-6.61,-41.056,-2.013,15.674,-6.615,0.0,5.865,46.921
1.2750000000000001,-1.772,9.388,4.072,-23.46,4.551,16.669,-4.886,-46.921,-2.301,15.243,-4.314,-41.056,-11.73,41.056
1.28,-0.144,5.604,4.311,11.73,0.814,7.808,-3.88,-23.46,-0.719,8.484,-4.17,-41.056,-17.595,5.865
1.285,-0.623,4.886,5.7,23.46,-0.287,4.934,-4.072,11.73,0.288,5.033,-5.033,-23.46,-17.595,-17.595
1.29,-1.341,6.227,6.898,17.595,0.719,4.934,-5.509,23.46,-0.288,5.464,-6.615,-17.595,-11.73,-17.595
1.295,-2.012,7.425,6.993,5.865,1.054,6.323,-6.658,11.73,-1.438,7.621,-7.19,-17.595,-11.73,-5.865
1.3,-2.06,7.712,6.658,-0.0,1.485,7.089,-6.754,5.865,-1.869,8.628,-6.902,-11.73,-5.865,0.0
1.305,-1.677,7.616,6.514,-0.0,1.581,7.425,-6.371,0.0,-1.438,8.197,-6.615,-5.865,0.0,0.0
1.31,-1.437,7.472,6.371,-0.0,1.437,7.568,-6.227,5.865,-0.719,7.909,-6.615,0.0,5.865,0.0
1.315,-1.389,7.281,6.275,-0.0,1.341,7.425,-6.083,0.0,-0.575,7.765,-6.327,0.0,5.865,0.0
1.32,-1.341,6.898,6.467,-0.0,1.245,7.089,-5.988,0.0,-0.575,7.478,-6.471,5.865,5.865,0.0
1.325,-1.293,6.514,6.754,-5.865,1.245,6.706,-6.179,0.0,-0.575,7.046,-6.759,5.865,5.865,5.865
1.33,-1.293,6.227,6.898,-5.865,1.198,6.371,-6.514,0.0,-0.719,6.615,-6.902,5.865,5.865,5.865
1.335,-1.293,6.131,6.946,-5.865,1.198,6.083,-6.61,-5.865,-0.719,6.471,-7.046,5.865,5.865,5.865
1.34,-1.341,6.275,7.041,-11.73,1.102,6.035,-6.658,-5.865,-0.719,6.471,-7.046,17.595,11.73,11.73
1.345,-1.341,6.371,7.041,-11.73,1.102,6.179,-6.754,-11.73,-0.719,6.615,-7.19,17.595,11.73,11.73
1.35,-1.293,6.323,6.898,-11.73,1.102,6.275,-6.754,-11.73,-0.719,6.615,-7.046,23.46,17.595,11.73
1.355,-1.293,6.514,6.802,-11.73,1.15,6.323,-6.61,-11.73,-0.719,6.615,-6.902,23.46,17.595,17.595
1.36,-1.341,6.754,6.658,-11.73,1.15,6.562,-6.514,-11.73,-0.575,6.759,-6.902,23.46,17.595,17.595
1.365,-1.293,6.946,6.514,-11.73,1.245,6.898,-6.371,-11.73,-0.575,6.902,-6.759,23.46,17.595,17.595
1.37,-1.293,7.041,6.419,-11.73,1.245,7.137,-6.179,-11.73,-0.431,6.902,-6.615,17.595,17.595,11.73
1.375,-1.341,6.993,6.371,-5.865,1.245,7.233,-6.083,-5.865,-0.431,7.046,-6.471,17.595,17.595,11.73
1.3800000000000001,-1.245,6.993,6.371,-5.865,1.245,7.233,-6.083,-5.865,-0.431,7.046,-6.471,5.865,17.595,11.73
1.385,-1.198,6.993,6.371,-5.865,1.102,7.185,-6.131,-5.865,-0.431,6.902,-6.471,5.865,11.73,5.865
1.3900000000000001,-1.198,6.993,6.371,-5.865,1.15,7.185,-6.083,-5.865,-0.431,6.902,-6.471,5.865,11.73,5.865
1.395,-1.245,7.089,6.514,-0.0,1.102,7.185,-6.083,-5.865,-0.431,7.19,-6.615,5.865,11.73,5.865
1.4000000000000001,-1.341,7.281,6.419,-5.865,1.198,7.185,-6.179,-5.865,-0.575,7.19,-6.471,0.0,11.73,5.865
1.405,-1.245,7.377,6.467,-0.0,1.198,7.377,-6.131,0.0,-0.431,7.478,-6.615,0.0,11.73,5.865
1.41,-1.245,7.472,6.514,-5.865,1.15,7.472,-6.179,0.0,-0.431,7.621,-6.615,0.0,11.73,5.865
1.415,-1.245,7.568,6.562,-5.865,1.15,7.472,-6.275,0.0,-0.431,7.765,-6.615,0.0,11.73,5.865
1.42,-1.245,7.616,6.61,-5.865,1.15,7.52,-6.323,-5.865,-0.288,7.765,-6.759,0.0,5.865,5.865
1.425,-1.293,7.568,6.61,-0.0,1.15,7.568,-6.371,0.0,-0.431,7.909,-6.759,0.0,5.865,5.865
1.43,-1.293,7.472,6.658,-0.0,1.198,7.568,-6.323,0.0,-0.431,7.765,-6.759,0.0,5.865,5.865
1.435,-1.245,7.377,6.706,-0.0,1.198,7.472,-6.371,0.0,-0.431,7.621,-6.759,0.0,5.865,0.0
1.44,-1.245,7.281,6.706,-0.0,1.102,7.377,-6.419,0.0,-0.431,7.478,-6.759,0.0,5.865,0.0
1.445,-1.293,7.233,6.706,-0.0,1.15,7.281,-6.419,0.0,-0.575,7.478,-6.759,0.0,5.865,0.0
1.45,-1.293,7.185,6.754,-0.0,1.15,7.185,-6.419,0.0,-0.575,7.478,-6.759,0.0,5.865,0.0
1.455,-1.293,7.185,6.802,-0.0,1.15,7.137,-6.467,5.865,-0.575,7.478,-6.902,0.0,5.865,0.0
1.46,-1.389,7.185,6.802,-0.0,1.198,7.089,-6.514,5.865,-0.575,7.621,-6.902,5.865,5.865,0.0
1.465,-1.437,7.185,6.802,-0.0,1.245,7.089,-6.562,0.0,-0.575,7.478,-6.902,5.865,5.865,0.0
1.47,-1.437,7.137,6.754,-0.0,1.293,7.089,-6.514,0.0,-0.575,7.478,-6.902,5.865,5.865,0.0
1.475,-1.485,7.089,6.706,-0.0,1.341,7.089,-6.467,0.0,-0.575,7.334,-6.759,5.865,5.865,0.0
1.48,-1.485,7.041,6.706,-5.865,1.389,7.089,-6.419,0.0,-0.719,7.334,-6.759,5.865,5.865,5.865
1.485,-1.485,7.089,6.754,-5.865,1.437,6.993,-6.419,0.0,-0.719,7.334,-6.759,5.865,5.865,5.865
1.49,-1.533,7.089,6.754,-5.865,1.437,7.041,-6.467,0.0,-0.719,7.334,-6.902,5.865,5.865,5.865
1.495,-1.581,6.993,6.754,-5.865,1.485,7.041,-6.467,0.0,-0.719,7.334,-6.902,5.865,5.865,5.865
1.5,-1.581,6.946,6.85,-5.865,1.485,6.898,-6.514,-5.865,-0.863,7.334,-6.902,5.865,5.865,5.865
1.5050000000000001,-1.533,6.946,6.802,-5.865,1.437,6.85,-6.514,-5.865,-0.863,7.334,-6.902,17.595,5.865,5.865
1.51,-1.533,6.898,6.754,-5.865,1.341,6.754,-6.467,-5.865,-0.863,7.334,-6.759,17.595,5.865,5.865
1.5150000000000001,-1.533,6.946,6.802,-5.865,1.341,6.754,-6.514,-5.865,-0.863,7.478,-6.902,23.46,5.865,11.73
1.52,-1.485,6.993,6.85,-11.73,1.389,6.754,-6.514,-5.865,-0.719,7.478,-6.902,23.46,5.865,11.73
1.5250000000000001,-1.533,7.185,6.802,-11.73,1.341,6.85,-6.562,-11.73,-0.719,7.478,-6.902,29.326,5.865,11.73
1.53,-1.772,7.377,6.754,-11.73,1.341,7.137,-6.514,-11.73,-1.007,7.621,-6.902,29.326,5.865,17.595
1.5350000000000001,-1.916,7.664,6.802,-11.73,1.677,7.472,-6.514,-11.73,-1.007,7.765,-6.902,35.191,5.865,17.595
1.54,-1.82,7.951,6.658,-11.73,1.772,7.76,-6.514,-11.73,-1.15,8.197,-6.759,35.191,11.73,11.73
1.545,-1.964,8.143,6.467,-11.73,1.581,7.951,-6.371,-11.73,-1.15,8.484,-6.615,35.191,11.73,11.73
1.55,-2.203,8.335,6.562,-5.865,1.868,8.191,-6.179,-11.73,-1.007,8.484,-6.471,35.191,11.73,11.73
1.555,-2.06,8.526,6.514,-0.0,2.251,8.67,-6.275,-5.865,-1.294,8.484,-6.759,35.191,5.865,5.865
1.56,-2.06,8.43,6.467,5.865,1.916,8.766,-6.275,0.0,-1.15,8.628,-6.615,35.191,5.865,0.0
1.565,-2.012,8.287,6.371,5.865,2.012,8.622,-6.179,5.865,-1.007,8.484,-6.615,29.326,5.865,-5.865
1.57,-1.964,8.191,6.275,5.865,1.916,8.478,-6.083,5.865,-1.007,8.484,-6.471,29.326,5.865,-5.865
1.575,-1.964,7.951,6.179,11.73,1.868,8.335,-5.988,11.73,-1.15,8.34,-6.327,29.326,5.865,-5.865
1.58,-1.868,7.712,6.035,11.73,1.868,7.999,-5.892,11.73,-1.007,8.197,-6.183,29.326,0.0,-11.73
1.585,-1.772,7.52,5.94,11.73,1.772,7.664,-5.748,11.73,-1.007,8.053,-6.04,29.326,0.0,-11.73
1.59,-1.724,7.377,5.892,11.73,1.677,7.472,-5.652,11.73,-0.863,7.909,-6.04,29.326,0.0,-11.73
1.595,-1.724,7.281,5.892,5.865,1.581,7.281,-5.604,11.73,-0.863,7.765,-5.896,29.326,0.0,-5.865
1.6,-1.677,7.233,5.844,5.865,1.533,7.137,-5.604,5.865,-0.863,7.765,-6.04,35.191,0.0,-5.865
1.605,-1.677,7.089,5.844,-0.0,1.485,7.041,-5.604,5.865,-1.007,7.621,-6.04,41.056,0.0,0.0
1.61,-1.677,6.946,5.892,-0.0,1.485,6.898,-5.604,5.865,-1.007,7.478,-6.04,41.056,0.0,0.0
1.615,-1.677,6.946,5.844,-0.0,1.485,6.85,-5.556,0.0,-1.007,7.334,-6.04,46.921,0.0,0.0
1.62,-1.677,6.993,5.796,-5.865,1.581,6.946,-5.556,0.0,-1.007,7.334,-5.896,46.921,5.865,5.865
1.625,-1.629,7.137,5.796,-5.865,1.533,7.041,-5.509,0.0,-0.863,7.478,-5.896,46.921,0.0,5.865
1.6300000000000001,-1.629,7.281,5.748,-5.865,1.485,7.041,-5.509,0.0,-0.863,7.621,-5.896,52.786,5.865,5.865
1.635,-1.629,7.377,5.652,-5.865,1.437,7.137,-5.461,-5.865,-0.863,7.765,-5.752,52.786,5.865,5.865
1.6400000000000001,-1.581,7.425,5.604,-5.865,1.533,7.281,-5.317,-5.865,-0.863,7.765,-5.752,58.651,5.865,11.73
1.645,-1.533,7.472,5.652,-5.865,1.437,7.377,-5.317,-5.865,-0.719,7.765,-5.752,58.651,5.865,11.73
1.6500000000000001,-1.533,7.377,5.748,-5.865,1.437,7.425,-5.365,-5.865,-0.719,7.765,-5.896,64.516,5.865,5.865
1.655,-1.485,7.329,5.892,-5.865,1.389,7.377,-5.509,-5.865,-0.719,7.621,-5.896,64.516,5.865,5.865
1.6600000000000001,-1.437,7.233,5.94,-5.865,1.341,7.329,-5.556,-5.865,-0.719,7.478,-6.04,64.516,5.865,5.865
1.665,-1.485,7.137,6.035,-5.865,1.341,7.329,-5.652,-5.865,-0.719,7.334,-6.183,64.516,5.865,5.865
1.67,-1.485,7.041,6.083,-11.73,1.341,7.233,-5.748,-5.865,-0.719,7.19,-6.183,64.516,5.865,11.73
1.675,-1.533,6.993,6.083,-11.73,1.341,7.137,-5.796,-5.865,-0.863,7.19,-6.327,64.516,5.865,11.73
1.68,-1.533,7.185,6.035,-11.73,1.341,7.137,-5.796,-11.73,-0.863,7.19,-6.183,64.516,5.865,11.73
1.685,-1.581,7.377,5.94,-11.73,1.293,7.281,-5.748,-11.73,-0.863,7.478,-6.183,58.651,5.865,17.595
1.69,-1.724,7.568,5.892,-17.595,1.389,7.52,-5.652,-11.73,-1.007,7.621,-6.04,58.651,11.73,17.595
1.695,-1.677,7.76,5.94,-17.595,1.533,7.76,-5.604,-11.73,-0.863,7.765,-6.04,58.651,11.73,17.595
1.7,-1.677,7.999,5.94,-17.595,1.485,7.999,-5.652,-11.73,-0.863,7.909,-6.183,52.786,11.73,17.595
1.705,-1.82,8.191,5.892,-11.73,1.533,8.287,-5.652,-11.73,-0.863,8.053,-6.04,52.786,11.73,17.595
1.71,-1.868,8.287,5.796,-11.73,1.724,8.574,-5.556,-11.73,-1.007,8.197,-6.04,52.786,11.73,11.73
1.715,-1.82,8.335,5.796,-5.865,1.82,8.67,-5.509,-11.73,-1.007,8.197,-5.896,46.921,11.73,11.73
1.72,-1.82,8.335,5.844,-5.865,1.724,8.718,-5.509,-5.865,-1.007,8.34,-6.04,41.056,11.73,5.865
1.725,-1.772,8.43,5.892,-0.0,1.677,8.622,-5.604,-5.865,-1.007,8.34,-6.04,41.056,11.73,5.865
1.73,-1.868,8.526,5.892,-0.0,1.629,8.718,-5.604,0.0,-1.007,8.484,-6.04,35.191,5.865,0.0
1.735,-1.868,8.622,5.844,-0.0,1.677,8.814,-5.604,0.0,-1.007,8.628,-6.04,29.326,5.865,0.0
1.74,-1.868,8.622,5.892,5.865,1.724,8.862,-5.604,5.865,-1.007,8.772,-6.04,29.326,11.73,-5.865
1.745,-1.868,8.478,5.892,5.865,1.677,8.814,-5.604,5.865,-1.007,8.628,-6.04,29.326,11.73,-5.865
1.75,-1.82,8.383,5.796,5.865,1.629,8.622,-5.604,5.865,-1.007,8.628,-5.896,23.46,11.73,-5.865
1.7550000000000001,-1.772,8.43,5.7,5.865,1.581,8.43,-5.509,11.73,-1.007,8.772,-5.896,23.46,11.73,-5.865
1.76,-1.772,8.526,5.604,11.73,1.533,8.43,-5.413,11.73,-0.863,8.772,-5.752,23.46,11.73,-5.865
1.7650000000000001,-1.772,8.67,5.556,5.865,1.581,8.526,-5.317,11.73,-0.863,8.916,-5.608,23.46,11.73,-5.865
1.77,-1.868,8.718,5.509,5.865,1.629,8.718,-5.269,5.865,-0.863,9.059,-5.608,23.46,11.73,-5.865
1.7750000000000001,-1.868,8.766,5.461,5.865,1.724,8.766,-5.221,5.865,-1.007,9.059,-5.608,29.326,11.73,-5.865
1.78,-1.868,8.814,5.461,5.865,1.677,8.766,-5.173,5.865,-1.007,9.203,-5.608,29.326,11.73,-5.865
1.7850000000000001,-1.916,8.814,5.365,5.865,1.677,8.814,-5.173,5.865,-1.007,9.203,-5.464,29.326,11.73,-5.865
1.79,-1.82,8.718,5.365,5.865,1.772,8.766,-5.125,11.73,-1.007,9.203,-5.464,29.326,11.73,-5.865
1.795,-1.82,8.574,5.365,11.73,1.677,8.718,-5.077,11.73,-0.863,9.059,-5.464,35.191,11.73,-11.73
1.8,-1.772,8.478,5.365,11.73,1.629,8.574,-5.077,11.73,-1.007,8.916,-5.464,35.191,11.73,-11.73
1.805,-1.82,8.335,5.365,11.73,1.629,8.526,-5.125,11.73,-0.863,8.628,-5.464,41.056,11.73,-11.73
1.81,-1.82,8.191,5.413,11.73,1.677,8.478,-5.077,11.73,-1.007,8.34,-5.464,41.056,11.73,-11.73
1.815,-1.772,8.143,5.461,11.73,1.629,8.335,-5.125,11.73,-1.007,8.34,-5.608,35.191,11.73,-11.73
1.82,-1.772,8.095,5.461,11.73,1.629,8.239,-5.173,11.73,-0.863,8.34,-5.608,35.191,11.73,-11.73
1.825,-1.772,8.047,5.413,11.73,1.629,8.239,-5.173,11.73,-0.863,8.197,-5.608,35.191,11.73,-11.73
1.83,-1.724,7.951,5.413,11.73,1.629,8.239,-5.125,11.73,-0.863,8.053,-5.608,35.191,11.73,-11.73
1.835,-1.724,7.76,5.413,11.73,1.629,8.191,-5.125,11.73,-0.863,7.909,-5.608,29.326,11.73,-11.73
1.84,-1.677,7.616,5.461,11.73,1.629,8.047,-5.125,11.73,-0.863,7.765,-5.608,29.326,11.73,-11.73
1.845,-1.629,7.472,5.461,11.73,1.581,7.904,-5.173,17.595,-0.863,7.478,-5.608,29.326,11.73,-11.73
1.85,-1.581,7.281,5.461,17.595,1.533,7.76,-5.173,17.595,-0.719,7.334,-5.608,23.46,5.865,-11.73
1.855,-1.485,7.089,5.461,17.595,1.485,7.568,-5.173,17.595,-0.719,7.19,-5.608,17.595,5.865,-11.73
1.86,-1.389,6.85,5.509,11.73,1.437,7.329,-5.173,17.595,-0.719,6.902,-5.608,5.865,5.865,-11.73
1.865,-1.341,6.706,5.509,11.73,1.293,7.089,-5.221,17.595,-0.575,6.759,-5.608,5.865,5.865,-11.73
1.87,-1.293,6.514,5.509,11.73,1.245,6.898,-5.221,11.73,-0.575,6.615,-5.608,5.865,5.865,-11.73
1.875,-1.245,6.371,5.509,11.73,1.198,6.658,-5.221,11.73,-0.575,6.471,-5.608,5.865,5.865,-11.73
1.8800000000000001,-1.245,6.275,5.509,5.865,1.15,6.514,-5.173,11.73,-0.575,6.327,-5.608,0.0,5.865,-5.865
1.885,-1.198,6.131,5.509,5.865,1.15,6.371,-5.173,5.865,-0.575,6.327,-5.608,0.0,5.865,-5.865
1.8900000000000001,-1.15,5.988,5.461,5.865,1.102,6.227,-5.173,5.865,-0.575,6.183,-5.608,0.0,11.73,-5.865
1.895,-1.006,5.796,5.461,-0.0,1.006,5.988,-5.125,5.865,-0.431,6.04,-5.608,0.0,11.73,0.0
1.9000000000000001,-0.91,5.604,5.365,-5.865,0.862,5.7,-5.125,0.0,-0.431,5.896,-5.464,0.0,11.73,5.865
1.905,-0.91,5.509,5.365,-5.865,0.766,5.461,-5.077,0.0,-0.431,5.752,-5.464,0.0,11.73,5.865
1.9100000000000001,-0.862,5.461,5.317,-11.73,0.766,5.317,-5.03,-5.865,-0.288,5.752,-5.464,0.0,11.73,11.73
1.915,-0.814,5.317,5.269,-17.595,0.671,5.221,-4.982,-11.73,-0.288,5.752,-5.321,5.865,17.595,11.73
1.92,-0.719,5.173,5.221,-17.595,0.623,4.982,-4.934,-17.595,-0.288,5.752,-5.321,5.865,17.595,17.595
1.925,-0.671,5.077,5.221,-23.46,0.527,4.79,-4.934,-17.595,-0.288,5.608,-5.321,5.865,17.595,23.46
1.93,-0.719,5.03,5.269,-29.326,0.479,4.742,-4.934,-23.46,-0.288,5.464,-5.321,17.595,23.46,29.326
1.935,-0.671,4.982,5.317,-35.191,0.479,4.742,-4.982,-29.326,-0.144,5.464,-5.321,23.46,23.46,35.191
1.94,-0.719,4.838,5.365,-41.056,0.527,4.838,-4.982,-35.191,-0.144,5.177,-5.464,29.326,23.46,35.191
1.945,-0.719,4.646,5.413,-41.056,0.623,4.79,-5.03,-41.056,-0.144,4.745,-5.464,29.326,29.326,46.921
1.95,-0.623,4.503,5.413,-46.921,0.623,4.694,-5.077,-41.056,-0.144,4.458,-5.464,29.326,29.326,46.921
1.955,-0.623,4.311,5.365,-52.786,0.527,4.598,-5.077,-46.921,-0.144,4.314,-5.464,29.326,29.326,52.786
1.96,-0.479,4.119,5.365,-58.651,0.575,4.503,-5.03,-52.786,0.0,4.026,-5.608,29.326,29.326,58.651
1.965,-0.383,3.88,5.413,-58.651,0.479,4.311,-5.077,-58.651,0.144,3.739,-5.464,23.46,29.326,64.516
1.97,-0.335,3.688,5.413,-70.381,0.383,4.119,-5.077,-64.516,0.144,3.451,-5.608,17.595,29.326,70.381
1.975,-0.287,3.449,5.413,-76.246,0.287,3.832,-5.077,-70.381,0.144,3.307,-5.608,5.865,29.326,76.246
1.98,-0.144,3.593,5.556,-82.111,0.192,3.545,-5.077,-76.246,0.144,3.307,-5.608,5.865,29.326,82.111
1.985,-0.096,4.167,5.604,-87.977,0.048,3.593,-5.221,-82.111,0.431,3.883,-5.752,5.865,35.191,87.977
1.99,-0.287,4.79,5.604,-93.842,0.0,4.072,-5.269,-87.977,0.431,4.602,-5.752,5.865,35.191,93.842
1.995,-0.383,5.652,5.509,-99.707,0.144,4.694,-5.269,-93.842,0.144,5.464,-5.608,5.865,35.191,99.707
2.0,-0.623,6.227,5.461,-93.842,0.192,5.556,-5.173,-99.707,0.0,6.04,-5.608,5.865,35.191,99.707
2.005,-0.814,6.562,5.365,-93.842,0.527,6.275,-5.125,-99.707,0.0,6.327,-5.608,5.865,35.191,93.842
2.0100000000000002,-0.719,6.706,5.413,-87.977,0.719,6.706,-5.03,-93.842,0.0,6.615,-5.464,5.865,35.191,93.842
2.015,-14.514,23.519,-7.233,-64.516,0.623,7.089,-5.125,-87.977,0.288,11.792,-5.177,0.0,35.191,82.111
2.02,-11.4,18.729,-4.311,17.595,15.855,24.094,9.82,-58.651,-14.524,39.401,12.654,0.0,5.865,0.0
2.025,9.005,5.844,7.233,-29.326,11.304,24.094,3.353,17.595,7.046,4.314,-3.739,0.0,-5.865,-11.73
2.0300000000000002,6.371,10.825,5.796,5.865,-6.754,7.425,-7.041,-35.191,12.942,7.334,-8.628,-58.651,-35.191,-23.46
2.035,-6.658,9.005,-0.671,52.786,-5.269,10.299,-4.934,11.73,-2.157,15.243,-1.294,-111.437,-70.381,-64.516
2.04,-5.844,8.622,3.257,29.326,4.982,6.946,0.958,52.786,-8.916,10.354,-1.15,-99.707,-76.246,-52.786
2.045,-0.623,7.712,4.119,5.865,3.209,7.281,-3.209,29.326,-5.033,11.792,-3.883,-64.516,-52.786,-23.46
2.05,0.575,8.67,4.551,17.595,-1.677,5.509,-3.928,5.865,0.575,10.641,-4.458,-29.326,-17.595,-23.46
2.055,-1.389,9.724,3.257,23.46,-0.671,7.472,-4.215,23.46,1.007,11.073,-3.883,0.0,0.0,-35.191
2.06,-1.389,9.58,3.497,-0.0,1.389,8.909,-2.922,23.46,-0.431,10.785,-3.164,23.46,5.865,-11.73
2.065,-1.245,9.388,4.024,-29.326,1.15,8.766,-3.257,0.0,-0.144,10.641,-3.883,35.191,5.865,17.595
2.07,-1.389,9.388,4.215,-46.921,1.006,8.814,-3.736,-29.326,-0.431,10.066,-4.17,52.786,5.865,41.056
2.075,-1.485,9.245,4.838,-52.786,1.15,9.341,-3.928,-46.921,-0.431,9.347,-4.602,58.651,5.865,52.786
2.08,-1.772,8.67,5.317,-58.651,1.485,9.676,-4.551,-58.651,-0.575,8.484,-5.321,58.651,5.865,58.651
2.085,-1.916,8.335,6.227,-52.786,1.581,9.293,-4.982,-58.651,-1.582,8.053,-5.896,52.786,0.0,58.651
2.09,-1.964,7.808,6.802,-46.921,1.677,9.101,-5.988,-52.786,-1.294,7.478,-6.902,46.921,5.865,52.786
2.095,-1.964,7.712,6.514,-29.326,1.82,8.526,-6.514,-46.921,-1.438,7.478,-6.902,35.191,5.865,41.056
2.1,-1.677,7.999,6.323,-17.595,1.964,8.095,-6.131,-29.326,-1.15,7.909,-6.471,23.46,5.865,29.326
2.105,-1.485,8.383,6.514,-0.0,1.533,8.478,-6.035,-17.595,-0.719,8.053,-6.615,17.595,0.0,11.73
2.11,-1.15,8.574,6.802,11.73,1.485,8.862,-6.275,0.0,-0.431,8.197,-6.759,5.865,0.0,-5.865
2.115,-1.293,8.43,6.898,17.595,1.102,9.005,-6.514,11.73,-0.288,8.197,-7.046,5.865,0.0,-11.73
2.12,-1.198,8.239,6.85,17.595,1.245,8.766,-6.658,17.595,-0.431,8.197,-7.046,0.0,0.0,-17.595
2.125,-1.006,7.951,6.419,23.46,0.958,8.335,-6.562,17.595,-0.431,8.34,-6.759,-5.865,-5.865,-17.595
2.13,-0.862,7.808,5.988,23.46,0.623,7.616,-6.083,23.46,-0.431,8.484,-6.183,-5.865,0.0,-17.595
2.1350000000000002,-0.671,7.712,5.796,23.46,0.527,7.377,-5.7,23.46,-0.144,8.34,-5.896,-5.865,0.0,-17.595
2.14,-0.527,7.712,5.7,23.46,0.383,7.281,-5.509,23.46,0.0,8.34,-5.752,5.865,5.865,-17.595
2.145,-0.431,7.856,5.509,17.595,0.24,7.233,-5.413,23.46,0.288,8.34,-5.608,5.865,5.865,-17.595
2.15,-0.575,7.951,5.173,5.865,0.24,7.472,-5.221,17.595,0.431,8.34,-5.464,17.595,5.865,-11.73
2.1550000000000002,-0.431,7.951,5.03,-0.0,0.431,7.616,-4.886,5.865,0.288,8.34,-5.177,23.46,5.865,0.0
2.16,-0.335,7.999,4.838,-11.73,0.287,7.712,-4.694,-5.865,0.431,8.34,-4.889,29.326,5.865,11.73
2.165,-0.575,7.904,5.173,-17.595,0.096,7.712,-4.551,-11.73,0.431,8.197,-5.033,29.326,5.865,17.595
2.17,-0.575,7.904,5.317,-23.46,0.383,7.904,-4.886,-17.595,0.288,7.909,-5.464,35.191,5.865,23.46
2.1750000000000003,-0.719,7.904,5.365,-23.46,0.383,7.951,-4.982,-23.46,0.0,7.909,-5.464,35.191,5.865,23.46
2.18,-0.671,7.616,5.221,-23.46,0.479,7.999,-5.077,-23.46,-0.431,8.053,-5.177,35.191,11.73,23.46
2.185,-0.719,7.472,5.509,-23.46,0.287,7.472,-4.934,-23.46,-0.144,7.765,-5.464,35.191,11.73,23.46
2.19,-0.766,7.472,4.167,-17.595,0.575,7.472,-5.221,-17.595,-0.144,7.765,-5.033,35.191,17.595,23.46
2.195,-0.431,7.472,4.215,-11.73,0.335,7.137,-3.784,-17.595,-0.144,8.197,-4.458,41.056,17.595,17.595
2.2,-0.287,7.664,4.311,-11.73,0.287,6.993,-3.976,-11.73,0.575,8.053,-4.314,41.056,17.595,11.73
2.205,-0.335,7.664,4.407,-11.73,0.144,7.377,-4.024,-5.865,0.575,8.053,-4.458,46.921,17.595,11.73
2.21,-0.431,7.808,4.503,-11.73,0.287,7.472,-4.072,-5.865,0.575,7.909,-4.458,52.786,17.595,11.73
2.215,-0.575,7.904,4.551,-17.595,0.479,7.808,-4.167,-11.73,0.431,7.909,-4.602,52.786,17.595,11.73
2.22,-0.671,7.951,4.694,-17.595,0.527,7.951,-4.263,-11.73,0.144,7.909,-4.745,52.786,11.73,17.595
2.225,-0.719,7.999,4.694,-17.595,0.575,8.047,-4.359,-17.595,0.0,8.053,-4.745,52.786,11.73,17.595
2.23,-0.719,8.047,4.646,-17.595,0.575,8.143,-4.407,-17.595,0.144,8.053,-4.745,52.786,11.73,23.46
2.235,-0.719,8.191,4.694,-17.595,0.623,8.239,-4.359,-17.595,0.0,8.053,-4.889,52.786,5.865,23.46
2.24,-0.814,8.335,4.838,-17.595,0.575,8.383,-4.407,-17.595,0.0,8.197,-4.889,46.921,5.865,23.46
2.245,-0.862,8.478,4.886,-17.595,0.623,8.478,-4.503,-17.595,0.0,8.34,-5.033,46.921,5.865,23.46
2.25,-0.958,8.622,4.838,-17.595,0.719,8.67,-4.551,-17.595,0.0,8.484,-5.033,41.056,5.865,23.46
2.255,-0.958,8.67,4.742,-17.595,0.766,8.814,-4.551,-17.595,-0.144,8.628,-4.889,41.056,5.865,23.46
2.2600000000000002,-0.958,8.622,4.646,-17.595,0.814,8.766,-4.455,-17.595,-0.144,8.772,-4.889,35.191,5.865,17.595
2.265,-0.958,8.574,4.551,-17.595,0.719,8.622,-4.359,-17.595,-0.144,8.772,-4.745,35.191,5.865,23.46
2.27,-0.958,8.574,4.551,-17.595,0.719,8.574,-4.215,-17.595,-0.144,8.772,-4.602,35.191,5.865,23.46
2.275,-1.054,8.622,4.694,-17.595,0.766,8.622,-4.263,-17.595,-0.288,8.772,-4.745,35.191,5.865,23.46
2.2800000000000002,-1.102,8.622,4.886,-17.595,0.862,8.718,-4.407,-17.595,-0.431,8.628,-4.889,35.191,5.865,23.46
2.285,-1.102,8.526,4.551,-17.595,0.91,8.766,-4.598,-17.595,-0.288,8.772,-4.889,35.191,5.865,23.46
2.29,-1.054,8.574,4.742,-17.595,0.814,8.574,-4.263,-17.595,-0.431,8.628,-4.745,35.191,5.865,23.46
2.295,-1.102,8.622,4.838,-17.595,0.814,8.622,-4.503,-17.595,-0.431,8.628,-4.889,35.191,11.73,23.46
2.3000000000000003,-1.293,8.766,4.694,-17.595,0.814,8.718,-4.551,-17.595,-0.575,8.772,-5.033,35.191,11.73,23.46
2.305,-1.293,8.957,4.167,-17.595,1.102,8.957,-4.407,-17.595,-0.575,8.916,-4.602,29.326,11.73,23.46
2.31,-1.006,8.957,3.545,-17.595,1.15,9.101,-3.832,-17.595,-0.288,9.203,-3.883,29.326,11.73,17.595
2.315,-0.719,8.957,3.209,-17.595,0.814,8.909,-3.209,-17.595,0.144,9.347,-3.307,29.326,11.73,17.595
2.32,-0.671,9.005,3.066,-17.595,0.671,8.909,-2.874,-11.73,0.431,9.203,-3.164,29.326,11.73,17.595
2.325,-0.719,9.197,3.018,-17.595,0.719,9.005,-2.73,-11.73,0.575,9.347,-3.164,35.191,5.865,17.595
2.33,-0.766,9.388,2.922,-11.73,0.719,9.245,-2.682,-11.73,0.431,9.491,-3.02,35.191,0.0,17.595
2.335,-0.862,9.676,2.922,-11.73,0.766,9.436,-2.635,-11.73,0.288,9.778,-3.02,29.326,0.0,17.595
2.34,-1.245,9.053,2.874,-11.73,0.814,9.772,-2.635,-11.73,0.144,10.21,-3.02,35.191,-5.865,17.595
2.345,-1.245,8.526,2.682,-17.595,1.006,9.772,-2.539,-11.73,0.431,11.36,-3.02,29.326,-5.865,11.73
2.35,-0.958,9.149,2.826,-17.595,1.15,9.532,-2.347,-17.595,0.431,11.073,-3.02,23.46,-5.865,0.0
2.355,-0.671,9.724,3.305,-23.46,0.814,9.82,-2.539,-17.595,0.719,10.497,-3.164,5.865,-5.865,-5.865
2.36,-0.335,9.436,3.593,-23.46,0.335,9.963,-3.209,-23.46,0.144,9.922,-3.595,0.0,-5.865,-11.73
2.365,-0.671,9.293,3.976,-17.595,-0.096,9.628,-3.64,-23.46,-0.144,9.347,-4.17,-5.865,-5.865,-11.73
2.37,0.096,11.879,4.407,-17.595,0.096,9.436,-3.88,-17.595,-0.288,7.046,-4.314,-5.865,-5.865,-11.73
2.375,-0.431,9.053,3.976,-17.595,-0.144,10.49,-4.024,-17.595,-0.575,7.621,-4.314,0.0,-5.865,-11.73
2.38,-0.862,8.718,4.024,-11.73,-0.048,9.245,-3.688,-11.73,-0.431,8.628,-4.026,5.865,-5.865,0.0
2.3850000000000002,-0.814,8.766,4.119,-11.73,0.479,8.814,-3.736,-11.73,-0.431,9.203,-4.17,5.865,0.0,0.0
2.39,-0.623,9.005,4.167,-11.73,0.383,8.909,-3.88,-5.865,-0.288,8.916,-4.314,5.865,5.865,0.0
2.395,-0.575,8.67,4.024,-11.73,0.335,9.197,-3.832,-5.865,0.0,9.347,-4.17,5.865,5.865,0.0
2.4,-0.719,8.814,4.024,-11.73,0.719,8.957,-3.784,-5.865,0.144,9.778,-4.026,0.0,11.73,0.0
2.4050000000000002,-0.814,8.814,4.024,-17.595,0.527,8.957,-3.688,-5.865,-0.144,9.491,-4.026,-5.865,11.73,5.865
2.41,-0.814,8.67,3.976,-17.595,0.479,8.957,-3.736,-5.865,-0.288,9.059,-4.026,-5.865,17.595,5.865
2.415,-1.006,8.574,4.072,-17.595,0.431,8.909,-3.688,-5.865,0.0,10.21,-4.026,-5.865,11.73,5.865
2.42,-0.527,9.197,4.215,-17.595,0.527,8.622,-3.88,-5.865,-0.288,9.778,-4.745,-11.73,11.73,5.865
2.4250000000000003,-0.383,10.251,4.072,-17.595,0.335,8.862,-3.976,-5.865,0.144,8.484,-4.458,-17.595,17.595,5.865
2.43,-0.623,9.341,3.688,-17.595,0.096,9.58,-3.784,-5.865,-0.288,7.621,-3.883,-5.865,23.46,5.865
2.435,-0.814,9.197,3.497,-11.73,0.431,9.388,-3.353,-5.865,-0.144,9.491,-3.451,0.0,17.595,5.865
2.44,-0.575,8.862,3.64,-11.73,0.527,9.101,-3.257,-5.865,0.0,10.21,-3.595,0.0,17.595,5.865
2.445,-0.144,9.772,3.784,-11.73,0.192,8.862,-3.353,-5.865,0.144,9.203,-3.883,0.0,11.73,5.865
2.45,-0.096,9.436,3.736,-5.865,0.192,9.436,-3.497,-5.865,0.431,8.916,-3.883,0.0,11.73,0.0
2.455,-0.335,9.053,3.736,-5.865,0.144,9.293,-3.449,0.0,0.431,8.916,-3.739,5.865,11.73,0.0
2.46,-0.335,9.149,3.832,-5.865,0.287,9.005,-3.449,0.0,0.144,8.772,-3.883,5.865,11.73,0.0
2.465,-0.383,8.909,4.024,-5.865,0.24,9.005,-3.593,0.0,0.144,8.628,-4.026,5.865,5.865,5.865
2.47,-0.623,8.862,4.167,-5.865,0.24,8.957,-3.784,-5.865,0.0,8.916,-4.17,5.865,5.865,5.865
2.475,-0.719,8.862,4.215,-5.865,0.431,8.957,-3.88,0.0,-0.144,8.916,-4.314,5.865,5.865,5.865
2.48,-0.719,8.862,4.167,-5.865,0.527,8.909,-3.928,0.0,-0.288,8.916,-4.314,5.865,5.865,5.865
2.485,-0.719,8.814,4.072,-5.865,0.479,8.909,-3.88,-5.865,-0.144,9.059,-4.17,5.865,5.865,5.865
2.49,-0.719,8.526,4.024,-5.865,0.527,8.909,-3.784,-5.865,-0.144,9.491,-4.026,5.865,11.73,5.865
2.495,-0.671,8.718,4.072,-5.865,0.527,8.718,-3.688,-5.865,-0.144,9.635,-4.17,5.865,11.73,5.865
2.5,-0.527,9.149,4.119,-5.865,0.479,8.766,-3.784,-5.865,-0.144,8.916,-4.17,0.0,11.73,5.865
2.505,-0.575,9.005,4.024,-5.865,0.479,9.005,-3.832,-5.865,0.0,8.916,-4.17,0.0,11.73,5.865
2.5100000000000002,-0.623,9.005,4.024,-5.865,0.431,8.909,-3.784,-5.865,-0.144,8.916,-4.17,0.0,11.73,5.865
2.515,-0.479,9.005,3.976,-11.73,0.479,8.957,-3.736,-5.865,0.0,8.772,-4.026,0.0,11.73,5.865
2.52,-0.575,8.957,3.832,-5.865,0.383,9.053,-3.688,-5.865,0.0,8.916,-4.026,5.865,11.73,11.73
2.525,-0.623,8.957,3.784,-11.73,0.383,9.005,-3.545,-5.865,-0.144,8.772,-3.883,5.865,11.73,11.73
2.5300000000000002,-0.623,8.957,3.688,-5.865,0.431,9.053,-3.497,-5.865,-0.144,8.916,-3.883,5.865,11.73,11.73
2.535,-0.671,8.862,3.688,-5.865,0.431,9.005,-3.401,-5.865,-0.144,8.916,-3.739,5.865,11.73,5.865
2.54,-0.671,8.718,3.784,-5.865,0.479,8.909,-3.401,-5.865,-0.144,8.916,-3.739,5.865,11.73,5.865
2.545,-0.527,8.67,3.928,-5.865,0.527,8.814,-3.545,-5.865,0.0,8.772,-3.883,0.0,11.73,5.865
2.5500000000000003,-0.431,8.67,3.88,-5.865,0.479,8.718,-3.64,-5.865,0.144,8.772,-4.026,0.0,11.73,5.865
2.555,-0.431,8.67,3.832,-0.0,0.383,8.766,-3.593,0.0,0.144,8.772,-3.883,0.0,11.73,5.865
2.56,-0.431,8.67,3.832,-0.0,0.383,8.67,-3.545,0.0,0.144,8.772,-3.883,0.0,11.73,5.865
2.565,-0.383,8.622,3.784,-0.0,0.335,8.67,-3.545,0.0,0.144,8.772,-3.883,0.0,11.73,0.0
2.57,-0.383,8.622,3.832,-0.0,0.287,8.622,-3.545,0.0,0.144,8.772,-3.883,0.0,11.73,0.0
2.575,-0.383,8.622,3.88,-0.0,0.335,8.574,-3.545,0.0,0.144,8.772,-3.883,0.0,11.73,0.0
2.58,-0.383,8.67,3.88,-0.0,0.335,8.622,-3.593,0.0,0.288,8.772,-3.883,0.0,11.73,5.865
2.585,-0.431,8.67,3.928,-0.0,0.335,8.622,-3.593,0.0,0.144,8.772,-4.026,0.0,11.73,5.865
2.59,-0.431,8.718,3.88,-5.865,0.335,8.622,-3.64,0.0,0.144,8.916,-4.026,0.0,5.865,5.865
2.595,-0.383,8.718,3.832,-5.865,0.335,8.622,-3.593,0.0,0.144,8.916,-3.883,0.0,11.73,5.865
2.6,-0.383,8.718,3.832,-5.865,0.287,8.718,-3.593,-5.865,0.144,8.772,-3.883,5.865,5.865,5.865
2.605,-0.335,8.718,3.88,-5.865,0.287,8.718,-3.593,-5.865,0.288,8.772,-3.883,0.0,5.865,5.865
2.61,-0.335,8.766,3.88,-5.865,0.24,8.766,-3.593,-5.865,0.288,8.916,-4.026,0.0,5.865,5.865
2.615,-0.335,8.814,3.928,-5.865,0.24,8.718,-3.64,-5.865,0.288,8.916,-4.026,0.0,5.865,5.865
2.62,-0.335,8.862,3.976,-5.865,0.24,8.766,-3.64,-5.865,0.288,9.059,-4.026,0.0,5.865,5.865
2.625,-0.431,8.909,4.024,-5.865,0.24,8.814,-3.736,-5.865,0.144,9.059,-4.17,0.0,5.865,5.865
2.63,-0.383,8.862,4.072,-5.865,0.335,8.862,-3.784,-5.865,0.144,9.059,-4.17,0.0,5.865,11.73
2.6350000000000002,-0.287,8.814,4.119,-5.865,0.287,8.862,-3.784,-5.865,0.144,8.916,-4.17,5.865,5.865,11.73
2.64,-0.287,8.718,4.119,-11.73,0.144,8.766,-3.832,-5.865,0.144,8.916,-4.17,5.865,5.865,11.73
2.645,-0.383,8.718,4.167,-5.865,0.192,8.766,-3.832,-5.865,0.144,8.772,-4.17,5.865,5.865,11.73
2.65,-0.383,8.766,4.167,-11.73,0.287,8.766,-3.88,-5.865,0.144,8.772,-4.314,5.865,5.865,5.865
2.6550000000000002,-0.383,8.814,4.072,-5.865,0.287,8.814,-3.88,-5.865,0.144,8.916,-4.17,0.0,5.865,11.73
2.66,-0.431,8.862,4.024,-5.865,0.287,8.862,-3.784,-5.865,0.144,8.916,-4.17,0.0,5.865,11.73
2.665,-0.383,8.909,3.976,-5.865,0.287,8.862,-3.736,-5.865,0.144,8.916,-4.026,0.0,5.865,5.865
2.67,-0.335,9.005,3.976,-5.865,0.24,8.862,-3.64,-5.865,0.144,9.203,-4.026,0.0,5.865,5.865
2.6750000000000003,-0.335,8.957,4.072,-5.865,0.24,8.909,-3.736,-5.865,0.144,9.203,-4.17,0.0,5.865,5.865
2.68,-0.383,8.909,3.976,-5.865,0.192,8.862,-3.784,-5.865,0.144,9.059,-4.17,0.0,5.865,5.865
2.685,-0.383,8.909,4.024,-5.865,0.24,8.814,-3.736,-5.865,0.144,9.203,-4.026,5.865,5.865,5.865
2.69,-0.335,9.005,4.167,-5.865,0.24,8.814,-3.784,0.0,0.288,9.203,-4.17,5.865,11.73,5.865
2.695,-0.335,9.005,4.215,-0.0,0.24,8.909,-3.88,0.0,0.288,9.203,-4.314,5.865,5.865,0.0
2.7,-0.383,9.005,4.119,-0.0,0.24,8.957,-3.928,0.0,0.144,9.203,-4.314,5.865,5.865,0.0
2.705,-0.335,8.957,4.072,-0.0,0.287,8.957,-3.832,0.0,0.288,9.203,-4.17,5.865,5.865,0.0
2.71,-0.335,8.909,4.024,-0.0,0.24,8.862,-3.784,0.0,0.144,9.059,-4.17,5.865,5.865,0.0
2.715,-0.383,8.862,4.024,-0.0,0.192,8.862,-3.736,0.0,0.144,9.059,-4.026,5.865,5.865,0.0
2.72,-0.431,8.43,4.072,5.865,0.287,8.862,-3.736,5.865,0.144,9.059,-4.17,5.865,5.865,0.0
2.725,-0.479,8.766,4.167,-0.0,0.287,8.718,-3.784,5.865,0.144,9.778,-4.17,5.865,5.865,0.0
2.73,-0.335,8.957,4.167,-0.0,0.335,8.718,-3.928,5.865,0.0,8.628,-4.314,5.865,11.73,-5.865
2.735,-0.24,8.814,4.072,-0.0,0.192,8.862,-3.88,0.0,0.144,8.628,-4.17,5.865,11.73,-5.865
2.74,-0.144,8.909,4.072,-0.0,0.144,8.766,-3.784,0.0,0.431,8.916,-4.17,5.865,11.73,-5.865
2.745,-0.144,8.909,4.024,-0.0,0.048,8.814,-3.784,0.0,0.575,8.916,-4.17,5.865,11.73,-5.865
2.75,-0.192,9.053,4.024,-5.865,0.096,8.909,-3.736,0.0,0.431,8.916,-4.026,5.865,5.865,0.0
2.755,-0.287,8.957,3.976,-5.865,0.144,9.005,-3.736,0.0,0.431,9.059,-4.026,5.865,5.865,0.0
2.7600000000000002,-0.335,9.053,3.976,-5.865,0.192,8.957,-3.688,-5.865,0.144,9.203,-4.026,5.865,5.865,5.865
2.765,-0.335,9.005,3.976,-5.865,0.192,8.957,-3.688,-5.865,0.144,9.203,-4.026,5.865,5.865,5.865
2.77,-0.335,9.053,4.024,-5.865,0.192,9.005,-3.736,-5.865,0.144,9.203,-4.026,5.865,5.865,5.865
2.775,-0.335,9.053,4.024,-5.865,0.24,9.005,-3.784,-5.865,0.144,9.203,-4.17,5.865,5.865,5.865
2.7800000000000002,-0.383,9.005,4.072,-5.865,0.24,9.053,-3.736,-5.865,0.144,9.203,-4.17,5.865,5.865,5.865
2.785,-0.479,9.005,4.119,-5.865,0.24,9.005,-3.784,-5.865,0.0,9.203,-4.17,5.865,5.865,5.865
2.79,-0.479,8.957,4.167,-5.865,0.335,9.005,-3.88,-5.865,0.0,9.203,-4.17,5.865,5.865,5.865
2.795,-0.431,8.909,4.119,-5.865,0.383,8.957,-3.88,-5.865,0.0,9.059,-4.17,5.865,5.865,5.865
2.8000000000000003,-0.335,8.957,4.072,-5.865,0.287,8.909,-3.832,-5.865,0.144,9.059,-4.17,5.865,5.865,5.865
2.805,-0.335,8.909,4.024,-5.865,0.24,8.957,-3.784,-5.865,0.144,8.916,-4.17,5.865,5.865,5.865
2.81,-0.383,8.909,3.976,-5.865,0.192,8.909,-3.736,-5.865,0.0,8.916,-4.026,5.865,5.865,0.0
2.815,-0.383,8.862,3.976,-0.0,0.24,8.862,-3.688,0.0,0.0,8.916,-4.026,5.865,5.865,0.0
2.82,-0.335,8.862,3.976,-5.865,0.24,8.862,-3.688,0.0,0.144,8.916,-4.026,5.865,5.865,0.0
2.825,-0.335,8.909,4.072,-0.0,0.192,8.814,-3.736,0.0,0.144,9.059,-4.17,5.865,5.865,0.0
2.83,-0.431,8.909,4.072,-5.865,0.24,8.909,-3.784,0.0,0.288,9.203,-4.17,5.865,5.865,0.0
2.835,-0.383,8.909,4.024,-5.865,0.287,8.909,-3.784,0.0,0.144,9.059,-4.17,5.865,5.865,0.0
2.84,-0.287,8.957,3.928,-5.865,0.24,8.909,-3.736,-5.865,0.144,9.059,-4.026,5.865,5.865,5.865
2.845,-0.287,9.005,3.88,-5.865,0.192,8.957,-3.64,-5.865,0.288,9.059,-4.026,5.865,5.865,0.0
2.85,-0.287,9.053,3.928,-5.865,0.192,9.005,-3.64,-5.865,0.288,9.203,-4.026,5.865,5.865,5.865
2.855,-0.287,9.101,3.928,-5.865,0.192,9.005,-3.64,-5.865,0.144,9.203,-4.026,5.865,5.865,0.0
2.86,-0.24,9.101,3.976,-5.865,0.144,9.005,-3.688,-5.865,0.144,9.203,-4.026,5.865,5.865,0.0
2.865,-0.383,9.197,3.832,-5.865,0.144,9.053,-3.688,-5.865,0.0,9.347,-4.026,5.865,5.865,0.0
2.87,-0.431,9.293,3.736,-0.0,0.192,9.149,-3.545,0.0,0.0,9.347,-3.883,5.865,5.865,0.0
2.875,-0.383,9.436,3.688,-0.0,0.24,9.197,-3.449,0.0,0.0,9.635,-3.739,5.865,5.865,0.0
2.88,-0.287,9.58,3.736,5.865,0.192,9.293,-3.401,0.0,0.0,9.778,-3.739,5.865,11.73,-5.865
2.8850000000000002,-0.24,9.532,3.736,5.865,0.144,9.388,-3.449,5.865,0.144,9.778,-3.739,5.865,11.73,-5.865
2.89,-0.24,9.484,3.736,11.73,0.144,9.388,-3.449,11.73,0.288,9.778,-3.739,5.865,11.73,-11.73
2.895,-0.287,9.436,3.832,5.865,0.144,9.341,-3.497,11.73,0.144,9.778,-3.883,17.595,11.73,-11.73
2.9,-0.335,9.388,3.88,11.73,0.144,9.341,-3.593,11.73,0.0,9.635,-4.026,17.595,11.73,-11.73
2.9050000000000002,-0.335,9.293,3.88,11.73,0.192,9.293,-3.64,11.73,0.0,9.491,-4.026,23.46,11.73,-11.73
2.91,-0.335,9.197,3.832,11.73,0.192,9.197,-3.593,11.73,0.0,9.347,-3.883,23.46,11.73,-11.73
2.915,-0.383,9.149,3.784,5.865,0.192,9.149,-3.545,11.73,0.144,9.347,-3.883,23.46,11.73,-11.73
2.92,-0.527,9.197,3.736,5.865,0.287,9.149,-3.545,11.73,0.0,9.347,-3.883,23.46,17.595,-5.865
2.9250000000000003,-0.431,9.341,3.593,5.865,0.383,9.197,-3.449,5.865,0.0,9.491,-3.739,23.46,17.595,-5.865
2.93,-0.383,9.341,3.545,5.865,0.335,9.341,-3.353,5.865,0.144,9.491,-3.595,23.46,17.595,-5.865
2.935,0.192,9.197,3.114,5.865,0.335,9.436,-3.257,5.865,1.438,9.203,-3.307,23.46,11.73,0.0
2.94,-0.383,9.58,3.209,11.73,0.144,9.436,-2.826,5.865,0.431,9.203,-3.307,23.46,11.73,-5.865
2.945,-0.383,9.58,3.449,11.73,0.24,10.107,-2.922,11.73,0.288,9.203,-3.307,17.595,5.865,-11.73
2.95,-0.287,9.341,3.066,23.46,0.575,10.011,-3.161,17.595,0.144,9.347,-3.307,5.865,0.0,-17.595
2.955,-0.287,9.149,3.018,29.326,0.096,9.532,-2.778,23.46,0.144,9.203,-3.02,0.0,0.0,-23.46
2.96,-0.144,8.814,3.018,29.326,0.144,9.388,-2.73,29.326,0.288,8.772,-3.02,0.0,0.0,-29.326
2.965,0.096,8.574,2.97,35.191,0.048,9.005,-2.73,35.191,0.575,8.628,-3.02,-5.865,0.0,-35.191
2.97,0.144,8.526,2.826,35.191,-0.144,8.67,-2.682,35.191,0.719,8.484,-3.02,-5.865,0.0,-35.191
2.975,0.096,8.526,2.682,35.191,-0.192,8.574,-2.539,35.191,0.719,8.484,-2.732,-11.73,-5.865,-35.191
2.98,0.144,8.622,2.539,35.191,-0.192,8.526,-2.395,35.191,0.575,8.772,-2.732,-11.73,-5.865,-35.191
2.985,0.144,8.862,2.299,35.191,-0.24,8.526,-2.203,35.191,0.719,8.916,-2.445,-11.73,-5.865,-35.191
2.99,0.096,9.053,2.06,29.326,-0.192,8.718,-2.012,29.326,0.719,9.203,-2.157,-11.73,-5.865,-23.46
2.995,0.048,9.341,1.82,23.46,-0.096,8.957,-1.724,29.326,0.863,9.635,-2.013,-5.865,-5.865,-23.46
3.0,0.0,9.436,1.533,23.46,-0.144,9.197,-1.485,23.46,0.719,9.635,-1.726,-5.865,-5.865,-17.595
3.005,0.192,10.155,0.144,23.46,0.096,9.245,-1.245,23.46,0.863,10.21,-1.294,-5.865,-11.73,-17.595
3.0100000000000002,0.431,9.82,-0.862,23.46,0.0,8.957,0.335,23.46,1.007,11.216,0.719,0.0,-17.595,-23.46
3.015,0.24,9.436,-1.198,23.46,-0.479,8.957,1.15,23.46,1.294,10.641,0.863,5.865,-17.595,-17.595
3.02,0.575,9.484,-0.623,23.46,-0.192,8.957,1.389,23.46,1.438,10.066,1.007,29.326,-23.46,-17.595
3.025,0.287,9.532,-0.048,23.46,-0.383,9.197,0.862,23.46,1.438,9.778,0.288,35.191,-29.326,-23.46
3.0300000000000002,0.0,9.628,0.192,23.46,0.0,9.58,0.335,23.46,1.15,9.491,-0.144,41.056,-35.191,-23.46
3.035,-0.144,9.724,0.287,23.46,0.287,10.059,0.144,23.46,0.863,9.347,-0.288,41.056,-41.056,-17.595
3.04,-0.287,9.676,0.383,23.46,0.383,10.299,0.048,23.46,0.719,9.203,-0.431,35.191,-46.921,-17.595
3.045,-0.24,9.532,0.575,23.46,0.527,10.299,-0.048,23.46,0.719,9.059,-0.431,23.46,-52.786,-23.46
3.0500000000000003,-0.144,9.388,0.814,29.326,0.479,10.155,-0.24,23.46,0.863,8.916,-0.719,17.595,-58.651,-23.46
3.055,-0.096,9.149,1.198,35.191,0.383,9.867,-0.479,29.326,0.863,8.916,-1.007,5.865,-64.516,-29.326
3.06,-0.096,8.909,1.629,29.326,0.383,9.532,-0.814,29.326,0.863,8.772,-1.438,0.0,-70.381,-29.326
3.065,-0.192,8.67,2.299,29.326,0.287,9.101,-1.341,29.326,0.719,8.772,-2.013,-5.865,-76.246,-29.326
3.0700000000000003,-0.335,8.622,3.161,29.326,0.287,8.766,-2.012,29.326,0.431,8.628,-2.876,-11.73,-82.111,-23.46
3.075,-0.575,8.718,4.167,23.46,0.383,8.622,-2.874,23.46,0.144,8.772,-3.739,-11.73,-87.977,-23.46
3.08,-0.814,8.814,5.317,23.46,0.527,8.718,-3.928,23.46,-0.288,8.916,-4.889,-11.73,-87.977,-23.46
3.085,-1.054,9.053,6.658,17.595,0.671,8.862,-5.125,23.46,-0.719,9.059,-6.183,-11.73,-93.842,-17.595
3.09,-1.293,9.293,7.904,17.595,0.766,9.101,-6.467,17.595,-1.007,9.203,-7.478,-11.73,-87.977,-17.595
3.095,-1.629,9.388,9.101,17.595,0.91,9.388,-7.712,17.595,-1.582,9.347,-8.628,-11.73,-87.977,-17.595
3.1,-1.916,9.388,10.155,17.595,1.054,9.532,-8.957,17.595,-2.013,9.491,-9.922,-11.73,-82.111,-17.595
3.105,-2.108,9.245,10.969,23.46,1.15,9.484,-10.011,17.595,-2.588,9.491,-10.785,-17.595,-70.381,-17.595
3.11,-2.203,8.957,11.496,23.46,1.245,9.197,-10.825,17.595,-2.876,9.491,-11.504,-17.595,-58.651,-17.595
3.115,-2.156,8.67,11.783,23.46,1.245,8.766,-11.352,23.46,-3.02,9.347,-11.792,-17.595,-46.921,-17.595
3.12,-1.964,8.383,11.783,23.46,1.102,8.287,-11.592,23.46,-3.02,9.203,-11.935,-11.73,-29.326,-23.46
3.125,-1.677,8.191,11.688,17.595,0.91,7.904,-11.64,23.46,-2.732,8.916,-11.935,-5.865,-11.73,-17.595
3.13,-1.677,8.047,11.352,11.73,0.719,7.712,-11.496,17.595,-2.301,8.772,-11.648,0.0,0.0,-17.595
3.1350000000000002,-1.724,7.999,11.161,11.73,0.766,7.712,-11.161,17.595,-2.445,8.484,-11.36,5.865,17.595,-11.73
3.14,-1.724,7.951,10.825,5.865,0.814,7.808,-10.969,11.73,-2.301,8.34,-11.216,5.865,35.191,-5.865
3.145,-1.533,8.143,10.251,5.865,1.006,7.951,-10.586,5.865,-2.157,8.197,-10.785,5.865,46.921,-5.865
3.15,-1.437,8.047,9.436,5.865,0.862,8.239,-9.963,5.865,-1.869,8.053,-10.066,5.865,58.651,-5.865
3.1550000000000002,-1.15,7.856,8.335,5.865,0.91,8.191,-9.101,5.865,-1.438,7.765,-9.059,5.865,70.381,-5.865
3.16,-0.623,7.568,7.281,5.865,0.814,8.047,-7.999,11.73,-0.719,7.334,-7.909,5.865,76.246,-5.865
3.165,-0.24,7.281,6.083,5.865,0.479,7.712,-6.85,11.73,-0.144,7.19,-6.759,5.865,82.111,-5.865
3.17,-0.096,7.233,4.598,5.865,0.192,7.329,-5.652,11.73,0.288,7.334,-5.464,0.0,82.111,-5.865
3.1750000000000003,0.24,7.233,3.114,5.865,0.048,7.185,-4.167,5.865,0.575,7.334,-3.883,0.0,82.111,0.0
3.18,0.575,7.233,1.629,5.865,-0.144,7.137,-2.682,5.865,1.15,7.334,-2.445,0.0,82.111,0.0
3.185,0.91,7.281,0.144,-0.0,-0.431,7.089,-1.15,5.865,1.582,7.478,-0.863,0.0,82.111,0.0
3.19,1.006,7.281,-1.198,-0.0,-0.719,7.089,0.335,5.865,2.013,7.621,0.575,0.0,76.246,0.0
3.1950000000000003,1.341,7.377,-2.251,-0.0,-0.575,7.089,1.677,5.865,2.301,7.478,1.869,0.0,70.381,0.0
3.2,1.533,7.472,-2.97,-0.0,-0.814,7.281,2.682,5.865,2.732,7.621,2.732,0.0,58.651,0.0
3.205,1.485,7.616,-3.545,-0.0,-0.958,7.377,3.401,0.0,2.876,7.478,3.307,5.865,46.921,0.0
3.21,1.437,7.951,-3.88,-5.865,-0.862,7.664,3.928,0.0,3.02,7.621,3.883,5.865,35.191,5.865
3.215,1.293,8.191,-4.072,-5.865,-0.814,8.143,4.263,-5.865,2.876,7.765,4.17,0.0,23.46,5.865
3.22,1.198,8.383,-3.976,-5.865,-0.623,8.383,4.407,-5.865,2.732,8.197,4.17,0.0,5.865,11.73
3.225,1.102,8.67,-3.545,-5.865,-0.671,8.526,4.311,-5.865,2.445,8.484,3.883,-5.865,-5.865,11.73
3.23,0.862,8.909,-2.97,-5.865,-0.623,8.718,3.88,-5.865,2.301,8.772,3.451,-5.865,-17.595,5.865
3.235,0.671,9.053,-2.299,-5.865,-0.431,9.053,3.305,-5.865,2.013,8.916,2.732,-5.865,-29.326,5.865
3.24,0.527,9.197,-1.581,-5.865,-0.287,9.245,2.587,-5.865,1.726,9.059,2.013,-11.73,-41.056,5.865
3.245,0.383,9.245,-0.766,-0.0,-0.24,9.341,1.868,0.0,1.582,9.203,1.294,-11.73,-46.921,5.865
3.25,0.24,9.245,0.096,-0.0,-0.144,9.293,1.054,0.0,1.294,9.203,0.431,-17.595,-52.786,5.865
3.255,0.096,9.245,1.102,-0.0,-0.048,9.293,0.192,0.0,1.007,9.347,-0.575,-17.595,-58.651,5.865
3.2600000000000002,-0.048,9.245,2.299,-0.0,0.0,9.293,-0.862,0.0,0.719,9.203,-1.726,-17.595,-64.516,0.0
3.265,-0.335,9.197,3.593,5.865,0.096,9.341,-2.06,0.0,0.431,9.203,-3.02,-17.595,-70.381,0.0
3.27,-0.623,9.149,4.742,5.865,0.287,9.293,-3.353,0.0,0.0,9.203,-4.314,-17.595,-76.246,0.0
3.275,-0.862,9.053,5.844,5.865,0.431,9.245,-4.551,0.0,-0.575,9.203,-5.464,-23.46,-76.246,0.0
3.2800000000000002,-1.054,8.909,6.802,5.865,0.479,9.053,-5.652,0.0,-1.007,9.059,-6.471,-23.46,-70.381,0.0
3.285,-1.15,8.766,7.52,5.865,0.575,8.814,-6.562,0.0,-1.294,9.059,-7.334,-23.46,-70.381,0.0
3.29,-1.198,8.67,8.047,5.865,0.623,8.67,-7.281,0.0,-1.294,9.059,-7.909,-23.46,-58.651,0.0
3.295,-1.198,8.526,8.383,-0.0,0.623,8.478,-7.808,5.865,-1.438,9.059,-8.34,-23.46,-52.786,0.0
3.3000000000000003,-1.245,8.43,8.574,-0.0,0.623,8.191,-8.191,0.0,-1.582,9.059,-8.628,-17.595,-46.921,0.0
3.305,-1.293,8.383,8.67,-5.865,0.623,7.999,-8.335,0.0,-1.582,9.059,-8.772,-11.73,-35.191,5.865
3.31,-1.341,8.43,8.814,-5.865,0.671,7.999,-8.478,-5.865,-1.582,8.916,-8.916,-5.865,-29.326,5.865
3.315,-1.389,8.478,8.909,-5.865,0.766,8.143,-8.622,-5.865,-1.582,8.772,-9.059,0.0,-17.595,5.865
3.3200000000000003,-1.437,8.43,8.766,-5.865,0.91,8.335,-8.622,-5.865,-1.582,8.628,-8.916,0.0,-11.73,5.865
3.325,-1.389,8.335,8.574,-5.865,1.006,8.526,-8.526,-5.865,-1.438,8.34,-8.772,5.865,-5.865,5.865
3.33,-1.293,8.239,8.383,-5.865,1.102,8.526,-8.335,-5.865,-1.294,8.197,-8.628,0.0,0.0,5.865
3.335,-1.245,8.191,8.143,-5.865,1.054,8.478,-8.095,-5.865,-1.15,8.053,-8.34,0.0,5.865,5.865
3.34,-1.198,8.095,7.856,-5.865,1.006,8.43,-7.856,-5.865,-1.007,7.909,-8.053,-5.865,11.73,5.865
3.345,-1.198,7.999,7.472,-5.865,0.958,8.287,-7.568,-5.865,-1.15,7.909,-7.765,-11.73,17.595,5.865
3.35,-1.198,7.951,7.089,-5.865,0.958,8.143,-7.185,-5.865,-1.007,7.909,-7.334,-11.73,17.595,11.73
3.355,-1.054,7.951,6.61,-11.73,0.958,8.047,-6.754,-5.865,-0.863,8.053,-6.902,-17.595,23.46,11.73
3.36,-0.958,7.951,6.083,-11.73,0.862,7.999,-6.323,-5.865,-0.719,8.053,-6.471,-17.595,23.46,11.73
3.365,-0.862,7.951,5.7,-11.73,0.719,7.904,-5.796,-5.865,-0.575,8.197,-6.04,-17.595,23.46,11.73
3.37,-0.766,7.999,5.317,-11.73,0.671,7.904,-5.365,-11.73,-0.431,8.197,-5.608,-17.595,29.326,11.73
3.375,-0.671,8.095,4.886,-11.73,0.623,7.951,-4.982,-11.73,-0.288,8.34,-5.177,-17.595,29.326,17.595
3.38,-0.527,8.143,4.598,-11.73,0.623,8.047,-4.551,-11.73,-0.144,8.34,-4.745,-17.595,29.326,17.595
3.3850000000000002,-0.958,11.304,2.539,-17.595,0.527,7.999,-4.263,-11.73,-0.288,8.34,-4.314,-17.595,29.326,17.595
3.39,-0.766,12.885,2.347,-35.191,0.192,13.891,-1.82,-17.595,1.15,12.798,-1.582,-17.595,29.326,23.46
3.395,-1.485,16.047,0.144,-35.191,2.156,13.939,-1.868,-41.056,1.726,14.38,-1.294,-29.326,23.46,46.921
3.4,-1.772,9.628,2.06,23.46,1.724,16.19,0.048,-29.326,-2.301,13.661,-1.007,-41.056,0.0,5.865
3.4050000000000002,0.287,8.478,2.251,29.326,0.671,8.526,-1.868,23.46,-0.719,9.491,-2.445,-35.191,-5.865,-35.191
3.41,0.24,9.676,1.82,11.73,-0.383,8.622,-1.916,29.326,1.726,8.484,-2.157,-23.46,0.0,-17.595
3.415,-0.671,10.011,1.724,11.73,0.335,9.724,-1.485,17.595,0.719,10.785,-1.726,-23.46,0.0,-11.73
3.42,-0.814,9.436,2.778,11.73,0.335,9.341,-1.485,11.73,-0.863,10.641,-2.301,-23.46,-5.865,-11.73
3.4250000000000003,-1.102,9.724,3.066,11.73,0.335,8.957,-2.539,11.73,-0.719,10.066,-3.164,-11.73,-5.865,-11.73
3.43,-0.91,9.867,3.066,17.595,1.006,9.772,-2.73,17.595,-0.575,9.922,-3.02,-5.865,0.0,-17.595
3.435,-0.623,9.628,3.353,17.595,0.91,9.915,-2.826,17.595,-0.144,9.922,-3.307,-5.865,0.0,-17.595
3.44,-0.671,9.197,3.497,11.73,0.623,9.628,-3.066,17.595,0.0,9.491,-3.451,-5.865,0.0,-11.73
3.4450000000000003,-0.719,8.718,3.736,11.73,0.719,9.245,-3.209,11.73,0.0,9.059,-3.595,-5.865,-5.865,-11.73
3.45,-0.719,8.43,4.119,5.865,0.719,8.67,-3.449,11.73,-0.144,8.628,-4.026,-5.865,-5.865,-5.865
3.455,-0.766,8.43,4.551,5.865,0.671,8.43,-3.88,5.865,-0.288,8.628,-4.458,-5.865,-11.73,-5.865
3.46,-0.91,8.478,4.838,5.865,0.623,8.383,-4.311,5.865,-0.575,8.628,-4.745,-5.865,-11.73,0.0
3.465,-1.006,8.478,5.03,5.865,0.766,8.43,-4.598,5.865,-0.719,8.628,-5.033,-5.865,-5.865,0.0
3.47,-1.006,8.43,5.125,5.865,0.814,8.478,-4.742,5.865,-0.719,8.628,-5.177,0.0,-5.865,0.0
3.475,-1.006,8.383,5.125,5.865,0.862,8.43,-4.838,5.865,-0.719,8.484,-5.177,0.0,-5.865,0.0
3.48,-0.91,8.335,5.03,5.865,0.814,8.383,-4.838,5.865,-0.575,8.484,-5.177,0.0,-5.865,-5.865
3.485,-0.91,8.383,4.934,5.865,0.814,8.335,-4.742,5.865,-0.575,8.484,-5.033,0.0,-5.865,-5.865
3.49,-0.862,8.43,4.886,5.865,0.766,8.335,-4.646,11.73,-0.431,8.628,-5.033,0.0,-5.865,-5.865
3.495,-0.862,8.526,4.79,5.865,0.766,8.383,-4.598,5.865,-0.431,8.628,-4.889,0.0,0.0,-5.865
3.5,-0.862,8.622,4.694,11.73,0.766,8.478,-4.503,11.73,-0.431,8.772,-4.889,0.0,0.0,-5.865
3.505,-0.862,8.622,4.598,5.865,0.719,8.574,-4.407,11.73,-0.431,8.772,-4.745,0.0,0.0,-5.865
3.5100000000000002,-0.862,8.622,4.598,5.865,0.719,8.622,-4.311,11.73,-0.431,8.772,-4.602,0.0,0.0,-5.865
3.515,-0.814,8.67,4.598,11.73,0.719,8.67,-4.311,11.73,-0.431,8.772,-4.745,0.0,0.0,-5.865
3.52,-0.862,8.718,4.551,5.865,0.671,8.718,-4.311,11.73,-0.431,8.772,-4.745,0.0,0.0,-5.865
3.525,-0.814,8.718,4.503,5.865,0.671,8.718,-4.311,11.73,-0.431,8.772,-4.602,0.0,0.0,-5.865
3.5300000000000002,-0.814,9.388,4.503,5.865,0.671,8.67,-4.215,11.73,-0.288,8.484,-4.458,0.0,0.0,-5.865
3.535,-0.671,8.957,4.503,5.865,0.575,9.005,-4.263,5.865,0.0,8.197,-4.602,5.865,0.0,0.0
3.54,-0.862,8.574,4.359,11.73,0.671,8.957,-4.215,11.73,-0.431,8.916,-4.458,5.865,0.0,0.0
3.545,-0.814,8.766,4.359,11.73,0.671,8.622,-4.072,11.73,-0.575,9.347,-4.458,5.865,0.0,0.0
3.5500000000000003,-0.766,8.622,4.407,5.865,0.575,8.67,-4.072,11.73,-0.431,9.203,-4.458,5.865,0.0,0.0
3.555,-0.766,8.622,4.455,5.865,0.671,8.622,-4.167,11.73,-0.288,8.916,-4.458,5.865,5.865,0.0
3.56,-0.719,8.478,4.407,5.865,0.623,8.574,-4.167,5.865,-0.288,8.772,-4.458,5.865,0.0,0.0
3.565,-0.719,8.335,4.455,5.865,0.623,8.526,-4.119,5.865,-0.288,8.628,-4.458,5.865,0.0,0.0
3.5700000000000003,-0.719,8.478,4.455,5.865,0.575,8.43,-4.167,5.865,-0.288,8.772,-4.458,5.865,0.0,0.0
3.575,-0.719,8.383,4.455,5.865,0.575,8.43,-4.167,5.865,-0.288,8.628,-4.458,5.865,5.865,0.0
3.58,-0.766,8.383,4.407,5.865,0.575,8.478,-4.119,5.865,-0.288,8.628,-4.458,5.865,5.865,0.0
3.585,-0.719,8.478,4.455,-0.0,0.623,8.478,-4.119,5.865,-0.288,8.772,-4.458,5.865,5.865,0.0
3.59,-0.719,8.526,4.503,5.865,0.623,8.478,-4.167,5.865,-0.288,8.772,-4.602,5.865,5.865,0.0
3.595,-0.671,8.574,4.455,5.865,0.575,8.574,-4.167,5.865,-0.288,8.772,-4.458,5.865,5.865,0.0
3.6,-0.719,8.526,4.455,5.865,0.575,8.574,-4.167,5.865,-0.144,8.628,-4.458,5.865,5.865,0.0
3.605,-0.671,8.574,4.503,5.865,0.623,8.526,-4.167,5.865,-0.144,8.628,-4.602,0.0,5.865,0.0
3.61,-0.623,8.526,4.551,5.865,0.575,8.526,-4.167,5.865,-0.144,8.628,-4.458,0.0,5.865,0.0
3.615,-0.623,8.574,4.503,5.865,0.479,8.526,-4.215,5.865,-0.144,8.772,-4.602,5.865,5.865,0.0
3.62,-0.623,8.718,4.598,-0.0,0.527,8.526,-4.215,5.865,-0.144,8.772,-4.602,0.0,5.865,0.0
3.625,-0.719,8.622,4.598,-0.0,0.479,8.67,-4.311,5.865,-0.144,8.916,-4.745,5.865,5.865,0.0
3.63,-0.623,8.67,4.694,-0.0,0.575,8.526,-4.311,0.0,-0.144,8.916,-4.745,5.865,5.865,0.0
3.6350000000000002,-0.671,8.718,4.742,-0.0,0.479,8.574,-4.455,0.0,-0.288,8.916,-4.889,5.865,5.865,0.0
3.64,-0.719,8.766,4.742,-0.0,0.575,8.67,-4.407,0.0,-0.288,9.059,-4.745,5.865,5.865,0.0
3.645,-0.719,8.814,4.742,-0.0,0.575,8.67,-4.455,0.0,-0.288,9.059,-4.889,5.865,5.865,0.0
3.65,-0.766,8.814,4.742,-0.0,0.575,8.766,-4.503,0.0,-0.288,9.059,-4.889,5.865,5.865,5.865
3.6550000000000002,-0.766,8.909,4.79,-0.0,0.671,8.814,-4.503,0.0,-0.288,9.059,-4.889,5.865,5.865,5.865
3.66,-0.814,8.957,4.79,-0.0,0.671,8.862,-4.503,0.0,-0.288,9.059,-4.889,5.865,5.865,0.0
3.665,-0.862,9.005,4.79,-0.0,0.671,8.909,-4.503,0.0,-0.431,9.203,-4.889,5.865,5.865,0.0
3.67,-0.862,9.101,4.838,-0.0,0.719,9.005,-4.503,0.0,-0.431,9.347,-4.889,5.865,5.865,0.0
3.6750000000000003,-0.862,9.101,4.742,-0.0,0.671,9.005,-4.551,0.0,-0.431,9.347,-4.889,5.865,5.865,0.0
3.68,-0.91,9.149,4.598,-0.0,0.671,9.005,-4.455,0.0,-0.431,9.347,-4.745,17.595,5.865,0.0
3.685,-0.958,9.197,4.551,-0.0,0.766,9.101,-4.359,0.0,-0.431,9.347,-4.602,17.595,11.73,0.0
3.69,-0.91,9.388,4.551,-0.0,0.814,9.245,-4.311,0.0,-0.431,9.491,-4.602,17.595,11.73,0.0
3.6950000000000003,-1.006,9.532,4.407,-0.0,0.766,9.436,-4.311,0.0,-0.431,9.635,-4.602,17.595,11.73,0.0
3.7,-0.91,10.011,4.263,-0.0,0.91,9.628,-4.119,0.0,-0.431,9.778,-4.458,17.595,11.73,0.0
3.705,-1.006,10.059,4.311,5.865,0.91,10.299,-3.976,5.865,-0.144,9.922,-4.314,17.595,11.73,0.0
3.71,-1.15,10.251,4.359,5.865,1.006,10.251,-4.024,5.865,-0.431,10.066,-4.314,5.865,5.865,0.0
3.715,-1.102,10.059,4.311,5.865,1.102,10.538,-4.119,5.865,-0.575,10.066,-4.458,5.865,5.865,-5.865
3.72,-1.102,9.915,4.263,11.73,1.006,10.251,-4.024,11.73,-0.575,10.066,-4.314,5.865,5.865,-5.865
3.725,-1.006,9.772,4.263,17.595,0.958,10.011,-3.976,11.73,-0.575,9.922,-4.314,5.865,0.0,-11.73
3.73,-0.862,9.628,4.215,17.595,0.862,9.82,-3.976,17.595,-0.431,9.778,-4.314,5.865,0.0,-17.595
3.735,-0.862,9.532,4.215,17.595,0.814,9.676,-3.976,17.595,-0.288,9.635,-4.314,0.0,0.0,-17.595
3.74,-0.91,9.436,4.215,17.595,0.766,9.532,-3.928,17.595,-0.288,9.635,-4.314,0.0,0.0,-17.595
3.745,-0.958,9.388,4.263,17.595,0.766,9.436,-3.976,17.595,-0.431,9.635,-4.314,0.0,0.0,-17.595
3.75,-1.006,9.341,4.311,17.595,0.862,9.388,-3.976,17.595,-0.431,9.491,-4.314,5.865,0.0,-17.595
3.755,-1.054,9.245,4.359,17.595,0.91,9.388,-4.024,17.595,-0.431,9.347,-4.458,5.865,0.0,-17.595
3.7600000000000002,-1.006,9.149,4.359,17.595,0.91,9.341,-4.072,17.595,-0.575,9.347,-4.458,0.0,0.0,-17.595
3.765,-1.006,8.957,4.311,17.595,0.91,9.197,-4.072,17.595,-0.575,9.203,-4.458,0.0,0.0,-17.595
3.77,-0.958,8.766,4.311,23.46,0.862,9.005,-3.976,23.46,-0.575,9.059,-4.314,0.0,0.0,-17.595
3.775,-0.91,8.574,4.359,23.46,0.814,8.766,-4.024,23.46,-0.431,8.772,-4.458,0.0,0.0,-17.595
3.7800000000000002,-0.862,8.383,4.359,23.46,0.766,8.526,-4.024,23.46,-0.431,8.628,-4.458,0.0,0.0,-23.46
3.785,-0.862,8.191,4.407,17.595,0.719,8.335,-4.072,23.46,-0.431,8.484,-4.458,0.0,0.0,-17.595
3.79,-0.862,8.095,4.455,17.595,0.719,8.143,-4.119,17.595,-0.431,8.34,-4.458,0.0,0.0,-17.595
3.795,-0.862,8.047,4.503,17.595,0.671,7.999,-4.167,17.595,-0.431,8.34,-4.602,5.865,0.0,-17.595
3.8000000000000003,-0.814,7.999,4.503,11.73,0.671,7.951,-4.215,17.595,-0.431,8.197,-4.602,5.865,5.865,-17.595
3.805,-0.814,7.999,4.455,11.73,0.719,7.999,-4.215,17.595,-0.431,8.197,-4.458,5.865,5.865,-11.73
3.81,-0.719,7.904,4.407,11.73,0.671,7.999,-4.119,17.595,-0.431,8.053,-4.458,5.865,5.865,-11.73
3.815,-0.719,7.856,4.407,11.73,0.623,7.904,-4.072,11.73,-0.288,8.053,-4.458,5.865,5.865,-11.73
3.8200000000000003,-0.623,7.808,4.503,11.73,0.575,7.76,-4.119,11.73,-0.288,8.053,-4.458,5.865,5.865,-11.73
3.825,-0.719,7.712,4.503,11.73,0.527,7.76,-4.215,11.73,-0.288,7.909,-4.602,5.865,5.865,-11.73
3.83,-0.671,7.616,4.598,5.865,0.623,7.712,-4.215,11.73,-0.288,7.765,-4.602,5.865,5.865,-11.73
3.835,-0.623,7.568,4.646,5.865,0.527,7.616,-4.311,11.73,-0.288,7.765,-4.745,5.865,5.865,-5.865
3.84,-0.623,7.472,4.646,5.865,0.479,7.568,-4.359,11.73,-0.288,7.621,-4.745,5.865,5.865,-5.865
3.845,-0.575,7.329,4.646,5.865,0.479,7.472,-4.359,5.865,-0.288,7.478,-4.745,5.865,5.865,-5.865
3.85,-0.527,7.233,4.598,5.865,0.431,7.281,-4.359,5.865,-0.288,7.334,-4.745,5.865,11.73,-5.865
3.855,-0.527,7.185,4.598,5.865,0.431,7.185,-4.311,5.865,-0.144,7.334,-4.602,5.865,11.73,-5.865
3.86,-0.479,7.089,4.551,-0.0,0.431,7.185,-4.263,5.865,-0.144,7.19,-4.602,5.865,11.73,0.0
3.865,-0.431,7.041,4.598,-0.0,0.383,7.089,-4.263,5.865,0.0,7.19,-4.745,5.865,11.73,0.0
3.87,-0.479,6.946,4.551,-0.0,0.383,7.041,-4.263,5.865,-0.144,7.046,-4.602,5.865,11.73,0.0
3.875,-0.431,6.802,4.598,-0.0,0.431,6.993,-4.215,0.0,-0.144,6.902,-4.602,5.865,11.73,0.0
3.88,-0.431,6.658,4.646,-5.865,0.383,6.85,-4.263,0.0,0.0,6.759,-4.745,5.865,11.73,0.0
3.8850000000000002,-0.383,6.562,4.598,-5.865,0.335,6.706,-4.311,0.0,0.0,6.615,-4.745,0.0,11.73,5.865
3.89,-0.335,6.419,4.646,-5.865,0.287,6.61,-4.311,-5.865,0.0,6.471,-4.745,0.0,17.595,5.865
3.895,-0.287,6.275,4.598,-5.865,0.24,6.467,-4.311,-5.865,0.0,6.327,-4.745,0.0,17.595,5.865
3.9,-0.24,6.179,4.598,-11.73,0.24,6.275,-4.311,-5.865,0.0,6.183,-4.745,0.0,17.595,11.73
3.9050000000000002,-0.24,6.083,4.598,-11.73,0.192,6.179,-4.263,-11.73,0.144,6.183,-4.745,-5.865,17.595,11.73
3.91,-0.192,6.035,4.598,-17.595,0.24,6.131,-4.263,-11.73,0.144,6.04,-4.745,-5.865,17.595,17.595
3.915,-0.192,5.94,4.598,-17.595,0.144,6.035,-4.263,-11.73,0.144,6.04,-4.602,-5.865,17.595,17.595
3.92,-0.144,5.892,4.694,-17.595,0.144,5.94,-4.311,-17.595,0.144,5.896,-4.745,-5.865,17.595,23.46
3.9250000000000003,-0.096,5.844,4.742,-23.46,0.096,5.892,-4.359,-17.595,0.288,5.896,-4.889,-5.865,17.595,23.46
3.93,-0.096,5.748,4.79,-23.46,0.096,5.844,-4.407,-17.595,0.144,5.752,-4.889,-5.865,17.595,23.46
3.935,-0.144,5.796,4.79,-29.326,0.096,5.748,-4.455,-23.46,0.144,5.752,-4.889,-11.73,17.595,29.326
3.94,-0.096,5.844,4.838,-29.326,0.096,5.748,-4.455,-29.326,0.144,5.752,-4.889,-11.73,17.595,29.326
3.9450000000000003,-0.096,5.844,4.934,-29.326,0.048,5.796,-4.551,-29.326,0.144,5.896,-5.033,-11.73,17.595,35.191
3.95,-0.048,5.892,5.03,-35.191,0.0,5.796,-4.598,-29.326,0.288,5.896,-5.033,-11.73,23.46,35.191
3.955,0.0,5.892,5.077,-35.191,-0.048,5.844,-4.694,-35.191,0.288,5.896,-5.177,-17.595,23.46,35.191
3.96,0.096,5.844,5.077,-35.191,-0.096,5.796,-4.742,-35.191,0.431,5.896,-5.177,-17.595,23.46,35.191
3.9650000000000003,0.144,5.844,5.03,-41.056,-0.192,5.7,-4.742,-35.191,0.431,6.04,-5.177,-17.595,23.46,41.056
3.97,0.144,5.796,4.838,-41.056,-0.335,5.509,-4.742,-41.056,0.431,6.183,-5.033,-17.595,23.46,41.056
3.975,0.192,5.7,4.79,-41.056,-0.24,5.461,-4.551,-41.056,0.575,6.04,-4.889,-11.73,29.326,46.921
3.98,0.335,5.556,4.886,-46.921,-0.287,5.317,-4.455,-46.921,0.431,6.04,-4.889,-5.865,29.326,46.921
3.985,0.335,5.461,4.982,-46.921,-0.623,5.03,-4.598,-46.921,0.431,6.04,-5.033,0.0,29.326,46.921
3.99,0.479,5.461,5.125,-52.786,-0.575,4.982,-4.694,-46.921,0.575,5.896,-5.033,5.865,35.191,52.786
3.995,-5.461,21.028,-5.509,-52.786,-0.719,5.125,-4.838,-52.786,0.719,5.752,-5.321,5.865,35.191,52.786
4.0,-13.652,17.627,1.198,23.46,6.85,22.417,10.49,-52.786,-12.223,13.805,9.203,0.0,29.326,29.326
4.005,11.544,17.052,0.527,-0.0,18.202,23.902,-3.832,29.326,1.294,24.877,-3.164,-29.326,-17.595,-23.46
4.01,5.365,7.999,3.832,-35.191,-15.615,14.466,-0.24,0.0,13.23,6.04,-2.876,-52.786,-41.056,29.326
4.015,-7.712,4.79,2.491,-11.73,-1.724,7.904,-3.401,-35.191,-1.007,8.628,-4.17,-52.786,-35.191,-5.865
4.0200000000000005,-4.407,11.783,4.072,-17.595,8.047,7.52,-2.012,-11.73,-9.635,12.367,-2.732,-82.111,-70.381,-5.865
4.025,-1.054,11.209,6.946,-17.595,0.527,9.628,-4.215,-17.595,-4.745,14.668,-6.327,-87.977,-58.651,23.46
4.03,-2.682,12.789,4.503,17.595,-0.623,9.436,-6.754,-17.595,-2.301,14.38,-6.183,-58.651,-17.595,0.0
4.035,-2.443,13.508,2.491,41.056,2.299,12.55,-4.024,23.46,-2.588,14.668,-3.02,-35.191,5.865,-35.191
4.04,-0.719,12.981,2.922,35.191,2.012,12.646,-2.203,41.056,-0.863,15.243,-2.588,-17.595,11.73,-41.056
4.045,-0.335,12.071,3.209,29.326,0.527,11.4,-2.73,35.191,0.575,14.38,-3.164,0.0,17.595,-29.326
4.05,-0.958,10.634,3.64,11.73,0.575,10.969,-2.97,29.326,0.431,12.367,-3.307,23.46,11.73,-17.595
4.055,-1.245,9.293,4.742,-0.0,1.198,10.251,-3.401,11.73,-0.431,10.497,-4.17,35.191,5.865,-5.865
4.0600000000000005,-1.389,8.239,6.035,-11.73,1.15,9.101,-4.551,0.0,-1.007,9.059,-5.608,41.056,5.865,5.865
4.065,-1.533,7.425,6.658,-11.73,1.054,8.239,-5.796,-11.73,-1.582,7.765,-6.615,46.921,5.865,17.595
4.07,-1.581,7.089,6.658,-11.73,1.15,7.568,-6.371,-11.73,-1.726,7.19,-6.759,46.921,5.865,17.595
4.075,-1.341,7.041,6.514,-11.73,1.102,7.329,-6.323,-11.73,-1.582,6.902,-6.615,41.056,11.73,11.73
4.08,-1.054,7.329,6.419,-5.865,1.054,7.329,-6.227,-11.73,-1.007,6.902,-6.615,41.056,23.46,5.865
4.085,-0.958,7.808,5.94,-0.0,1.006,7.712,-6.083,0.0,-0.575,7.19,-6.327,35.191,23.46,5.865
4.09,-0.862,8.287,5.173,5.865,1.054,8.191,-5.604,0.0,-0.288,7.765,-5.608,29.326,23.46,0.0
4.095,-0.719,8.718,4.694,11.73,1.054,8.622,-4.838,5.865,0.0,8.34,-5.033,23.46,23.46,-5.865
4.1,-0.671,8.814,4.598,17.595,0.862,8.909,-4.407,11.73,0.0,8.772,-4.745,17.595,17.595,-11.73
4.105,-0.623,8.67,4.455,23.46,0.719,8.909,-4.311,17.595,0.0,8.916,-4.602,5.865,11.73,-17.595
4.11,-0.623,8.478,4.263,23.46,0.623,8.622,-4.167,23.46,-0.144,8.772,-4.458,5.865,11.73,-23.46
4.115,-0.479,8.287,4.215,23.46,0.527,8.383,-3.976,23.46,-0.144,8.628,-4.314,5.865,5.865,-23.46
4.12,-0.383,8.287,4.119,23.46,0.383,8.239,-3.928,23.46,0.0,8.34,-4.314,5.865,5.865,-23.46
4.125,-0.287,8.287,3.976,17.595,0.335,8.239,-3.832,23.46,0.144,8.484,-4.17,5.865,5.865,-17.595
4.13,-0.287,8.239,3.784,11.73,0.192,8.191,-3.688,17.595,0.144,8.34,-3.883,17.595,5.865,-11.73
4.135,-0.24,8.335,3.64,5.865,0.192,8.191,-3.497,11.73,0.288,8.34,-3.739,17.595,5.865,-11.73
4.14,-0.287,8.478,3.593,-0.0,0.192,8.383,-3.353,5.865,0.288,8.484,-3.739,17.595,5.865,0.0
4.1450000000000005,-0.335,8.574,3.64,-0.0,0.24,8.526,-3.353,0.0,0.144,8.484,-3.739,17.595,5.865,0.0
4.15,-0.431,8.478,3.784,-5.865,0.287,8.622,-3.401,0.0,0.0,8.484,-3.739,5.865,5.865,5.865
4.155,-0.479,8.43,4.024,-5.865,0.287,8.574,-3.545,0.0,0.0,8.484,-4.026,5.865,5.865,5.865
4.16,-0.575,8.383,4.167,-5.865,0.335,8.478,-3.736,-5.865,-0.144,8.34,-4.17,5.865,5.865,5.865
4.165,-0.623,8.287,4.263,-5.865,0.527,8.478,-3.88,0.0,-0.144,8.34,-4.314,5.865,5.865,5.865
4.17,-0.479,8.239,4.359,-0.0,0.527,8.383,-3.976,0.0,-0.144,8.197,-4.458,5.865,5.865,0.0
4.175,-0.575,8.239,4.359,-0.0,0.431,8.383,-4.072,0.0,0.0,8.197,-4.458,5.865,5.865,0.0
4.18,-0.623,8.335,4.455,-0.0,0.527,8.383,-4.072,0.0,-0.144,8.197,-4.458,0.0,5.865,0.0
4.1850000000000005,-0.623,8.335,4.503,5.865,0.527,8.43,-4.167,5.865,-0.144,8.34,-4.458,0.0,0.0,0.0
4.19,-0.623,8.335,4.503,5.865,0.575,8.43,-4.215,5.865,-0.144,8.34,-4.602,0.0,0.0,-5.865
4.195,-0.623,8.383,4.551,5.865,0.527,8.335,-4.215,5.865,-0.144,8.484,-4.602,-5.865,0.0,-5.865
4.2,-0.671,8.383,4.455,5.865,0.527,8.335,-4.263,11.73,-0.288,8.484,-4.602,-5.865,0.0,-5.865
4.205,-0.671,8.335,4.455,5.865,0.575,8.335,-4.167,11.73,-0.288,8.484,-4.458,0.0,0.0,-5.865
4.21,-0.575,8.239,4.455,11.73,0.527,8.287,-4.167,11.73,-0.144,8.484,-4.602,-5.865,0.0,-5.865
4.215,-0.575,8.239,4.407,5.865,0.479,8.191,-4.167,11.73,-0.144,8.484,-4.458,0.0,0.0,-5.865
4.22,-0.575,8.383,4.407,5.865,0.479,8.191,-4.119,11.73,-0.144,8.484,-4.458,0.0,0.0,-5.865
4.225,-0.623,8.526,4.407,5.865,0.527,8.335,-4.119,11.73,-0.144,8.628,-4.458,0.0,0.0,-5.865
4.23,-0.671,8.622,4.407,5.865,0.575,8.478,-4.119,5.865,-0.144,8.772,-4.458,0.0,0.0,-5.865
4.235,-0.719,8.67,4.455,5.865,0.527,8.574,-4.119,5.865,-0.288,8.772,-4.458,0.0,0.0,-5.865
4.24,-0.766,8.67,4.407,5.865,0.623,8.622,-4.167,5.865,-0.288,8.916,-4.458,0.0,0.0,0.0
4.245,-0.719,8.622,4.455,5.865,0.671,8.67,-4.119,5.865,-0.288,8.772,-4.458,0.0,0.0,0.0
4.25,-0.623,8.526,4.455,5.865,0.575,8.574,-4.167,5.865,-0.144,8.772,-4.458,0.0,0.0,-5.865
4.255,-0.671,8.43,4.407,5.865,0.527,8.478,-4.167,5.865,-0.144,8.628,-4.458,5.865,0.0,-5.865
4.26,-0.719,8.43,4.407,5.865,0.575,8.383,-4.119,5.865,-0.288,8.628,-4.458,5.865,0.0,-5.865
4.265,-0.719,8.43,4.455,-0.0,0.623,8.383,-4.119,5.865,-0.288,8.628,-4.458,5.865,0.0,0.0
4.2700000000000005,-0.766,8.43,4.407,-0.0,0.623,8.43,-4.119,0.0,-0.288,8.628,-4.458,5.865,0.0,0.0
4.275,-0.766,8.43,4.407,-0.0,0.671,8.43,-4.119,0.0,-0.431,8.628,-4.458,5.865,0.0,0.0
4.28,-0.766,8.478,4.455,-0.0,0.671,8.43,-4.119,0.0,-0.288,8.628,-4.458,5.865,0.0,0.0
4.285,-0.766,8.43,4.407,-0.0,0.671,8.478,-4.119,0.0,-0.288,8.628,-4.458,5.865,0.0,0.0
4.29,-0.766,8.43,4.359,-0.0,0.671,8.478,-4.119,0.0,-0.288,8.484,-4.458,5.865,0.0,0.0
4.295,-0.719,8.335,4.359,-0.0,0.671,8.43,-4.072,0.0,-0.288,8.484,-4.458,5.865,0.0,0.0
4.3,-0.623,8.335,4.359,-0.0,0.623,8.335,-4.072,0.0,-0.144,8.34,-4.458,5.865,0.0,0.0
4.305,-0.623,8.335,4.359,-0.0,0.575,8.335,-4.072,0.0,-0.144,8.484,-4.458,5.865,0.0,0.0
4.3100000000000005,-0.623,8.335,4.407,-0.0,0.575,8.335,-4.072,0.0,-0.144,8.484,-4.458,5.865,0.0,0.0
4.315,-0.671,8.287,4.503,-0.0,0.575,8.287,-4.119,0.0,-0.144,8.484,-4.458,5.865,0.0,0.0
4.32,-0.671,8.191,4.646,-0.0,0.575,8.239,-4.215,0.0,-0.288,8.484,-4.602,5.865,-5.865,0.0
4.325,-0.623,8.047,4.742,-0.0,0.527,8.095,-4.359,0.0,-0.288,8.34,-4.745,5.865,-5.865,0.0
4.33,-0.623,7.951,4.742,-0.0,0.479,7.904,-4.455,0.0,-0.288,8.34,-4.889,5.865,0.0,0.0
4.335,-0.623,7.951,4.79,-0.0,0.479,7.76,-4.503,0.0,-0.288,8.197,-4.889,5.865,0.0,0.0
4.34,-0.623,7.999,4.742,-0.0,0.479,7.808,-4.503,0.0,-0.288,8.34,-4.889,5.865,0.0,5.865
4.345,-0.575,8.047,4.742,-5.865,0.479,7.856,-4.455,0.0,-0.144,8.34,-4.745,5.865,0.0,5.865
4.3500000000000005,-0.479,8.095,4.838,-5.865,0.431,7.856,-4.455,0.0,-0.144,8.34,-4.889,17.595,0.0,5.865
4.355,-0.575,8.095,4.838,-11.73,0.383,7.904,-4.551,-5.865,-0.144,8.34,-4.889,17.595,0.0,11.73
4.36,-0.575,8.143,4.838,-11.73,0.431,7.951,-4.551,-5.865,-0.144,8.34,-4.889,23.46,5.865,11.73
4.365,-0.575,8.287,4.886,-11.73,0.479,7.999,-4.551,-11.73,-0.144,8.34,-4.889,23.46,5.865,11.73
4.37,-0.766,8.383,4.838,-17.595,0.431,8.239,-4.551,-11.73,-0.288,8.34,-4.889,23.46,5.865,17.595
4.375,-0.671,8.43,4.982,-11.73,0.671,8.526,-4.551,-17.595,-0.288,8.34,-5.033,23.46,5.865,17.595
4.38,-0.479,8.383,5.077,-17.595,0.623,8.574,-4.694,-11.73,-0.144,8.34,-5.177,23.46,0.0,17.595
4.385,-0.527,8.191,5.125,-17.595,0.383,8.43,-4.79,-17.595,-0.144,8.34,-5.177,17.595,0.0,11.73
4.39,-0.431,8.095,5.125,-17.595,0.431,8.287,-4.838,-11.73,0.0,8.053,-5.177,17.595,0.0,17.595
4.3950000000000005,-0.287,7.904,5.173,-17.595,0.335,8.191,-4.886,-17.595,0.0,8.053,-5.177,5.865,0.0,17.595
4.4,-0.287,7.76,5.173,-17.595,0.144,7.856,-4.886,-17.595,0.0,8.053,-5.321,5.865,0.0,23.46
4.405,-0.144,7.808,5.077,-23.46,0.096,7.616,-4.886,-17.595,0.0,7.909,-5.177,5.865,5.865,23.46
4.41,-0.144,7.808,4.934,-23.46,-0.048,7.664,-4.79,-17.595,0.288,8.053,-5.033,5.865,5.865,23.46
4.415,-0.096,7.951,4.838,-23.46,0.0,7.712,-4.646,-23.46,0.288,8.197,-4.889,5.865,5.865,29.326
4.42,-0.144,8.143,4.742,-23.46,-0.048,7.76,-4.551,-23.46,0.288,8.34,-4.889,17.595,5.865,29.326
4.425,-0.192,8.335,4.598,-23.46,-0.048,7.951,-4.455,-23.46,0.288,8.484,-4.745,17.595,5.865,29.326
4.43,-0.24,8.574,4.551,-23.46,0.096,8.239,-4.359,-23.46,0.144,8.484,-4.745,23.46,5.865,23.46
4.4350000000000005,-0.287,8.718,4.598,-23.46,0.192,8.574,-4.263,-23.46,0.144,8.772,-4.602,23.46,11.73,23.46
4.44,-0.383,8.718,4.455,-17.595,0.24,8.766,-4.311,-23.46,0.0,8.916,-4.602,23.46,5.865,23.46
4.445,-0.24,8.67,4.646,-17.595,0.096,8.574,-4.263,-17.595,0.144,8.916,-4.602,23.46,11.73,17.595
4.45,-0.144,8.526,4.598,-17.595,0.192,8.67,-4.359,-17.595,0.288,8.628,-4.745,23.46,11.73,17.595
4.455,-0.24,8.383,4.407,-17.595,0.048,8.478,-4.311,-17.595,0.144,8.628,-4.602,23.46,11.73,17.595
4.46,-0.671,8.287,3.401,-17.595,-0.048,8.095,-4.072,-17.595,-0.144,8.772,-4.314,23.46,11.73,17.595
4.465,-0.048,8.67,4.024,-17.595,0.048,7.52,-3.209,-17.595,-0.288,9.347,-3.739,29.326,17.595,23.46
4.47,0.287,8.766,4.311,-17.595,-0.096,8.335,-3.832,-17.595,0.863,8.772,-4.458,35.191,17.595,17.595
4.4750000000000005,-0.048,8.814,3.976,-29.326,-0.192,8.718,-3.976,-17.595,0.719,8.772,-4.314,41.056,17.595,23.46
4.48,-0.192,8.862,3.497,-35.191,-0.048,8.718,-3.64,-29.326,0.431,9.203,-3.595,41.056,17.595,35.191
4.485,-0.24,8.957,3.449,-41.056,0.0,8.622,-3.209,-41.056,0.144,9.347,-3.595,41.056,17.595,41.056
4.49,-0.192,9.149,3.545,-41.056,0.048,8.766,-3.161,-41.056,0.144,9.347,-3.595,46.921,17.595,41.056
4.495,-0.192,9.245,3.64,-35.191,0.096,9.101,-3.257,-41.056,0.431,9.203,-3.739,46.921,17.595,41.056
4.5,-0.24,9.388,3.688,-35.191,0.192,9.436,-3.353,-35.191,0.431,9.059,-3.739,46.921,17.595,35.191
4.505,-0.287,9.436,3.688,-29.326,0.24,9.676,-3.401,-35.191,0.431,9.203,-3.739,46.921,17.595,35.191
4.51,-0.335,9.436,3.64,-29.326,0.287,9.772,-3.401,-29.326,0.288,9.203,-3.739,41.056,11.73,35.191
4.515,-0.335,9.484,3.545,-29.326,0.287,9.772,-3.305,-29.326,0.288,9.059,-3.595,35.191,11.73,29.326
4.5200000000000005,-0.383,9.724,3.449,-23.46,0.383,9.963,-3.257,-29.326,0.431,9.203,-3.595,29.326,11.73,29.326
4.525,-0.431,10.059,3.305,-17.595,0.479,10.299,-3.161,-23.46,0.431,9.347,-3.595,23.46,5.865,23.46
4.53,-0.383,10.155,3.209,-17.595,0.527,10.73,-3.066,-17.595,0.431,9.491,-3.307,5.865,0.0,17.595
4.535,-0.335,10.059,3.161,-11.73,0.431,10.634,-2.97,-11.73,0.431,9.778,-3.307,0.0,0.0,11.73
4.54,-0.24,9.867,3.114,-11.73,0.287,10.394,-2.874,-11.73,0.431,9.778,-3.164,-5.865,-5.865,11.73
4.545,-0.096,9.963,3.114,-11.73,0.144,10.011,-2.826,-5.865,0.431,9.922,-3.164,-11.73,-5.865,11.73
4.55,-0.192,10.538,3.114,-11.73,0.0,9.915,-2.874,-11.73,0.431,10.497,-3.164,-11.73,-11.73,11.73
4.555,-0.623,11.448,2.922,-17.595,0.048,10.442,-2.874,-11.73,0.144,11.36,-3.164,-11.73,-11.73,17.595
4.5600000000000005,-0.862,12.023,2.635,-11.73,0.479,11.352,-2.635,-11.73,-0.288,12.223,-2.732,-11.73,-11.73,17.595
4.565,-0.671,11.879,2.539,-5.865,0.623,11.831,-2.395,-11.73,-0.288,12.654,-2.588,-5.865,-11.73,11.73
4.57,-0.335,11.4,2.73,-0.0,0.383,11.544,-2.299,-5.865,0.0,12.223,-2.588,-5.865,-11.73,5.865
4.575,-0.192,10.011,2.922,5.865,0.192,11.113,-2.491,0.0,0.431,11.36,-2.876,0.0,-11.73,0.0
4.58,0.192,8.335,2.73,-0.0,0.144,9.388,-2.635,5.865,0.575,9.491,-2.876,5.865,-11.73,0.0
4.585,0.335,8.957,2.635,-11.73,-0.192,8.191,-2.395,0.0,1.15,8.628,-2.732,5.865,-11.73,5.865
4.59,0.287,9.436,2.539,-23.46,-0.24,8.862,-2.347,-11.73,1.007,9.491,-2.732,5.865,-17.595,23.46
4.595,-0.24,10.155,2.682,-23.46,-0.431,9.245,-2.251,-23.46,0.575,10.066,-2.588,17.595,-17.595,23.46
4.6000000000000005,-0.623,10.442,3.305,-23.46,0.096,10.442,-2.443,-29.326,0.0,10.066,-3.02,17.595,-17.595,23.46
4.605,-0.479,10.251,3.736,-17.595,0.527,10.969,-3.066,-23.46,-0.144,9.922,-3.739,5.865,-17.595,23.46
4.61,-0.287,9.867,3.976,-11.73,0.287,10.682,-3.497,-11.73,0.0,9.778,-4.026,5.865,-17.595,11.73
4.615,-0.192,9.58,4.119,-5.865,0.0,10.059,-3.736,-5.865,0.0,9.635,-4.17,0.0,-17.595,11.73
4.62,-0.192,9.293,4.167,-5.865,-0.096,9.676,-3.88,-5.865,0.144,9.491,-4.17,-5.865,-17.595,5.865
4.625,-0.048,9.101,4.311,-5.865,-0.096,9.293,-3.928,-5.865,0.288,9.203,-4.314,-5.865,-11.73,5.865
4.63,0.144,9.245,4.407,-5.865,-0.192,9.053,-4.024,-5.865,0.431,9.347,-4.458,-5.865,-11.73,5.865
4.635,0.096,9.628,4.263,-5.865,-0.335,9.053,-4.119,-5.865,0.575,9.778,-4.458,-5.865,-11.73,5.865
4.64,-0.096,9.82,4.024,-5.865,-0.287,9.436,-3.976,-5.865,0.575,10.066,-4.17,-5.865,-5.865,5.865
4.6450000000000005,-0.048,9.867,3.784,-5.865,-0.048,9.628,-3.736,-5.865,0.431,10.21,-3.883,0.0,-5.865,5.865
4.65,0.096,9.772,3.593,-11.73,-0.144,9.58,-3.497,-5.865,0.575,10.21,-3.739,0.0,-5.865,11.73
4.655,0.096,9.772,3.593,-5.865,-0.287,9.532,-3.353,-5.865,0.575,10.066,-3.595,5.865,-5.865,11.73
4.66,-0.144,8.526,3.688,-5.865,-0.24,9.676,-3.305,-5.865,0.719,9.922,-3.739,5.865,-5.865,5.865
4.665,0.383,10.011,3.88,-5.865,-0.479,10.873,-3.497,0.0,0.863,9.491,-3.883,5.865,-5.865,5.865
4.67,0.24,9.867,4.024,-5.865,-0.335,9.197,-3.64,11.73,0.863,10.066,-4.026,5.865,-11.73,5.865
4.675,0.144,9.676,4.024,-0.0,-0.335,9.484,-3.784,17.595,0.575,9.778,-4.17,5.865,-11.73,5.865
4.68,0.24,9.628,3.976,-0.0,-0.192,9.724,-3.736,11.73,0.719,9.635,-4.026,5.865,-11.73,0.0
4.6850000000000005,0.287,9.628,3.832,-0.0,-0.335,9.58,-3.688,11.73,0.719,9.491,-4.026,5.865,-11.73,0.0
4.69,0.192,9.628,3.784,5.865,-0.335,9.58,-3.545,17.595,0.863,9.635,-3.883,5.865,-11.73,0.0
4.695,0.192,9.724,3.784,5.865,-0.24,9.676,-3.497,17.595,0.719,9.635,-3.883,5.865,-11.73,-5.865
4.7,0.144,9.676,3.784,5.865,-0.24,9.628,-3.545,17.595,0.719,9.778,-3.883,5.865,-11.73,-5.865
4.705,0.144,9.628,3.784,5.865,-0.192,9.58,-3.545,17.595,0.719,9.778,-3.883,5.865,-11.73,-5.865
4.71,0.144,9.341,3.784,5.865,-0.192,9.436,-3.497,17.595,0.719,9.635,-3.883,5.865,-11.73,-5.865
4.715,0.24,9.197,3.64,5.865,-0.24,9.245,-3.497,17.595,0.719,9.491,-3.883,5.865,-11.73,-5.865
4.72,0.24,9.341,3.593,5.865,-0.287,9.197,-3.401,11.73,0.719,9.347,-3.739,5.865,-11.73,0.0
4.7250000000000005,0.144,9.388,3.64,-0.0,-0.24,9.149,-3.353,11.73,0.719,9.491,-3.739,5.865,-11.73,0.0
4.73,0.096,9.436,3.688,-0.0,-0.144,9.341,-3.401,11.73,0.719,9.491,-3.739,5.865,-11.73,0.0
4.735,0.144,9.532,3.688,-0.0,-0.144,9.341,-3.449,11.73,0.719,9.635,-3.739,5.865,-11.73,0.0
4.74,0.144,9.676,3.688,-0.0,-0.192,9.436,-3.449,5.865,0.575,9.778,-3.739,5.865,-11.73,0.0
4.745,0.192,9.772,3.64,-0.0,-0.192,9.436,-3.449,11.73,0.575,9.922,-3.739,5.865,-11.73,0.0
4.75,0.24,9.724,3.545,5.865,-0.24,9.484,-3.401,11.73,0.719,9.922,-3.595,5.865,-5.865,0.0
4.755,0.24,9.724,3.497,5.865,-0.287,9.484,-3.257,11.73,0.719,9.922,-3.595,5.865,-5.865,-5.865
4.76,0.287,9.772,3.497,11.73,-0.24,9.532,-3.257,11.73,0.719,9.922,-3.595,17.595,-5.865,-5.865
4.765,0.287,9.724,3.497,11.73,-0.24,9.628,-3.209,11.73,0.863,9.778,-3.595,17.595,-5.865,-11.73
4.7700000000000005,0.192,9.628,3.593,17.595,-0.24,9.724,-3.209,17.595,0.863,9.635,-3.595,5.865,-5.865,-11.73
4.775,0.287,9.58,3.64,17.595,-0.144,9.628,-3.305,17.595,0.863,9.491,-3.739,5.865,-5.865,-17.595
4.78,0.287,9.532,3.736,17.595,-0.192,9.58,-3.401,17.595,1.007,9.635,-3.739,5.865,-5.865,-17.595
4.785,0.192,9.532,3.688,17.595,-0.144,9.532,-3.449,17.595,0.863,9.635,-3.739,5.865,-11.73,-17.595
4.79,0.144,9.628,3.593,17.595,-0.144,9.484,-3.401,17.595,0.719,9.635,-3.739,5.865,-11.73,-17.595
4.795,0.192,9.724,3.593,17.595,-0.096,9.58,-3.353,17.595,0.719,9.922,-3.595,5.865,-11.73,-11.73
4.8,0.192,9.676,3.545,11.73,-0.096,9.58,-3.305,17.595,0.719,9.922,-3.595,5.865,-11.73,-11.73
4.805,0.24,9.676,3.545,11.73,-0.096,9.58,-3.257,17.595,0.863,9.922,-3.595,5.865,-17.595,-11.73
4.8100000000000005,0.192,9.628,3.545,11.73,-0.144,9.532,-3.257,17.595,0.719,9.922,-3.595,5.865,-17.595,-11.73
4.815,0.192,9.58,3.545,11.73,-0.144,9.484,-3.305,11.73,0.719,9.922,-3.595,5.865,-17.595,-11.73
4.82,0.24,9.58,3.545,11.73,-0.192,9.436,-3.257,17.595,0.719,9.778,-3.595,5.865,-17.595,-11.73
4.825,0.287,9.58,3.449,11.73,-0.24,9.436,-3.257,17.595,0.863,9.778,-3.595,17.595,-17.595,-11.73
4.83,0.335,9.628,3.449,11.73,-0.287,9.436,-3.209,11.73,0.863,9.778,-3.595,17.595,-17.595,-11.73
4.835,0.24,9.628,3.497,11.73,-0.24,9.436,-3.161,11.73,0.863,9.778,-3.595,23.46,-17.595,-11.73
4.84,0.192,9.676,3.64,11.73,-0.192,9.532,-3.209,11.73,0.719,9.778,-3.595,23.46,-17.595,-11.73
4.845,0.144,9.676,3.784,11.73,-0.144,9.628,-3.353,11.73,0.719,9.778,-3.739,23.46,-17.595,-11.73
4.8500000000000005,0.096,9.628,3.88,11.73,-0.096,9.676,-3.497,11.73,0.719,9.778,-3.883,23.46,-17.595,-11.73
4.855,0.096,9.628,3.832,11.73,-0.048,9.676,-3.593,11.73,0.575,9.635,-3.883,23.46,-17.595,-11.73
4.86,0.096,9.676,3.784,11.73,-0.048,9.676,-3.545,11.73,0.719,9.635,-3.883,23.46,-17.595,-11.73
4.865,0.144,9.724,3.784,17.595,-0.048,9.724,-3.497,17.595,0.719,9.778,-3.883,17.595,-17.595,-11.73
4.87,0.24,9.772,3.736,17.595,-0.048,9.724,-3.545,17.595,0.863,9.778,-3.883,17.595,-17.595,-17.595
4.875,0.192,9.82,3.593,17.595,-0.144,9.724,-3.449,17.595,0.863,9.922,-3.739,17.595,-23.46,-11.73
4.88,0.192,9.867,3.545,11.73,-0.096,9.724,-3.305,17.595,0.863,10.066,-3.595,17.595,-23.46,-11.73
4.885,0.24,9.867,3.497,11.73,-0.096,9.676,-3.305,17.595,0.863,10.066,-3.595,17.595,-23.46,-11.73
4.89,0.192,9.772,3.449,11.73,-0.096,9.676,-3.209,17.595,0.863,10.066,-3.595,23.46,-23.46,-11.73
4.8950000000000005,0.144,9.724,3.449,11.73,-0.144,9.628,-3.209,11.73,0.863,9.922,-3.595,23.46,-23.46,-11.73
4.9,0.144,9.676,3.449,11.73,-0.096,9.58,-3.209,11.73,0.719,9.922,-3.595,23.46,-29.326,-11.73
4.905,0.192,9.532,3.401,11.73,-0.144,9.532,-3.161,11.73,0.719,9.778,-3.451,29.326,-29.326,-11.73
4.91,0.335,9.388,3.401,11.73,-0.144,9.436,-3.114,11.73,0.863,9.635,-3.451,29.326,-29.326,-11.73
4.915,0.383,9.101,3.353,11.73,-0.24,9.293,-3.114,11.73,1.007,9.347,-3.451,29.326,-29.326,-11.73
4.92,0.431,9.101,3.209,5.865,-0.287,9.053,-3.066,11.73,1.007,9.203,-3.307,29.326,-29.326,-11.73
4.925,0.335,9.149,3.209,5.865,-0.383,9.101,-2.922,11.73,1.007,9.203,-3.307,29.326,-29.326,-5.865
4.93,0.383,9.245,3.305,5.865,-0.287,9.101,-2.922,11.73,0.863,9.203,-3.307,29.326,-29.326,-5.865
4.9350000000000005,0.287,9.245,3.257,5.865,-0.383,9.149,-3.018,5.865,1.007,9.347,-3.451,29.326,-29.326,-5.865
4.94,0.383,9.293,3.066,5.865,-0.192,9.197,-2.97,5.865,0.863,9.347,-3.164,29.326,-29.326,-5.865
4.945,0.431,9.293,2.97,5.865,-0.335,9.149,-2.73,5.865,1.007,9.491,-3.02,29.326,-29.326,-5.865
4.95,0.479,9.341,3.114,5.865,-0.335,9.245,-2.682,5.865,1.15,9.491,-3.164,29.326,-35.191,0.0
4.955,0.383,9.293,3.257,-0.0,-0.383,9.341,-2.826,5.865,1.15,9.491,-3.307,29.326,-35.191,0.0
4.96,0.096,8.909,3.353,-0.0,-0.287,9.341,-2.97,5.865,1.15,9.778,-3.451,29.326,-35.191,-5.865
4.965,0.24,9.388,3.449,-0.0,-0.144,9.053,-3.066,5.865,0.719,9.491,-3.595,23.46,-35.191,-5.865
4.97,0.335,9.388,3.353,-0.0,-0.24,9.293,-3.161,0.0,0.863,9.491,-3.451,23.46,-35.191,-11.73
4.9750000000000005,0.431,9.532,3.305,-0.0,-0.287,9.293,-3.066,0.0,1.007,9.635,-3.451,29.326,-35.191,-11.73
4.98,0.431,9.484,3.257,-0.0,-0.335,9.436,-3.066,0.0,1.007,9.778,-3.451,29.326,-35.191,-11.73
4.985,0.527,9.772,3.209,-0.0,-0.383,9.58,-2.97,0.0,1.007,9.778,-3.307,29.326,-35.191,-11.73
4.99,0.719,10.059,3.161,-5.865,-0.383,9.724,-2.922,0.0,1.15,9.922,-3.307,29.326,-41.056,-11.73
4.995,0.671,10.011,3.114,-5.865,-0.575,9.867,-2.874,0.0,1.294,9.922,-3.164,29.326,-41.056,-11.73
5.0,0.814,10.059,3.066,-5.865,-0.479,9.915,-2.826,0.0,1.294,10.066,-3.164,29.326,-41.056,-5.865
5.005,0.766,9.963,2.97,-5.865,-0.671,9.915,-2.778,0.0,1.438,10.066,-3.164,29.326,-41.056,-5.865
5.01,0.814,10.011,2.922,-5.865,-0.671,9.867,-2.682,-5.865,1.294,10.066,-3.02,29.326,-46.921,-5.865
5.015,0.623,9.867,2.97,-5.865,-0.719,9.867,-2.682,0.0,1.438,10.066,-3.02,35.191,-46.921,-5.865
5.0200000000000005,0.814,9.915,3.018,-5.865,-0.575,9.772,-2.682,0.0,1.15,9.922,-3.02,35.191,-46.921,-5.865
5.025,0.766,9.724,2.97,-5.865,-0.671,9.82,-2.73,0.0,1.582,9.922,-3.164,35.191,-46.921,-5.865
5.03,0.91,9.724,2.922,-5.865,-0.671,9.676,-2.635,0.0,1.294,9.778,-3.02,35.191,-52.786,-5.865
5.035,0.958,9.724,2.922,-0.0,-0.766,9.676,-2.587,0.0,1.438,9.778,-3.02,35.191,-52.786,-11.73
5.04,0.958,9.724,2.922,-0.0,-0.814,9.628,-2.635,5.865,1.294,9.778,-3.02,35.191,-52.786,-11.73
5.045,0.958,9.58,2.922,-0.0,-0.766,9.628,-2.635,5.865,1.582,9.778,-3.02,35.191,-52.786,-11.73
5.05,1.245,9.532,2.778,-0.0,-0.814,9.532,-2.587,5.865,1.582,9.635,-2.876,35.191,-58.651,-11.73
5.055,1.15,9.245,2.635,-0.0,-1.006,9.484,-2.443,5.865,1.726,9.347,-2.732,35.191,-58.651,-11.73
5.0600000000000005,1.102,9.005,2.587,-0.0,-0.958,9.101,-2.299,5.865,1.582,9.059,-2.732,35.191,-64.516,-11.73
5.065,1.006,8.766,2.539,-0.0,-0.958,8.862,-2.251,5.865,1.294,8.772,-2.588,35.191,-64.516,-11.73
5.07,0.958,8.526,2.682,5.865,-0.91,8.718,-2.251,5.865,1.294,8.628,-2.732,29.326,-64.516,-11.73
5.075,1.102,8.383,2.874,-0.0,-0.862,8.478,-2.395,5.865,1.294,8.484,-2.876,29.326,-64.516,-11.73
5.08,1.102,8.43,2.922,-0.0,-0.958,8.335,-2.587,5.865,1.582,8.484,-3.02,29.326,-70.381,-5.865
5.085,1.102,8.718,2.826,-5.865,-0.91,8.383,-2.587,0.0,1.726,8.772,-3.02,29.326,-70.381,-5.865
5.09,1.006,9.005,2.778,-11.73,-0.91,8.67,-2.491,-5.865,1.438,9.059,-2.876,29.326,-70.381,0.0
5.095,0.862,9.149,2.73,-11.73,-0.862,8.862,-2.443,-5.865,1.438,9.347,-2.876,29.326,-70.381,0.0
5.1000000000000005,1.006,9.293,2.778,-11.73,-0.814,9.005,-2.395,-11.73,1.15,9.347,-2.876,29.326,-70.381,0.0
5.105,0.91,9.341,2.874,-11.73,-0.91,9.197,-2.491,-5.865,1.294,9.491,-3.02,29.326,-76.246,0.0
5.11,0.91,9.388,2.874,-5.865,-0.862,9.293,-2.539,-5.865,1.294,9.491,-3.02,35.191,-76.246,0.0
5.115,1.15,9.341,2.826,-0.0,-0.862,9.388,-2.539,-5.865,1.294,9.491,-3.02,29.326,-76.246,-5.865
5.12,1.102,9.101,2.778,5.865,-0.958,9.245,-2.491,0.0,1.438,9.203,-2.876,29.326,-76.246,-11.73
5.125,1.293,8.957,2.73,11.73,-1.006,9.101,-2.443,5.865,1.438,8.916,-2.876,29.326,-76.246,-17.595
5.13,1.437,8.814,2.682,17.595,-1.198,8.957,-2.395,11.73,1.582,8.916,-2.732,29.326,-82.111,-23.46
5.135,1.533,8.718,2.587,23.46,-1.293,8.766,-2.347,17.595,1.582,8.772,-2.732,29.326,-82.111,-23.46
5.14,1.533,8.67,2.539,23.46,-1.341,8.67,-2.251,23.46,1.726,8.628,-2.588,29.326,-82.111,-23.46
5.1450000000000005,1.485,8.766,2.491,29.326,-1.389,8.622,-2.203,23.46,1.726,8.772,-2.588,29.326,-82.111,-23.46
5.15,1.437,8.862,2.395,29.326,-1.389,8.622,-2.156,23.46,1.726,8.916,-2.588,23.46,-87.977,-23.46
5.155,1.485,9.005,2.347,29.326,-1.293,8.718,-2.06,23.46,1.726,9.203,-2.445,29.326,-87.977,-23.46
5.16,1.533,9.101,2.251,23.46,-1.389,8.814,-2.012,23.46,1.869,9.203,-2.445,29.326,-87.977,-23.46
5.165,1.437,9.197,2.251,29.326,-1.389,8.957,-1.868,23.46,1.726,9.347,-2.301,29.326,-87.977,-23.46
5.17,1.341,9.245,2.347,23.46,-1.293,9.005,-1.916,23.46,1.726,9.347,-2.445,29.326,-87.977,-23.46
5.175,1.245,9.293,2.539,29.326,-1.198,9.149,-2.012,23.46,1.582,9.491,-2.588,29.326,-93.842,-23.46
5.18,1.15,9.341,2.73,29.326,-1.102,9.245,-2.203,29.326,1.438,9.491,-2.732,29.326,-93.842,-23.46
5.1850000000000005,1.198,9.436,2.874,35.191,-1.102,9.245,-2.443,29.326,1.438,9.491,-2.876,29.326,-93.842,-29.326
5.19,1.102,9.58,2.826,35.191,-1.054,9.388,-2.539,29.326,1.438,9.635,-3.02,35.191,-93.842,-35.191
5.195,1.006,9.676,2.874,41.056,-0.958,9.532,-2.491,35.191,1.294,9.778,-2.876,35.191,-93.842,-35.191
5.2,0.862,9.628,3.018,41.056,-0.91,9.58,-2.587,41.056,1.007,9.778,-3.164,35.191,-93.842,-41.056
5.205,0.814,9.628,3.066,46.921,-0.814,9.484,-2.73,41.056,1.007,9.778,-3.164,35.191,-93.842,-46.921
5.21,0.814,9.724,3.114,46.921,-0.814,9.484,-2.778,46.921,1.007,9.922,-3.164,35.191,-93.842,-46.921
5.215,0.814,9.724,3.114,46.921,-0.766,9.58,-2.826,46.921,1.007,9.922,-3.307,35.191,-93.842,-46.921
5.22,0.671,9.867,3.114,46.921,-0.671,9.724,-2.778,46.921,1.007,9.778,-3.307,35.191,-93.842,-46.921
5.2250000000000005,0.479,9.963,3.114,46.921,-0.527,9.915,-2.826,46.921,0.863,9.922,-3.307,35.191,-93.842,-46.921
5.23,0.24,9.963,3.066,46.921,-0.335,10.059,-2.778,46.921,0.575,9.778,-3.164,35.191,-93.842,-46.921
5.235,0.287,9.915,3.066,46.921,-0.144,10.107,-2.73,41.056,0.431,9.778,-3.164,35.191,-93.842,-46.921
5.24,0.287,9.915,2.922,46.921,-0.144,10.107,-2.73,46.921,0.431,9.635,-3.164,29.326,-93.842,-46.921
5.245,0.048,10.107,2.443,41.056,-0.048,10.251,-2.539,41.056,0.575,9.491,-2.876,29.326,-93.842,-41.056
5.25,0.383,10.011,2.587,41.056,0.287,10.778,-2.108,41.056,0.575,9.491,-2.588,17.595,-93.842,-41.056
5.255,1.916,9.82,1.389,41.056,-0.192,10.538,-2.203,41.056,1.438,8.916,-2.013,5.865,-99.707,-41.056
5.26,0.192,9.484,1.437,52.786,-1.341,10.634,-1.006,35.191,1.582,9.059,-1.726,0.0,-99.707,-41.056
5.265,0.335,9.628,1.677,58.651,0.144,9.772,-1.054,52.786,0.144,9.347,-1.726,-11.73,-111.437,-58.651
5.2700000000000005,0.862,9.053,1.82,46.921,-0.431,9.772,-1.293,52.786,0.719,9.491,-1.869,-17.595,-111.437,-52.786
5.275,1.198,8.478,1.485,41.056,-0.719,8.909,-1.437,46.921,1.294,8.916,-1.726,-17.595,-111.437,-41.056
5.28,1.15,8.478,1.102,41.056,-1.198,8.191,-1.102,41.056,1.294,8.772,-1.438,-17.595,-111.437,-41.056
5.285,1.389,9.101,0.671,35.191,-1.102,8.095,-0.719,35.191,2.013,9.635,-1.007,-17.595,-111.437,-35.191
5.29,1.341,9.341,0.287,29.326,-0.91,8.67,-0.192,35.191,1.582,9.635,-0.431,-5.865,-111.437,-29.326
5.295,1.245,9.388,-0.527,23.46,-1.293,8.909,0.192,29.326,1.438,10.21,0.144,-5.865,-111.437,-23.46
5.3,1.15,9.676,-0.766,23.46,-0.91,8.957,0.862,23.46,1.438,9.922,0.575,5.865,-111.437,-23.46
5.305,1.341,9.82,-0.862,35.191,-1.006,9.58,1.15,23.46,1.582,9.922,0.719,5.865,-117.302,-29.326
5.3100000000000005,1.677,9.724,-1.102,46.921,-1.102,9.82,1.245,35.191,2.157,9.778,0.863,5.865,-117.302,-41.056
5.315,1.82,9.484,-1.437,46.921,-1.245,9.915,1.533,46.921,2.445,9.347,1.15,5.865,-123.167,-46.921
5.32,1.916,9.245,-1.677,52.786,-1.341,9.724,1.868,46.921,2.588,9.203,1.438,5.865,-129.032,-52.786
5.325,2.012,9.101,-1.772,52.786,-1.485,9.293,2.108,46.921,2.732,9.203,1.726,5.865,-134.897,-46.921
5.33,2.012,9.005,-1.677,52.786,-1.629,9.053,2.203,46.921,2.732,9.203,1.726,5.865,-140.762,-52.786
5.335,2.012,8.957,-1.341,52.786,-1.629,8.957,2.108,52.786,2.732,9.059,1.438,5.865,-146.628,-52.786
5.34,2.012,8.909,-0.766,52.786,-1.629,9.005,1.772,52.786,2.732,8.772,1.007,5.865,-152.493,-52.786
5.345,1.916,8.909,-0.24,52.786,-1.629,9.101,1.198,52.786,2.588,8.628,0.288,0.0,-158.358,-52.786
5.3500000000000005,1.772,8.862,0.335,52.786,-1.581,9.197,0.671,52.786,2.445,8.628,-0.288,0.0,-164.223,-52.786
5.355,1.724,8.766,1.054,52.786,-1.437,9.101,0.096,52.786,2.301,8.628,-0.863,-5.865,-170.088,-52.786
5.36,1.629,8.67,2.012,52.786,-1.485,8.862,-0.623,52.786,2.157,8.628,-1.726,-11.73,-175.953,-52.786
5.365,1.437,8.526,3.257,52.786,-1.389,8.718,-1.581,52.786,1.869,8.484,-2.876,-11.73,-175.953,-52.786
5.37,1.293,8.478,4.838,52.786,-1.293,8.526,-2.874,52.786,1.582,8.34,-4.314,-17.595,-175.953,-52.786
5.375,1.006,8.526,6.61,52.786,-1.245,8.478,-4.503,52.786,1.15,8.484,-6.04,-17.595,-181.818,-52.786
5.38,0.575,8.67,8.335,46.921,-1.198,8.43,-6.323,46.921,0.431,8.628,-7.765,-17.595,-175.953,-46.921
5.385,0.144,8.814,9.963,41.056,-1.006,8.43,-8.095,46.921,-0.431,8.916,-9.491,-17.595,-170.088,-41.056
5.39,-0.335,8.957,11.352,35.191,-0.814,8.43,-9.772,41.056,-1.15,9.347,-10.929,-17.595,-164.223,-41.056
5.3950000000000005,-0.719,9.101,12.454,29.326,-0.623,8.478,-11.209,35.191,-1.869,9.635,-12.223,-11.73,-146.628,-35.191
5.4,-1.006,9.388,13.029,29.326,-0.383,8.526,-12.262,29.326,-2.445,9.778,-12.942,-5.865,-129.032,-29.326
5.405,-1.198,9.628,13.22,23.46,-0.144,8.814,-12.885,29.326,-2.732,10.21,-13.373,0.0,-105.572,-23.46
5.41,-1.389,9.724,13.077,23.46,0.048,9.053,-13.077,23.46,-2.876,10.21,-13.373,5.865,-82.111,-23.46
5.415,-1.293,9.724,12.55,23.46,0.287,9.197,-12.885,23.46,-2.732,10.21,-12.942,5.865,-58.651,-17.595
5.42,-1.102,9.724,11.879,17.595,0.335,9.293,-12.358,23.46,-2.445,10.21,-12.367,23.46,-41.056,-17.595
5.425,-1.054,9.676,11.113,17.595,0.24,9.341,-11.64,17.595,-2.301,10.066,-11.648,29.326,-23.46,-17.595
5.43,-1.006,9.772,10.251,17.595,0.24,9.388,-10.921,17.595,-1.869,10.066,-10.785,29.326,-5.865,-17.595
5.4350000000000005,-0.814,9.628,9.101,17.595,0.431,9.532,-9.963,23.46,-1.869,9.778,-9.635,29.326,11.73,-17.595
5.44,-0.623,9.484,7.76,23.46,0.144,9.532,-8.814,17.595,-1.15,9.635,-8.484,35.191,29.326,-17.595
5.445,-0.192,9.388,6.179,23.46,0.335,9.436,-7.377,23.46,-0.863,9.347,-7.046,35.191,41.056,-17.595
5.45,0.144,9.245,4.646,23.46,-0.048,9.484,-5.796,23.46,-0.144,9.203,-5.464,29.326,46.921,-23.46
5.455,0.527,8.957,3.066,29.326,-0.096,9.293,-4.215,29.326,0.431,8.916,-3.883,29.326,52.786,-23.46
5.46,0.719,8.574,1.341,29.326,-0.479,9.101,-2.635,29.326,1.007,8.628,-2.301,29.326,52.786,-23.46
5.465,1.15,8.383,-0.527,23.46,-0.431,8.718,-0.814,29.326,1.438,8.197,-0.431,23.46,52.786,-23.46
5.47,1.389,8.143,-2.491,23.46,-0.766,8.526,1.054,23.46,1.869,8.053,1.582,23.46,46.921,-23.46
5.4750000000000005,1.581,8.047,-4.503,17.595,-0.958,8.239,3.018,23.46,2.157,8.197,3.451,17.595,41.056,-17.595
5.48,1.868,8.239,-6.179,23.46,-1.054,8.047,4.982,23.46,2.588,8.34,5.464,5.865,35.191,-17.595
5.485,2.203,8.43,-7.808,17.595,-1.15,8.143,6.658,23.46,3.307,8.628,7.19,5.865,29.326,-17.595
5.49,2.395,8.574,-9.101,17.595,-1.437,8.43,8.287,17.595,3.739,8.628,8.628,5.865,17.595,-17.595
5.495,2.73,8.814,-10.011,11.73,-1.341,8.622,9.532,17.595,4.17,8.916,9.778,17.595,0.0,-17.595
5.5,2.97,9.005,-10.778,11.73,-1.581,8.814,10.49,17.595,4.745,9.059,10.641,17.595,-17.595,-11.73
5.505,2.922,9.149,-11.065,11.73,-1.677,9.101,11.209,17.595,4.889,9.203,11.216,17.595,-35.191,-11.73
5.51,2.826,9.341,-10.825,17.595,-1.581,9.388,11.496,17.595,4.889,9.059,11.073,17.595,-58.651,-11.73
5.515,2.682,9.58,-10.155,17.595,-1.581,9.724,11.209,11.73,4.458,9.203,10.641,5.865,-82.111,-11.73
5.5200000000000005,2.299,9.676,-9.436,17.595,-1.533,9.963,10.538,17.595,4.026,9.347,9.778,5.865,-105.572,-17.595
5.525,2.156,9.724,-8.574,23.46,-1.293,10.251,9.867,17.595,3.739,9.203,9.059,5.865,-123.167,-17.595
5.53,2.251,9.724,-7.568,29.326,-1.245,10.394,9.005,17.595,3.595,9.059,8.053,-5.865,-140.762,-23.46
5.535,2.395,9.676,-6.467,35.191,-1.389,10.394,7.999,23.46,3.739,9.059,6.902,-11.73,-158.358,-23.46
5.54,2.395,9.58,-5.173,41.056,-1.533,10.251,6.946,29.326,3.595,9.203,5.752,-23.46,-170.088,-35.191
5.545,2.443,9.484,-3.64,41.056,-1.677,9.915,5.604,35.191,3.451,9.347,4.17,-29.326,-187.683,-41.056
5.55,2.443,9.341,-1.82,46.921,-1.868,9.676,4.072,41.056,3.307,9.203,2.588,-35.191,-199.413,-41.056
5.555,2.251,9.341,0.24,46.921,-2.012,9.388,2.203,41.056,3.02,9.203,0.575,-35.191,-205.279,-46.921
5.5600000000000005,2.012,9.436,2.491,41.056,-2.012,9.293,0.192,41.056,2.445,9.347,-1.726,-41.056,-217.009,-46.921
5.565,1.581,9.628,4.694,41.056,-2.012,9.293,-2.108,41.056,1.869,9.778,-4.026,-41.056,-217.009,-41.056
5.57,1.006,9.915,6.754,35.191,-1.868,9.341,-4.359,35.191,0.863,10.066,-6.183,-41.056,-217.009,-35.191
5.575,0.479,10.155,8.67,29.326,-1.533,9.58,-6.467,29.326,-0.144,10.497,-8.053,-35.191,-211.144,-35.191
5.58,-0.048,10.442,10.299,29.326,-1.245,9.724,-8.43,29.326,-0.863,10.641,-9.922,-29.326,-199.413,-23.46
5.585,-0.575,10.634,11.496,29.326,-0.814,10.059,-10.107,23.46,-1.582,10.929,-11.216,-29.326,-187.683,-23.46
5.59,-0.862,10.921,12.31,29.326,-0.431,10.251,-11.304,29.326,-2.013,11.216,-12.223,-23.46,-170.088,-23.46
5.595,-1.245,11.113,12.646,29.326,-0.144,10.442,-12.119,23.46,-2.445,11.504,-12.798,-17.595,-146.628,-23.46
5.6000000000000005,-1.389,11.113,12.598,29.326,0.287,10.73,-12.454,29.326,-2.588,11.504,-12.942,-17.595,-129.032,-23.46
5.605,-1.389,10.825,12.358,35.191,0.527,10.825,-12.406,29.326,-2.445,11.216,-12.654,-11.73,-111.437,-29.326
5.61,-1.341,10.394,12.119,35.191,0.623,10.538,-12.167,35.191,-2.445,10.929,-12.367,-5.865,-93.842,-35.191
5.615,-1.389,10.059,11.879,41.056,0.671,10.203,-11.975,35.191,-2.301,10.21,-12.223,-5.865,-76.246,-35.191
5.62,-1.533,9.676,11.4,41.056,0.766,10.059,-11.64,35.191,-2.301,9.778,-11.792,-5.865,-64.516,-35.191
5.625,-1.533,9.197,10.538,41.056,1.054,9.772,-11.161,41.056,-2.301,9.203,-11.216,-5.865,-46.921,-41.056
5.63,-1.389,8.67,9.436,41.056,1.054,9.245,-10.251,41.056,-2.157,8.916,-10.066,-11.73,-35.191,-41.056
5.635,-1.15,8.239,8.383,41.056,1.006,8.67,-9.149,41.056,-1.726,8.34,-9.059,-11.73,-29.326,-41.056
5.64,-0.91,7.904,7.425,41.056,0.814,8.239,-8.047,41.056,-1.294,8.053,-7.909,-11.73,-17.595,-41.056
5.6450000000000005,-0.862,7.712,6.562,35.191,0.766,7.904,-7.089,41.056,-1.15,7.765,-7.046,-17.595,-11.73,-41.056
5.65,-0.91,7.616,5.604,35.191,0.766,7.76,-6.227,35.191,-1.007,7.621,-6.183,-17.595,-5.865,-35.191
5.655,-0.814,7.712,4.598,35.191,0.814,7.664,-5.221,35.191,-1.007,7.765,-5.177,-17.595,0.0,-35.191
5.66,-0.623,7.76,3.64,29.326,0.766,7.712,-4.215,35.191,-0.719,7.909,-4.17,-17.595,0.0,-29.326
5.665,-0.383,7.76,2.682,29.326,0.766,7.76,-3.257,29.326,-0.288,7.909,-3.164,-17.595,5.865,-29.326
5.67,-0.144,7.76,1.724,29.326,0.575,7.808,-2.251,29.326,0.144,7.909,-2.157,-17.595,5.865,-23.46
5.675,0.0,7.664,0.814,29.326,0.527,7.76,-1.293,29.326,0.431,7.765,-1.294,-17.595,0.0,-23.46
5.68,0.096,7.568,0.048,23.46,0.383,7.712,-0.383,29.326,0.575,7.621,-0.431,-17.595,0.0,-23.46
5.6850000000000005,0.192,7.712,-0.527,23.46,0.431,7.664,0.335,23.46,0.863,7.621,0.288,-17.595,-5.865,-23.46
5.69,0.479,7.712,-0.766,23.46,0.335,7.856,0.91,23.46,1.15,7.765,0.719,-23.46,-11.73,-17.595
5.695,0.144,7.999,-1.293,17.595,0.287,7.808,1.198,17.595,1.007,7.765,1.15,-23.46,-23.46,-17.595
5.7,-0.048,8.478,-1.198,17.595,0.24,8.239,1.677,17.595,0.575,8.053,1.294,-23.46,-29.326,-17.595
5.705,0.0,8.67,-1.389,23.46,0.575,8.574,1.533,17.595,0.575,8.628,1.294,-29.326,-35.191,-17.595
5.71,0.335,8.526,-1.341,29.326,0.479,8.766,1.772,23.46,0.719,8.772,1.438,-29.326,-46.921,-23.46
5.715,0.335,8.047,-1.15,29.326,0.048,8.335,1.629,29.326,0.863,8.628,1.294,-29.326,-52.786,-23.46
5.72,0.383,7.616,-1.006,29.326,0.048,7.712,1.485,29.326,0.719,8.34,1.15,-23.46,-52.786,-23.46
5.7250000000000005,0.431,7.233,-0.623,23.46,-0.144,7.185,1.341,29.326,0.719,8.053,0.719,-17.595,-58.651,-23.46
5.73,0.383,7.281,-0.335,17.595,-0.192,6.706,0.958,23.46,0.719,7.909,0.431,-11.73,-64.516,-17.595
5.735,0.192,7.377,0.0,11.73,-0.192,6.754,0.671,17.595,0.575,8.053,0.144,-5.865,-64.516,-17.595
5.74,0.144,7.712,0.287,11.73,-0.048,6.946,0.335,11.73,0.431,8.053,-0.144,0.0,-64.516,-11.73
5.745,0.048,7.951,0.671,5.865,0.048,7.425,0.048,11.73,0.431,8.197,-0.431,5.865,-64.516,-5.865
5.75,0.0,8.095,1.006,11.73,0.24,7.76,-0.335,5.865,0.431,8.34,-0.863,5.865,-70.381,-5.865
5.755,-0.048,8.095,1.437,11.73,0.192,8.047,-0.671,5.865,0.288,8.197,-1.294,17.595,-70.381,-5.865
5.76,-1.245,17.819,1.006,11.73,0.287,8.095,-1.15,11.73,0.288,8.197,-1.726,23.46,-76.246,-5.865
5.765,-4.886,16.765,-4.503,58.651,4.263,22.609,-0.192,11.73,-2.588,26.028,3.164,5.865,-76.246,-23.46
5.7700000000000005,2.587,10.873,0.048,70.381,2.347,15.711,4.646,64.516,-2.588,15.818,1.582,-11.73,-105.572,-87.977
5.775,4.024,6.898,2.874,29.326,-1.82,9.388,0.0,64.516,6.902,5.896,-2.732,-11.73,-99.707,-35.191
5.78,-2.97,8.526,1.868,70.381,-2.922,8.335,-2.299,29.326,0.719,6.183,-2.157,-17.595,-105.572,-52.786
5.785,-1.581,10.634,2.874,46.921,3.353,9.197,-1.485,70.381,-4.026,9.635,-2.445,-35.191,-117.302,-64.516
5.79,0.144,11.209,2.922,23.46,0.431,10.299,-2.635,46.921,-1.007,12.079,-3.307,-41.056,-111.437,-23.46
5.795,-1.102,11.448,2.347,29.326,-0.383,10.586,-2.587,17.595,-0.431,11.792,-2.588,-35.191,-99.707,-17.595
5.8,-1.341,11.688,2.443,41.056,1.389,11.544,-2.012,29.326,-1.294,11.792,-2.445,-29.326,-93.842,-35.191
5.805,-0.862,11.592,2.491,46.921,1.341,11.448,-2.156,41.056,-1.15,12.511,-2.588,-23.46,-93.842,-46.921
5.8100000000000005,-0.766,11.065,2.587,52.786,0.814,10.969,-2.203,46.921,-0.863,12.367,-2.588,-17.595,-93.842,-52.786
5.815,-0.766,10.586,2.826,52.786,0.766,10.442,-2.299,52.786,-0.719,11.648,-2.732,-5.865,-93.842,-52.786
5.82,-0.766,10.155,3.209,52.786,0.862,10.011,-2.539,52.786,-0.719,11.073,-3.02,5.865,-87.977,-58.651
5.825,-0.91,9.676,3.688,52.786,0.766,9.628,-2.97,52.786,-1.007,10.641,-3.595,5.865,-87.977,-52.786
5.83,-1.15,9.388,4.024,52.786,0.814,9.197,-3.401,52.786,-1.294,10.066,-4.026,23.46,-87.977,-52.786
5.835,-1.293,9.197,4.167,46.921,1.054,9.101,-3.736,46.921,-1.438,9.635,-4.17,29.326,-82.111,-46.921
5.84,-1.341,9.101,4.215,46.921,1.15,9.053,-3.832,46.921,-1.582,9.491,-4.314,35.191,-76.246,-46.921
5.845,-1.389,8.957,4.119,46.921,1.245,8.957,-3.928,46.921,-1.582,9.347,-4.314,41.056,-70.381,-46.921
5.8500000000000005,-1.389,8.766,3.88,46.921,1.341,8.909,-3.784,46.921,-1.582,9.059,-4.17,41.056,-70.381,-46.921
5.855,-1.293,8.622,3.64,46.921,1.389,8.814,-3.545,46.921,-1.438,8.772,-3.883,41.056,-64.516,-46.921
5.86,-1.198,8.574,3.305,46.921,1.341,8.718,-3.305,46.921,-1.15,8.628,-3.595,41.056,-58.651,-46.921
5.865,-1.198,8.526,3.066,41.056,1.341,8.67,-2.97,46.921,-1.15,8.484,-3.307,41.056,-58.651,-41.056
5.87,-1.15,8.478,2.826,41.056,1.293,8.622,-2.682,46.921,-1.15,8.484,-3.02,41.056,-58.651,-41.056
5.875,-1.102,8.383,2.635,41.056,1.245,8.574,-2.491,41.056,-1.15,8.484,-2.732,41.056,-58.651,-41.056
5.88,-1.15,8.335,2.491,41.056,1.198,8.478,-2.251,41.056,-1.15,8.34,-2.588,41.056,-58.651,-41.056
5.885,-1.102,8.335,2.299,41.056,1.198,8.43,-2.108,41.056,-1.15,8.34,-2.445,41.056,-58.651,-41.056
5.89,-1.102,8.335,2.108,41.056,1.198,8.478,-1.964,41.056,-1.007,8.34,-2.301,35.191,-58.651,-41.056
5.8950000000000005,-1.006,8.383,1.964,35.191,1.245,8.574,-1.772,41.056,-1.007,8.197,-2.157,35.191,-52.786,-35.191
5.9,-0.958,8.526,1.82,35.191,1.15,8.718,-1.629,35.191,-0.863,8.34,-2.013,35.191,-58.651,-35.191
5.905,-0.958,8.622,1.772,35.191,1.15,8.814,-1.485,35.191,-0.719,8.34,-1.869,29.326,-58.651,-35.191
5.91,-0.958,8.622,1.724,35.191,1.15,8.909,-1.389,35.191,-0.719,8.484,-1.869,23.46,-58.651,-35.191
5.915,-1.006,8.67,1.772,29.326,1.198,8.862,-1.389,29.326,-0.863,8.484,-1.726,23.46,-58.651,-35.191
5.92,-1.054,8.67,1.868,29.326,1.15,8.862,-1.389,35.191,-0.863,8.628,-1.869,17.595,-58.651,-29.326
5.925,-1.102,8.718,1.964,29.326,1.198,8.862,-1.533,29.326,-1.007,8.628,-2.013,17.595,-58.651,-29.326
5.93,-1.15,8.814,2.06,29.326,1.198,8.862,-1.629,29.326,-1.15,8.772,-2.013,5.865,-58.651,-29.326
5.9350000000000005,-1.15,8.862,2.108,29.326,1.245,8.909,-1.724,29.326,-1.15,8.772,-2.157,5.865,-58.651,-29.326
5.94,-1.102,8.862,2.203,29.326,1.245,9.005,-1.82,29.326,-1.007,8.916,-2.157,5.865,-58.651,-29.326
5.945,-1.15,8.814,2.347,29.326,1.245,8.957,-1.868,29.326,-1.007,8.916,-2.301,5.865,-58.651,-29.326
5.95,-1.15,8.766,2.491,35.191,1.245,8.909,-2.012,29.326,-1.15,8.772,-2.445,5.865,-58.651,-29.326
5.955,-1.198,8.718,2.635,29.326,1.245,8.862,-2.203,29.326,-1.15,8.772,-2.732,5.865,-58.651,-29.326
5.96,-1.245,8.814,2.778,29.326,1.245,8.766,-2.299,29.326,-1.294,8.916,-2.876,5.865,-58.651,-29.326
5.965,-1.341,8.862,2.874,29.326,1.341,8.862,-2.443,29.326,-1.294,9.059,-2.876,5.865,-58.651,-23.46
5.97,-1.293,9.005,2.97,29.326,1.389,8.862,-2.587,29.326,-1.294,9.203,-3.02,5.865,-52.786,-23.46
5.9750000000000005,-1.341,9.053,3.018,29.326,1.341,8.957,-2.682,29.326,-1.294,9.203,-3.02,5.865,-52.786,-23.46
5.98,-0.958,9.245,2.73,29.326,1.389,9.005,-2.682,29.326,-1.15,9.347,-3.02,5.865,-52.786,-23.46
5.985,-1.389,8.862,2.97,29.326,1.341,9.053,-2.395,29.326,-1.438,9.059,-2.876,5.865,-52.786,-23.46
5.99,-1.389,9.005,3.305,23.46,1.389,8.766,-2.73,23.46,-1.438,9.347,-3.307,5.865,-52.786,-23.46
5.995,-1.533,9.101,3.305,23.46,1.341,8.957,-3.018,23.46,-1.582,9.203,-3.451,17.595,-46.921,-23.46
6.0,-1.485,9.388,3.353,29.326,1.629,9.149,-2.97,23.46,-1.726,9.347,-3.451,17.595,-46.921,-23.46
6.005,-1.437,9.436,3.209,29.326,1.437,9.388,-3.114,29.326,-1.582,9.491,-3.451,17.595,-41.056,-23.46
6.01,-1.293,9.245,3.353,29.326,1.485,9.58,-2.97,29.326,-1.294,9.347,-3.451,23.46,-41.056,-23.46
6.015000000000001,-1.293,9.341,3.209,23.46,1.485,9.341,-3.018,29.326,-1.15,9.347,-3.307,17.595,-41.056,-23.46
6.0200000000000005,-1.389,9.436,3.161,23.46,1.389,9.436,-2.874,23.46,-1.438,9.491,-3.164,17.595,-41.056,-23.46
6.025,-1.389,9.58,3.257,23.46,1.485,9.484,-2.874,23.46,-1.438,9.635,-3.307,17.595,-41.056,-23.46
6.03,-1.533,9.724,3.305,23.46,1.389,9.724,-3.018,23.46,-1.438,9.778,-3.451,17.595,-35.191,-23.46
6.035,-1.581,10.059,3.257,23.46,1.581,9.867,-2.97,23.46,-1.582,9.922,-3.307,17.595,-35.191,-23.46
6.04,-1.629,10.682,2.491,23.46,1.677,10.299,-2.97,23.46,-1.582,10.21,-3.307,17.595,-35.191,-23.46
6.045,-1.389,11.017,2.826,29.326,1.82,10.825,-2.251,29.326,-1.582,10.929,-2.445,17.595,-35.191,-23.46
6.05,-1.724,10.873,2.97,29.326,1.581,11.257,-2.587,29.326,-1.438,10.785,-3.02,5.865,-35.191,-23.46
6.055,-1.724,10.634,2.97,35.191,1.82,11.161,-2.635,29.326,-1.726,10.641,-3.02,5.865,-35.191,-35.191
6.0600000000000005,-1.533,10.394,3.018,41.056,1.772,10.825,-2.682,35.191,-1.726,10.497,-3.02,5.865,-35.191,-35.191
6.065,-1.485,10.155,2.922,41.056,1.581,10.442,-2.73,41.056,-1.582,10.354,-3.02,5.865,-35.191,-41.056
6.07,-1.389,10.011,2.826,41.056,1.581,10.203,-2.635,41.056,-1.438,10.21,-2.876,5.865,-35.191,-41.056
6.075,-1.389,9.963,2.635,41.056,1.485,10.011,-2.491,41.056,-1.438,10.21,-2.732,5.865,-35.191,-41.056
6.08,-1.389,9.963,2.587,41.056,1.437,9.867,-2.347,41.056,-1.438,10.354,-2.588,5.865,-29.326,-41.056
6.085,-1.293,9.915,2.682,41.056,1.485,9.867,-2.299,41.056,-1.294,10.21,-2.732,5.865,-29.326,-41.056
6.09,-1.341,9.82,2.778,41.056,1.389,9.82,-2.395,41.056,-1.294,10.21,-2.732,5.865,-29.326,-35.191
6.095,-1.389,9.82,2.778,35.191,1.389,9.724,-2.491,41.056,-1.438,10.066,-2.876,17.595,-29.326,-35.191
6.1000000000000005,-1.389,9.724,2.826,35.191,1.389,9.724,-2.539,41.056,-1.438,10.066,-2.876,17.595,-23.46,-35.191
6.105,-1.341,9.676,2.874,35.191,1.389,9.676,-2.539,35.191,-1.438,9.922,-3.02,23.46,-23.46,-35.191
6.11,-1.389,9.676,2.922,35.191,1.437,9.676,-2.635,35.191,-1.294,9.778,-3.02,23.46,-23.46,-35.191
6.115,-1.389,9.724,2.826,35.191,1.437,9.724,-2.587,35.191,-1.294,9.778,-2.876,23.46,-23.46,-35.191
6.12,-1.389,9.772,2.778,35.191,1.533,9.82,-2.539,35.191,-1.294,9.778,-2.876,23.46,-17.595,-35.191
6.125,-1.437,9.82,2.682,35.191,1.533,9.915,-2.491,35.191,-1.294,9.922,-2.732,23.46,-17.595,-35.191
6.13,-1.437,9.772,2.635,35.191,1.581,9.915,-2.395,35.191,-1.294,9.922,-2.732,23.46,-23.46,-35.191
6.135,-1.437,9.676,2.587,35.191,1.581,9.867,-2.299,35.191,-1.294,9.778,-2.732,23.46,-23.46,-35.191
6.140000000000001,-1.437,9.58,2.539,35.191,1.581,9.772,-2.299,35.191,-1.294,9.778,-2.588,23.46,-17.595,-35.191
6.1450000000000005,-1.485,9.484,2.539,35.191,1.581,9.676,-2.251,35.191,-1.438,9.635,-2.588,23.46,-17.595,-35.191
6.15,-1.485,9.245,2.491,35.191,1.629,9.484,-2.203,35.191,-1.438,9.491,-2.588,23.46,-23.46,-35.191
