time_aligned_sec,L_Acc_X_aligned,L_Acc_Y_aligned,L_Acc_Z_aligned,L_Gyro_Z_aligned,R_Acc_X_aligned,R_Acc_Y_aligned,R_Acc_Z_aligned,R_Gyro_Z_aligned,T_Acc_X_aligned,T_Acc_Y_aligned,T_Acc_Z_aligned,T_Gyro_X_aligned,T_Gyro_Y_aligned,T_Gyro_Z_aligned
0.0,2.778,7.999,7.425,-11.73,-2.06,8.239,-7.041,-11.73,3.02,7.765,-7.478,58.651,23.46,11.73
0.005,2.874,8.143,7.377,-11.73,-2.251,8.43,-6.946,-17.595,3.02,7.909,-7.478,64.516,23.46,11.73
0.01,3.018,8.335,7.233,-17.595,-2.491,8.622,-6.706,-17.595,3.307,8.053,-7.334,70.381,23.46,17.595
0.015,3.209,8.526,6.993,-17.595,-2.635,8.766,-6.419,-17.595,3.451,8.197,-7.19,70.381,29.326,17.595
0.02,3.353,8.718,6.658,-23.46,-2.826,8.814,-6.035,-17.595,3.451,8.484,-6.902,76.246,29.326,23.46
0.025,3.497,8.862,6.323,-23.46,-2.97,8.766,-5.7,-17.595,3.595,8.628,-6.615,82.111,29.326,23.46
0.03,3.545,8.957,5.988,-17.595,-3.066,8.574,-5.413,-17.595,3.595,8.916,-6.183,82.111,29.326,23.46
0.035,3.64,8.957,5.652,-17.595,-3.066,8.335,-5.125,-11.73,3.739,9.059,-5.896,87.977,29.326,23.46
0.04,3.688,8.909,5.413,-11.73,-2.97,8.095,-4.934,-5.865,3.883,9.203,-5.608,87.977,35.191,17.595
0.045,3.593,8.766,5.269,-5.865,-2.97,7.904,-4.838,-5.865,3.883,9.203,-5.321,87.977,35.191,11.73
0.05,3.593,8.622,5.173,-5.865,-2.97,7.712,-4.742,0.0,3.883,9.059,-5.321,82.111,35.191,5.865
0.055,3.593,8.43,5.077,-0.0,-2.97,7.616,-4.598,5.865,3.739,9.059,-5.177,76.246,35.191,5.865
0.06,3.545,8.287,4.982,5.865,-2.922,7.568,-4.503,5.865,3.883,8.916,-5.033,70.381,35.191,0.0
0.065,3.449,8.143,4.838,5.865,-2.826,7.52,-4.359,11.73,3.739,8.628,-5.033,64.516,35.191,0.0
0.07,3.353,7.904,4.694,11.73,-2.778,7.52,-4.263,11.73,3.595,8.34,-4.889,64.516,35.191,-5.865
0.075,3.305,7.712,4.646,11.73,-2.682,7.52,-4.167,11.73,3.451,8.053,-4.745,58.651,35.191,-5.865
0.08,3.257,7.568,4.551,11.73,-2.635,7.472,-4.119,11.73,3.451,7.765,-4.602,52.786,35.191,-11.73
0.085,3.209,7.52,4.551,11.73,-2.587,7.425,-4.119,11.73,3.451,7.621,-4.602,52.786,41.056,-11.73
0.09,3.209,7.52,4.503,5.865,-2.443,7.425,-4.072,5.865,3.451,7.478,-4.458,58.651,41.056,-5.865
0.095,3.161,7.568,4.455,5.865,-2.395,7.425,-3.976,0.0,3.451,7.478,-4.458,58.651,41.056,0.0
0.1,3.114,7.664,4.359,-0.0,-2.395,7.425,-3.88,0.0,3.451,7.765,-4.458,64.516,41.056,0.0
0.105,3.161,7.808,4.215,-0.0,-2.443,7.377,-3.736,0.0,3.451,7.909,-4.314,64.516,41.056,0.0
0.11,3.161,7.904,4.119,-0.0,-2.443,7.377,-3.593,0.0,3.451,8.053,-4.17,64.516,46.921,5.865
0.115,3.161,7.951,3.976,-0.0,-2.395,7.329,-3.545,5.865,3.451,8.197,-4.026,58.651,46.921,0.0
0.12,3.066,7.904,3.928,-0.0,-2.203,7.137,-3.545,5.865,3.451,8.34,-4.026,58.651,46.921,0.0
0.125,2.97,7.712,3.928,5.865,-2.108,6.993,-3.497,11.73,3.307,8.34,-3.883,52.786,52.786,0.0
0.13,2.874,7.52,3.928,5.865,-2.108,6.993,-3.497,11.73,3.307,8.053,-3.883,52.786,52.786,-5.865
0.135,2.874,7.377,3.88,11.73,-2.203,7.137,-3.401,11.73,3.164,7.765,-3.883,46.921,58.651,-5.865
0.14,2.922,7.377,3.784,11.73,-2.347,7.329,-3.209,11.73,3.164,7.621,-3.883,41.056,58.651,-5.865
0.145,3.018,7.472,3.545,11.73,-2.587,7.568,-3.018,11.73,3.164,7.478,-3.739,41.056,58.651,-11.73
0.15,3.161,7.664,3.401,11.73,-2.826,7.808,-2.874,11.73,3.307,7.478,-3.451,41.056,64.516,-11.73
0.155,3.305,7.904,3.209,11.73,-2.922,7.951,-2.73,11.73,3.307,7.765,-3.307,41.056,64.516,-11.73
0.16,3.449,8.095,3.114,5.865,-3.018,8.047,-2.73,11.73,3.451,7.909,-3.164,41.056,64.516,-5.865
0.165,3.545,8.287,3.066,5.865,-3.018,8.143,-2.635,5.865,3.595,8.197,-3.164,46.921,64.516,-5.865
0.17,3.593,8.478,3.018,5.865,-3.018,8.095,-2.587,5.865,3.739,8.484,-3.02,46.921,64.516,-5.865
0.17500000000000002,3.593,8.622,2.97,5.865,-2.97,8.047,-2.539,5.865,3.739,8.772,-3.02,46.921,64.516,0.0
0.18,3.545,8.67,2.922,5.865,-2.826,7.951,-2.539,11.73,3.739,9.059,-3.02,46.921,64.516,-5.865
0.185,3.449,8.622,2.922,11.73,-2.682,7.904,-2.587,11.73,3.739,9.059,-3.02,41.056,64.516,-5.865
0.19,3.353,8.526,2.97,11.73,-2.491,7.951,-2.635,11.73,3.739,9.059,-3.02,35.191,64.516,-5.865
0.195,3.209,8.335,3.066,11.73,-2.443,7.999,-2.73,11.73,3.595,8.916,-3.02,29.326,64.516,-5.865
0.2,3.066,8.239,3.114,11.73,-2.443,8.095,-2.778,17.595,3.451,8.484,-3.02,29.326,70.381,-5.865
0.20500000000000002,3.066,8.143,3.161,11.73,-2.539,8.095,-2.778,17.595,3.307,8.197,-3.164,23.46,70.381,-11.73
0.21,3.114,8.095,3.114,17.595,-2.73,7.951,-2.682,17.595,3.307,8.053,-3.164,23.46,70.381,-11.73
0.215,3.209,8.047,3.066,17.595,-2.922,7.951,-2.539,17.595,3.307,8.053,-3.164,23.46,70.381,-17.595
0.22,3.305,7.999,2.874,11.73,-3.161,8.143,-2.347,11.73,3.307,8.053,-3.02,29.326,70.381,-17.595
0.225,3.401,7.999,2.682,11.73,-3.449,8.43,-2.108,11.73,3.307,7.909,-2.876,29.326,70.381,-11.73
0.23,3.545,8.095,2.443,5.865,-3.832,8.814,-1.916,5.865,3.307,7.765,-2.588,29.326,70.381,-11.73
0.23500000000000001,3.784,8.287,2.203,5.865,-4.119,9.149,-1.677,0.0,3.307,7.765,-2.445,35.191,70.381,-5.865
0.24,3.976,8.622,2.012,-0.0,-4.215,9.436,-1.485,0.0,3.451,7.909,-2.157,41.056,64.516,0.0
0.245,4.119,8.957,1.82,-5.865,-4.263,9.58,-1.389,-5.865,3.595,8.197,-2.013,52.786,58.651,5.865
0.25,4.215,9.197,1.724,-5.865,-4.311,9.628,-1.437,-5.865,3.739,8.484,-1.869,58.651,46.921,5.865
0.255,4.407,9.436,1.772,-5.865,-4.263,9.724,-1.485,-5.865,3.883,8.916,-1.726,70.381,41.056,11.73
0.26,4.503,9.628,1.868,-5.865,-4.024,9.772,-1.581,-5.865,4.314,9.203,-1.726,76.246,35.191,11.73
0.265,4.455,9.772,1.964,-5.865,-3.784,9.628,-1.677,-5.865,4.458,9.491,-1.869,82.111,29.326,11.73
0.27,4.359,9.915,2.06,-5.865,-3.545,9.388,-1.724,-5.865,4.602,9.778,-2.013,82.111,23.46,5.865
0.275,4.263,9.963,2.06,-5.865,-3.401,9.149,-1.677,0.0,4.602,10.21,-2.013,87.977,23.46,5.865
0.28,4.215,9.963,2.012,-0.0,-3.305,8.957,-1.533,5.865,4.602,10.354,-2.013,87.977,23.46,5.865
0.28500000000000003,4.119,9.963,1.916,-0.0,-3.209,8.814,-1.437,11.73,4.602,10.641,-2.013,82.111,23.46,0.0
0.29,4.024,9.772,1.82,5.865,-3.209,8.718,-1.389,11.73,4.458,10.641,-1.869,76.246,29.326,0.0
0.295,3.976,9.58,1.772,11.73,-3.161,8.67,-1.341,17.595,4.458,10.354,-1.726,70.381,29.326,-11.73
0.3,3.832,9.484,1.724,17.595,-3.066,8.67,-1.341,23.46,4.314,10.21,-1.726,58.651,35.191,-11.73
0.305,3.736,9.341,1.724,23.46,-2.97,8.574,-1.341,23.46,4.026,9.922,-1.726,52.786,35.191,-17.595
0.31,3.64,9.101,1.772,29.326,-2.826,8.43,-1.389,29.326,4.026,9.778,-1.726,46.921,41.056,-23.46
0.315,3.497,8.909,1.772,29.326,-2.874,8.43,-1.341,29.326,3.883,9.491,-1.726,41.056,41.056,-23.46
0.32,3.449,8.766,1.772,29.326,-2.97,8.526,-1.245,29.326,3.739,9.203,-1.726,35.191,41.056,-23.46
0.325,3.401,8.718,1.629,29.326,-3.066,8.622,-1.102,35.191,3.595,8.916,-1.726,35.191,46.921,-23.46
0.33,3.401,8.622,1.485,29.326,-3.209,8.67,-0.91,29.326,3.451,8.772,-1.582,29.326,46.921,-29.326
0.335,3.353,8.574,1.293,29.326,-3.257,8.718,-0.814,29.326,3.307,8.484,-1.438,29.326,46.921,-23.46
0.34,3.305,8.43,1.15,29.326,-3.209,8.622,-0.814,29.326,3.02,8.34,-1.294,35.191,41.056,-23.46
0.34500000000000003,3.209,8.287,1.198,29.326,-3.066,8.478,-0.814,29.326,3.02,8.197,-1.294,35.191,35.191,-23.46
0.35000000000000003,3.018,8.191,1.245,23.46,-2.778,8.383,-0.862,23.46,2.732,8.053,-1.294,41.056,29.326,-23.46
0.355,2.826,8.047,1.293,23.46,-2.635,8.335,-1.006,17.595,2.732,7.909,-1.294,46.921,23.46,-23.46
0.36,2.778,7.999,1.437,17.595,-2.443,8.335,-1.15,11.73,2.588,7.765,-1.294,52.786,17.595,-17.595
0.365,2.587,8.047,1.581,11.73,-2.203,8.43,-1.245,5.865,2.445,7.765,-1.438,52.786,11.73,-11.73
0.37,2.539,8.239,1.677,5.865,-2.012,8.574,-1.389,0.0,2.445,7.909,-1.582,64.516,5.865,-5.865
0.375,2.491,8.478,1.82,-0.0,-1.82,8.622,-1.581,0.0,2.588,8.197,-1.726,64.516,5.865,0.0
0.38,2.491,8.718,2.012,-0.0,-1.724,8.67,-1.772,0.0,2.588,8.484,-1.869,70.381,0.0,5.865
0.385,2.491,8.909,2.156,-5.865,-1.677,8.766,-1.868,0.0,2.732,8.772,-2.013,70.381,0.0,5.865
0.39,2.491,9.053,2.251,-0.0,-1.724,8.814,-1.868,0.0,2.732,9.059,-2.157,76.246,0.0,5.865
0.395,2.587,9.149,2.251,-0.0,-1.82,8.814,-1.82,5.865,2.876,9.203,-2.301,76.246,5.865,0.0
0.4,2.635,9.245,2.156,-0.0,-1.82,8.909,-1.629,5.865,3.02,9.491,-2.301,76.246,5.865,0.0
0.405,2.635,9.293,2.012,5.865,-1.916,8.862,-1.437,5.865,3.02,9.635,-2.157,70.381,11.73,0.0
0.41000000000000003,2.682,9.293,1.82,5.865,-2.156,8.909,-1.198,5.865,3.02,9.635,-2.013,70.381,11.73,0.0
0.41500000000000004,2.73,9.245,1.533,5.865,-2.299,8.862,-0.958,11.73,2.876,9.491,-1.726,64.516,17.595,0.0
0.42,2.778,9.149,1.293,11.73,-2.443,8.814,-0.719,11.73,2.876,9.491,-1.438,64.516,17.595,-5.865
0.425,2.826,9.101,1.102,11.73,-2.395,8.67,-0.575,17.595,2.732,9.347,-1.294,64.516,17.595,-11.73
0.43,2.73,8.957,0.958,11.73,-2.395,8.574,-0.527,17.595,2.732,9.203,-1.15,64.516,17.595,-11.73
0.435,2.635,8.814,0.91,17.595,-2.203,8.478,-0.527,17.595,2.588,9.059,-1.007,58.651,17.595,-11.73
0.44,2.491,8.766,0.91,11.73,-1.964,8.383,-0.527,11.73,2.445,8.916,-1.007,58.651,11.73,-11.73
0.445,2.299,8.67,0.958,11.73,-1.772,8.287,-0.575,11.73,2.301,8.916,-1.007,58.651,5.865,-11.73
0.45,2.156,8.574,1.006,11.73,-1.629,8.095,-0.671,11.73,2.157,8.916,-1.007,52.786,5.865,-11.73
0.455,2.06,8.478,1.15,11.73,-1.533,8.191,-0.814,11.73,2.157,8.916,-1.007,52.786,0.0,-11.73
0.46,2.012,8.574,1.245,11.73,-1.437,8.335,-0.814,11.73,2.013,8.772,-1.15,52.786,0.0,-5.865
0.465,2.012,8.718,1.245,5.865,-1.341,8.383,-0.91,5.865,2.013,8.916,-1.294,52.786,0.0,-5.865
0.47000000000000003,2.012,8.814,1.389,5.865,-1.293,8.43,-1.102,5.865,2.157,9.059,-1.294,46.921,0.0,-5.865
0.47500000000000003,1.964,8.862,1.533,5.865,-1.437,10.778,-0.958,11.73,2.157,9.059,-1.438,46.921,0.0,-5.865
0.48,2.156,10.969,1.15,5.865,-1.533,9.388,-0.814,17.595,2.157,9.347,-1.582,41.056,0.0,-5.865
0.485,2.108,9.772,1.485,17.595,-1.82,8.047,-1.772,23.46,1.726,8.916,-0.719,41.056,0.0,-5.865
0.49,2.97,9.341,2.251,29.326,-1.581,9.532,-1.437,23.46,2.445,11.073,-2.013,52.786,0.0,-17.595
0.495,2.347,10.107,1.772,23.46,-1.341,9.867,-1.15,23.46,3.595,10.21,-2.157,46.921,0.0,-23.46
0.5,2.203,10.155,1.629,23.46,-1.677,9.867,-1.245,17.595,2.445,10.641,-1.726,41.056,5.865,-23.46
0.505,2.395,10.107,1.629,17.595,-1.772,9.628,-1.15,23.46,2.588,10.354,-1.582,35.191,5.865,-17.595
0.51,2.395,10.059,1.581,23.46,-1.916,9.58,-1.006,23.46,2.588,10.354,-1.582,35.191,11.73,-17.595
0.515,2.491,10.011,1.389,23.46,-2.012,9.82,-0.814,23.46,2.588,10.497,-1.582,35.191,11.73,-17.595
0.52,2.491,10.011,1.245,23.46,-1.916,9.963,-0.862,17.595,2.588,10.354,-1.438,29.326,11.73,-23.46
0.525,2.395,10.059,1.245,23.46,-1.868,10.059,-0.862,17.595,2.588,10.21,-1.294,29.326,11.73,-17.595
0.53,2.347,10.107,1.293,17.595,-1.82,10.107,-0.91,17.595,2.301,10.066,-1.294,23.46,11.73,-17.595
0.535,2.299,10.155,1.389,17.595,-1.82,10.155,-1.054,17.595,2.301,10.066,-1.294,29.326,11.73,-17.595
0.54,2.395,10.299,1.485,17.595,-1.868,10.203,-1.006,17.595,2.445,10.21,-1.438,29.326,5.865,-11.73
0.545,2.443,10.442,1.485,17.595,-1.82,10.155,-1.054,17.595,2.445,10.497,-1.438,29.326,5.865,-17.595
0.55,2.395,10.442,1.485,17.595,-1.772,10.059,-1.102,17.595,2.588,10.641,-1.438,29.326,5.865,-17.595
0.555,2.347,10.299,1.533,17.595,-1.677,9.82,-1.054,17.595,2.445,10.641,-1.438,29.326,5.865,-17.595
0.56,2.203,10.107,1.437,23.46,-1.485,9.628,-1.006,23.46,2.301,10.497,-1.582,23.46,5.865,-17.595
0.5650000000000001,2.012,9.867,1.437,23.46,-1.293,9.436,-1.102,23.46,2.157,10.354,-1.438,23.46,5.865,-17.595
0.5700000000000001,1.82,9.628,1.533,23.46,-1.102,9.293,-1.198,23.46,2.013,10.066,-1.438,23.46,5.865,-17.595
0.5750000000000001,1.677,9.436,1.677,23.46,-0.91,9.245,-1.389,17.595,1.869,9.778,-1.582,17.595,0.0,-17.595
0.58,1.437,9.245,1.82,23.46,-0.575,9.197,-1.581,17.595,1.582,9.635,-1.726,17.595,0.0,-17.595
0.585,1.198,9.005,2.06,17.595,-0.335,9.053,-1.868,17.595,1.438,9.203,-1.869,17.595,0.0,-17.595
0.59,1.054,8.766,2.299,17.595,-0.144,9.005,-1.964,17.595,1.294,8.916,-2.157,17.595,0.0,-17.595
0.595,0.91,8.526,2.443,11.73,0.048,8.814,-2.06,11.73,1.15,8.484,-2.445,23.46,0.0,-11.73
0.6,0.766,8.383,2.539,11.73,0.144,8.814,-2.156,11.73,1.007,8.197,-2.445,23.46,5.865,-11.73
0.605,0.719,8.335,2.587,11.73,0.048,8.862,-2.06,11.73,1.007,8.053,-2.588,29.326,5.865,-11.73
0.61,0.814,8.335,2.443,5.865,-0.24,8.814,-1.82,5.865,1.007,8.053,-2.588,35.191,5.865,-5.865
0.615,1.006,8.526,2.203,5.865,-0.335,8.909,-1.437,5.865,1.15,8.053,-2.301,41.056,11.73,0.0
0.62,1.198,8.814,1.82,-0.0,-0.575,9.053,-1.198,0.0,1.294,8.484,-2.013,46.921,17.595,0.0
0.625,1.437,9.197,1.629,-0.0,-0.958,9.341,-0.91,0.0,1.438,8.772,-1.726,52.786,17.595,0.0
0.63,1.82,10.059,1.245,-0.0,-1.293,9.724,-0.527,5.865,1.726,9.635,-1.582,52.786,17.595,5.865
0.635,2.299,10.778,0.862,5.865,-1.629,9.963,-0.24,11.73,2.157,10.785,-1.15,52.786,17.595,0.0
0.64,2.539,11.113,0.623,11.73,-1.724,10.059,0.048,17.595,2.732,11.648,-0.863,52.786,23.46,-5.865
0.645,2.539,11.065,0.335,23.46,-1.533,10.011,0.192,29.326,2.876,11.935,-0.575,41.056,23.46,-11.73
0.65,2.203,10.634,0.24,29.326,-1.198,9.724,0.192,35.191,2.732,11.792,-0.288,29.326,29.326,-23.46
0.655,1.724,10.011,0.24,29.326,-0.719,9.245,0.048,35.191,2.157,10.929,-0.288,23.46,29.326,-23.46
0.66,1.198,9.436,0.479,35.191,-0.192,8.909,-0.287,29.326,1.582,10.21,-0.288,5.865,35.191,-29.326
0.665,0.766,9.101,0.814,29.326,0.048,8.814,-0.671,29.326,1.007,9.635,-0.575,5.865,35.191,-29.326
0.67,0.479,8.957,1.198,29.326,0.24,9.101,-1.006,23.46,0.719,9.347,-1.007,5.865,35.191,-23.46
0.675,0.287,9.005,1.533,23.46,0.431,9.58,-1.341,17.595,0.431,9.059,-1.294,5.865,35.191,-23.46
0.68,0.144,9.197,1.82,11.73,0.527,9.82,-1.533,11.73,0.144,8.916,-1.582,5.865,29.326,-17.595
0.685,0.048,9.341,2.012,11.73,0.431,9.867,-1.677,5.865,0.0,9.059,-1.869,5.865,29.326,-11.73
0.6900000000000001,0.24,9.532,2.108,5.865,0.0,10.203,-1.629,0.0,0.0,9.203,-2.013,5.865,29.326,-5.865
0.6950000000000001,0.575,9.82,1.964,-0.0,-0.24,10.634,-1.437,-5.865,0.431,9.491,-2.157,17.595,29.326,0.0
0.7000000000000001,0.814,10.155,1.868,-5.865,-0.431,10.921,-1.389,-5.865,0.575,9.635,-2.013,23.46,29.326,5.865
0.705,1.006,10.442,1.772,-11.73,-0.623,11.257,-1.341,-11.73,0.863,9.922,-1.869,29.326,29.326,11.73
0.71,1.198,10.682,1.772,-11.73,-0.623,11.448,-1.437,-11.73,1.007,10.066,-1.726,41.056,23.46,11.73
0.715,1.341,10.969,1.82,-17.595,-0.431,11.544,-1.485,-11.73,1.294,10.354,-1.726,46.921,23.46,17.595
0.72,1.437,11.209,1.868,-17.595,-0.335,11.4,-1.533,-11.73,1.582,10.641,-1.726,52.786,23.46,17.595
0.725,1.629,11.4,1.964,-11.73,-0.096,11.304,-1.581,-11.73,1.869,11.073,-1.869,58.651,23.46,17.595
0.73,1.724,11.688,2.012,-11.73,0.144,10.825,-1.533,-5.865,2.301,11.648,-1.869,64.516,29.326,17.595
0.735,1.916,11.927,1.964,-11.73,0.0,10.394,-1.437,-5.865,2.876,12.367,-1.869,64.516,35.191,11.73
0.74,2.251,12.167,1.82,-5.865,-0.671,10.011,-1.054,0.0,3.307,13.086,-1.869,64.516,46.921,11.73
0.745,2.682,12.454,1.341,-5.865,-1.581,9.724,-0.24,5.865,3.739,13.949,-1.582,52.786,58.651,5.865
0.75,3.114,12.837,0.479,-0.0,-2.587,9.915,0.671,17.595,3.883,14.668,-1.15,29.326,76.246,5.865
0.755,3.449,12.885,-0.527,23.46,-3.257,10.251,1.437,46.921,3.739,15.099,-0.288,5.865,87.977,-5.865
0.76,3.497,12.454,-1.293,46.921,-3.688,10.538,2.06,76.246,3.451,14.668,0.719,-23.46,99.707,-23.46
0.765,3.401,11.592,-1.916,76.246,-3.64,10.107,2.539,93.842,3.02,13.373,1.438,-52.786,99.707,-52.786
0.77,2.922,10.49,-2.347,93.842,-3.114,9.436,2.778,105.572,2.445,11.935,2.013,-76.246,93.842,-82.111
0.775,2.251,9.484,-2.539,105.572,-2.491,8.909,2.635,111.437,1.726,10.497,2.445,-87.977,82.111,-99.707
0.78,1.485,8.335,-2.347,105.572,-1.868,8.383,2.347,105.572,1.007,9.203,2.445,-93.842,70.381,-105.572
0.785,0.766,7.137,-1.964,99.707,-1.054,7.999,1.724,93.842,0.0,7.621,2.157,-93.842,52.786,-105.572
0.79,-0.048,6.131,-1.245,93.842,-0.048,7.281,0.862,82.111,-0.863,5.896,1.726,-87.977,35.191,-99.707
0.795,-0.814,5.413,-0.24,82.111,0.671,7.377,-0.24,64.516,-1.582,4.745,0.863,-76.246,17.595,-87.977
0.8,-1.245,5.173,0.814,64.516,1.533,7.808,-1.054,46.921,-2.157,4.026,-0.144,-58.651,0.0,-76.246
0.805,-1.724,5.413,1.629,41.056,2.06,8.335,-1.677,23.46,-2.157,3.739,-1.15,-41.056,-17.595,-58.651
0.81,-1.868,5.94,2.156,17.595,1.868,8.814,-2.108,0.0,-2.301,3.883,-1.726,-11.73,-29.326,-35.191
0.8150000000000001,-1.581,6.61,2.587,-5.865,1.677,9.341,-2.491,-17.595,-2.301,4.458,-2.301,5.865,-35.191,-11.73
0.8200000000000001,-1.198,7.377,2.874,-17.595,1.677,9.772,-2.778,-35.191,-1.869,5.321,-2.588,41.056,-41.056,11.73
0.8250000000000001,-0.91,8.239,3.114,-35.191,1.629,9.82,-2.826,-46.921,-1.294,6.183,-2.876,64.516,-46.921,29.326
0.8300000000000001,-0.671,8.766,3.161,-41.056,1.677,9.388,-2.874,-52.786,-0.863,7.334,-3.02,87.977,-46.921,35.191
0.835,-0.383,9.053,3.209,-52.786,1.868,9.197,-2.826,-58.651,-0.288,8.34,-3.02,105.572,-52.786,46.921
0.84,-0.192,9.724,3.161,-58.651,2.108,9.101,-2.682,-58.651,0.431,9.347,-3.164,117.302,-46.921,52.786
0.845,0.096,10.73,3.066,-58.651,1.916,9.197,-2.635,-52.786,0.863,10.785,-3.02,123.167,-41.056,58.651
0.85,0.719,11.783,3.114,-52.786,1.533,9.484,-2.587,-46.921,1.582,12.654,-3.02,117.302,-29.326,58.651
0.855,1.341,12.694,3.066,-41.056,0.814,9.82,-2.539,-29.326,2.588,14.236,-3.02,99.707,-11.73,52.786
0.86,1.916,13.316,3.018,-29.326,0.479,10.155,-2.587,-17.595,3.307,15.53,-3.02,76.246,5.865,41.056
0.865,2.156,13.46,2.97,-17.595,0.048,10.634,-2.443,0.0,3.739,16.106,-3.02,41.056,29.326,29.326
0.87,2.156,13.412,2.73,-0.0,-0.575,11.065,-2.012,11.73,3.739,15.818,-2.876,5.865,52.786,11.73
0.875,2.251,13.268,2.251,11.73,-1.485,11.209,-1.485,29.326,3.307,15.387,-2.588,-29.326,76.246,0.0
0.88,2.347,12.646,1.677,35.191,-2.299,11.592,-1.102,46.921,2.876,14.524,-2.013,-58.651,87.977,-17.595
0.885,2.299,11.927,1.245,52.786,-2.539,11.64,-0.766,64.516,2.301,13.086,-1.582,-76.246,99.707,-35.191
0.89,1.916,10.921,0.91,64.516,-2.251,11.64,-0.431,76.246,1.438,11.504,-1.15,-93.842,99.707,-52.786
0.895,1.245,10.059,0.623,70.381,-1.629,11.448,-0.24,76.246,0.575,9.778,-0.863,-93.842,93.842,-64.516
0.9,0.479,9.245,0.575,70.381,-0.91,11.113,-0.335,70.381,-0.431,8.484,-0.575,-87.977,82.111,-70.381
0.905,-0.048,8.574,0.719,70.381,-0.383,10.586,-0.287,64.516,-1.15,7.334,-0.719,-70.381,64.516,-70.381
0.91,-0.431,8.239,0.671,64.516,-0.144,10.155,-0.335,58.651,-1.582,6.615,-0.719,-46.921,41.056,-64.516
0.915,-0.383,8.095,0.766,52.786,0.24,10.011,-0.623,41.056,-1.582,6.615,-0.719,-23.46,23.46,-58.651
0.92,-0.383,8.383,1.006,41.056,0.623,10.011,-0.814,23.46,-1.294,6.902,-0.863,5.865,5.865,-46.921
0.925,-0.383,8.957,1.198,23.46,0.862,9.963,-0.958,11.73,-1.007,7.621,-1.15,29.326,-5.865,-35.191
0.93,-0.192,9.532,1.389,11.73,0.91,10.155,-1.102,5.865,-0.575,8.628,-1.294,46.921,-11.73,-17.595
0.935,-0.048,10.059,1.533,-0.0,0.958,10.346,-1.102,0.0,-0.144,9.635,-1.438,58.651,-17.595,-5.865
0.9400000000000001,0.144,10.442,1.533,-0.0,0.958,10.203,-1.054,0.0,0.144,10.21,-1.582,64.516,-17.595,0.0
0.9450000000000001,0.335,10.73,1.485,-5.865,1.006,10.059,-1.102,-5.865,0.575,10.929,-1.438,64.516,-17.595,5.865
0.9500000000000001,0.623,11.113,1.533,-5.865,1.102,9.915,-1.054,0.0,1.007,11.504,-1.438,64.516,-11.73,5.865
0.9550000000000001,0.814,11.688,1.533,-0.0,1.245,9.772,-0.91,5.865,1.582,12.367,-1.438,58.651,-5.865,5.865
0.96,0.91,12.167,1.389,5.865,1.245,9.628,-0.719,11.73,2.013,13.517,-1.438,46.921,5.865,0.0
0.965,0.862,12.071,1.102,11.73,1.341,9.628,-0.575,23.46,2.301,14.236,-1.294,29.326,17.595,-5.865
0.97,0.958,12.167,1.054,23.46,1.198,9.484,-0.719,35.191,2.301,14.092,-1.007,5.865,35.191,-11.73
0.975,0.719,11.736,1.102,41.056,1.054,9.484,-0.623,52.786,2.301,14.092,-1.007,-23.46,52.786,-23.46
0.98,0.766,11.113,0.958,52.786,0.383,9.724,-0.671,58.651,1.726,13.373,-1.007,-46.921,70.381,-41.056
0.985,0.814,10.538,1.006,64.516,-0.719,10.251,-0.527,70.381,1.438,12.079,-0.863,-70.381,82.111,-58.651
0.99,1.006,10.634,0.671,64.516,-1.389,10.825,0.144,76.246,1.007,11.073,-0.863,-87.977,93.842,-58.651
0.995,1.198,10.49,-0.048,70.381,-2.251,11.065,0.814,82.111,0.431,10.641,-0.431,-99.707,99.707,-64.516
1.0,1.293,10.107,-0.671,76.246,-2.635,10.825,1.293,87.977,0.144,9.922,0.288,-99.707,93.842,-70.381
1.0050000000000001,1.006,9.197,-1.102,87.977,-2.012,10.49,1.341,87.977,-0.431,8.916,0.719,-93.842,82.111,-76.246
1.01,0.24,8.047,-1.054,87.977,-1.198,9.963,1.245,82.111,-1.15,7.478,1.007,-87.977,64.516,-87.977
1.0150000000000001,-0.575,7.137,-0.862,76.246,-0.431,9.197,0.91,64.516,-2.013,5.896,0.863,-64.516,35.191,-82.111
1.02,-1.102,6.371,-0.479,58.651,0.096,8.909,0.335,46.921,-2.588,4.889,0.719,-41.056,5.865,-70.381
1.025,-1.198,6.179,0.144,41.056,0.431,9.245,-0.479,23.46,-2.876,4.314,0.288,-11.73,-17.595,-52.786
1.03,-1.102,6.85,0.91,17.595,1.006,9.772,-1.389,0.0,-2.588,4.458,-0.431,17.595,-41.056,-35.191
1.035,-0.958,7.664,1.82,-0.0,1.341,10.059,-2.299,-17.595,-2.013,5.321,-1.15,46.921,-58.651,-11.73
1.04,-0.671,8.718,2.682,-23.46,1.868,10.107,-2.73,-35.191,-1.15,6.615,-2.013,76.246,-70.381,11.73
1.045,-0.719,9.628,2.97,-35.191,2.299,10.107,-2.539,-41.056,-0.575,8.34,-2.732,99.707,-82.111,29.326
1.05,-0.719,10.155,2.826,-41.056,2.203,9.628,-2.395,-41.056,-0.144,9.635,-2.876,111.437,-82.111,41.056
1.055,-0.431,10.059,2.682,-35.191,1.916,9.341,-2.156,-35.191,0.0,10.354,-2.588,117.302,-76.246,41.056
1.06,0.0,10.155,2.491,-35.191,1.629,9.053,-1.772,-35.191,0.575,10.497,-2.588,117.302,-64.516,35.191
1.065,0.335,10.682,2.156,-35.191,1.629,8.909,-1.437,-29.326,1.15,11.216,-2.157,117.302,-58.651,35.191
1.07,0.479,11.113,1.868,-29.326,1.82,8.766,-1.198,-23.46,1.582,12.367,-2.013,105.572,-41.056,35.191
1.075,0.431,11.209,1.677,-23.46,2.203,8.526,-1.198,-11.73,1.726,13.086,-1.726,87.977,-29.326,29.326
1.08,0.192,11.113,1.772,-11.73,2.251,8.239,-1.341,0.0,1.726,13.23,-1.582,64.516,-11.73,23.46
1.085,0.096,10.921,1.868,-0.0,2.203,8.383,-1.389,11.73,1.582,13.23,-1.726,41.056,5.865,11.73
1.09,0.048,10.682,1.868,11.73,1.629,8.909,-1.293,23.46,1.438,12.942,-1.869,5.865,23.46,0.0
1.095,0.383,10.825,1.677,23.46,0.431,9.484,-0.814,35.191,1.438,12.367,-1.726,-17.595,46.921,-17.595
1.1,0.862,10.921,1.102,41.056,-0.814,10.107,-0.287,46.921,1.294,12.223,-1.438,-41.056,58.651,-23.46
1.105,1.15,10.586,0.479,46.921,-1.581,10.49,0.144,52.786,1.15,11.792,-0.863,-58.651,70.381,-41.056
1.11,1.198,10.107,0.144,52.786,-1.916,10.394,0.335,58.651,0.719,10.641,-0.431,-70.381,76.246,-46.921
1.115,0.862,9.341,-0.144,58.651,-1.485,10.107,0.575,64.516,0.0,9.347,-0.0,-76.246,76.246,-58.651
1.12,0.24,8.526,-0.24,64.516,-0.814,9.676,0.527,58.651,-0.719,8.197,0.144,-76.246,64.516,-58.651
1.125,-0.383,7.664,-0.144,58.651,-0.287,9.532,0.335,52.786,-1.582,7.19,0.144,-64.516,46.921,-58.651
1.1300000000000001,-0.719,7.185,0.096,52.786,0.144,9.772,0.144,41.056,-2.013,6.04,-0.0,-46.921,23.46,-58.651
1.135,-0.91,7.472,0.287,35.191,0.479,10.203,-0.192,23.46,-2.013,5.464,-0.288,-29.326,0.0,-41.056
1.1400000000000001,-0.766,8.191,0.623,23.46,0.527,10.394,-0.527,11.73,-2.013,5.896,-0.431,0.0,-11.73,-23.46
1.145,-0.383,9.005,0.958,5.865,0.431,10.346,-0.719,0.0,-1.438,7.046,-0.719,29.326,-29.326,-11.73
1.1500000000000001,-0.048,9.484,1.102,-0.0,0.623,10.49,-0.91,-11.73,-0.719,8.34,-1.007,46.921,-41.056,-5.865
1.155,0.048,10.011,1.293,-11.73,0.814,10.346,-0.91,-11.73,-0.144,9.203,-1.15,64.516,-46.921,5.865
1.16,0.0,10.346,1.293,-11.73,1.102,10.299,-0.814,-17.595,0.0,10.066,-1.15,76.246,-52.786,11.73
1.165,-0.048,10.442,1.198,-17.595,1.054,10.107,-0.719,-17.595,0.144,10.641,-1.15,82.111,-52.786,17.595
1.17,0.096,10.538,1.15,-17.595,0.91,10.011,-0.766,-17.595,0.288,10.785,-1.007,82.111,-46.921,17.595
1.175,0.144,10.634,1.15,-17.595,0.91,10.251,-0.766,-17.595,0.431,11.073,-1.15,82.111,-46.921,17.595
1.18,0.24,10.873,1.15,-17.595,0.766,10.73,-0.91,-11.73,0.431,11.216,-1.15,76.246,-41.056,17.595
1.185,0.335,11.257,1.341,-11.73,0.623,11.209,-1.198,-11.73,0.575,11.504,-1.15,70.381,-35.191,17.595
1.19,0.431,11.544,1.629,-11.73,0.623,11.496,-1.389,-5.865,0.719,11.648,-1.438,64.516,-35.191,11.73
1.195,0.431,11.64,1.82,-5.865,0.479,11.783,-1.533,0.0,0.719,11.792,-1.582,58.651,-29.326,11.73
1.2,0.479,11.688,1.964,-0.0,0.383,11.927,-1.677,0.0,0.719,11.792,-1.869,58.651,-23.46,5.865
1.205,0.431,11.688,2.06,-0.0,0.287,12.071,-1.677,5.865,0.575,11.648,-2.013,58.651,-23.46,5.865
1.21,0.383,11.64,2.012,5.865,0.144,12.167,-1.581,11.73,0.431,11.36,-2.013,58.651,-17.595,0.0
1.215,0.335,11.544,1.916,5.865,0.192,12.071,-1.581,11.73,0.144,11.216,-2.013,64.516,-17.595,-5.865
1.22,0.24,11.352,1.916,11.73,0.335,11.831,-1.581,17.595,0.0,10.929,-1.869,70.381,-17.595,-11.73
1.225,0.096,11.113,1.916,17.595,0.479,11.544,-1.581,17.595,-0.144,10.785,-1.869,76.246,-23.46,-11.73
1.23,0.0,10.873,1.916,17.595,0.527,11.257,-1.437,17.595,-0.144,10.497,-1.869,87.977,-23.46,-11.73
1.235,-0.048,10.778,1.724,11.73,0.623,11.161,-1.198,11.73,-0.144,10.497,-1.869,93.842,-29.326,-11.73
1.24,-0.048,10.825,1.437,11.73,0.671,11.017,-0.862,11.73,-0.144,10.497,-1.582,99.707,-29.326,-11.73
1.245,0.0,10.921,1.198,11.73,0.766,10.634,-0.719,17.595,-0.144,10.785,-1.294,105.572,-35.191,-11.73
1.25,0.096,10.873,1.054,17.595,0.862,10.346,-0.575,17.595,0.0,11.073,-1.007,111.437,-35.191,-11.73
1.2550000000000001,0.048,10.969,0.91,17.595,1.102,9.963,-0.431,23.46,0.144,11.36,-1.007,111.437,-35.191,-11.73
1.26,0.0,10.634,0.814,23.46,1.198,9.676,-0.287,29.326,0.288,11.504,-0.863,111.437,-29.326,-17.595
1.2650000000000001,-0.096,10.49,0.671,29.326,1.341,9.341,-0.144,29.326,0.431,11.36,-0.719,105.572,-29.326,-23.46
1.27,-0.192,10.251,0.575,29.326,1.341,9.149,0.0,35.191,0.144,11.216,-0.575,99.707,-23.46,-23.46
1.2750000000000001,-0.24,10.059,0.431,35.191,1.293,9.053,0.144,41.056,0.144,11.073,-0.575,87.977,-17.595,-29.326
1.28,-0.287,9.82,0.287,41.056,1.198,8.909,0.335,46.921,0.0,10.785,-0.288,76.246,-17.595,-35.191
1.285,-0.335,9.58,0.096,46.921,1.102,8.766,0.479,52.786,-0.144,10.354,-0.144,70.381,-11.73,-41.056
1.29,-0.335,9.293,-0.048,52.786,1.054,8.67,0.623,58.651,-0.288,10.066,-0.0,64.516,-5.865,-46.921
1.295,-0.383,8.957,-0.24,58.651,1.102,8.43,0.719,64.516,-0.431,9.635,0.144,52.786,-5.865,-52.786
1.3,-0.575,8.622,-0.335,64.516,1.293,8.047,0.719,70.381,-0.431,9.203,0.288,52.786,0.0,-58.651
1.305,-0.671,8.239,-0.287,64.516,1.245,7.664,0.719,70.381,-0.719,8.772,0.288,46.921,0.0,-64.516
1.31,-0.719,7.856,-0.287,70.381,1.389,7.329,0.814,76.246,-0.719,8.484,0.288,46.921,0.0,-70.381
1.315,-0.814,7.52,-0.335,76.246,1.485,6.993,0.91,76.246,-0.863,8.053,0.288,41.056,0.0,-70.381
1.32,-0.958,7.137,-0.479,76.246,1.533,6.658,1.054,82.111,-1.007,7.765,0.431,41.056,0.0,-76.246
1.325,-1.102,6.658,-0.623,76.246,1.437,6.179,1.15,82.111,-1.15,7.334,0.575,35.191,0.0,-76.246
1.33,-1.102,6.083,-0.671,82.111,1.437,5.556,1.15,82.111,-1.294,6.615,0.719,35.191,-5.865,-76.246
1.335,-1.102,5.317,-0.623,82.111,1.581,4.838,1.006,82.111,-1.438,5.896,0.719,35.191,-5.865,-82.111
1.34,-1.245,4.598,-0.479,82.111,1.772,4.407,0.862,76.246,-1.438,5.177,0.575,35.191,-5.865,-82.111
1.345,-1.485,4.263,-0.335,76.246,2.395,4.072,0.958,70.381,-1.582,4.458,0.431,35.191,-11.73,-76.246
1.35,-2.012,3.88,-0.479,70.381,2.874,3.545,1.006,70.381,-1.869,4.17,0.431,35.191,-11.73,-70.381
1.355,-2.395,3.209,-0.479,70.381,3.209,2.778,0.814,64.516,-2.301,3.739,0.575,41.056,-17.595,-70.381
1.36,-2.778,2.395,-0.287,58.651,3.688,1.916,0.671,58.651,-2.588,3.02,0.431,41.056,-17.595,-64.516
1.365,-3.209,1.581,-0.144,58.651,4.119,1.102,0.527,46.921,-3.02,2.301,0.288,41.056,-17.595,-58.651
1.37,-3.593,0.719,0.048,46.921,4.598,0.24,0.431,41.056,-3.451,1.438,0.144,41.056,-17.595,-52.786
1.375,-3.976,-0.048,0.144,35.191,5.317,-0.719,0.479,29.326,-3.739,0.575,-0.0,46.921,-17.595,-41.056
1.3800000000000001,-4.503,-0.862,0.144,23.46,5.652,-1.581,0.623,11.73,-4.026,0.0,-0.0,46.921,-11.73,-35.191
1.385,-4.838,-1.629,-0.096,5.865,5.892,-2.299,0.91,-5.865,-4.314,-0.575,-0.0,46.921,-11.73,-17.595
1.3900000000000001,-5.077,-2.299,-0.335,-11.73,6.083,-2.97,1.15,-29.326,-4.745,-1.294,0.288,46.921,-5.865,0.0
1.395,-5.221,-2.922,-0.479,-29.326,5.94,-3.497,0.91,-46.921,-5.033,-1.869,0.431,41.056,0.0,17.595
1.4000000000000001,-3.784,-3.688,-0.096,-46.921,6.85,-4.407,0.814,-64.516,-5.896,-2.588,0.719,41.056,0.0,41.056
1.405,-6.323,-4.359,-0.192,-64.516,7.664,-5.03,0.91,-82.111,-5.608,-3.595,0.144,35.191,11.73,58.651
1.41,-6.562,-4.407,-0.24,-87.977,7.089,-5.461,0.527,-111.437,-4.745,-3.595,0.288,29.326,23.46,82.111
1.415,-5.604,-4.551,0.24,-111.437,6.035,-5.365,0.527,-134.897,-5.177,-3.164,0.144,29.326,23.46,99.707
1.42,-4.742,-4.263,0.096,-134.897,4.503,-4.359,0.862,-158.358,-4.458,-3.307,-0.144,17.595,35.191,123.167
1.425,-3.545,-3.401,-0.24,-158.358,2.874,-3.449,0.958,-175.953,-4.026,-3.02,0.144,5.865,41.056,146.628
1.43,-2.251,-2.491,-0.335,-175.953,1.437,-2.299,0.91,-193.548,-3.02,-2.301,0.288,-5.865,52.786,164.223
1.435,-1.102,-1.198,-0.335,-187.683,0.287,-1.15,0.814,-199.413,-2.013,-1.438,0.431,-17.595,52.786,181.818
1.44,0.048,0.383,-0.24,-199.413,-0.575,0.335,0.383,-205.279,-1.15,0.144,0.288,-23.46,52.786,199.413
1.445,0.958,2.06,0.24,-205.279,-1.245,1.677,-0.24,-211.144,0.144,2.013,0.144,-35.191,52.786,205.279
1.45,1.677,3.784,0.814,-205.279,2.012,-9.963,0.623,-134.897,1.15,3.883,-0.431,-46.921,52.786,211.144
1.455,6.419,23.327,-3.497,-181.818,-16.621,4.886,6.131,41.056,-2.445,-7.621,-1.007,-58.651,46.921,211.144
1.46,21.986,24.094,0.048,-52.786,-15.568,23.998,-7.616,70.381,10.641,63.991,3.307,64.516,58.651,170.088
1.465,24.046,24.094,4.263,70.381,-8.095,24.333,4.503,146.628,41.702,66.292,1.438,-99.707,52.786,-117.302
1.47,7.041,24.094,-8.909,158.358,-0.048,24.333,10.299,205.279,28.472,15.818,5.033,-469.208,111.437,-363.636
1.475,-2.587,16.286,-11.831,211.144,-0.527,17.244,7.616,217.009,2.588,6.615,12.367,-557.185,170.088,-334.311
1.48,-2.539,6.946,-7.568,211.144,-1.581,9.532,4.024,193.548,-6.04,3.02,11.504,-486.803,170.088,-258.064
1.485,-1.533,4.694,-3.928,187.683,-0.814,8.191,1.437,146.628,-6.183,0.288,6.183,-375.366,129.032,-211.144
1.49,-1.485,7.041,-1.006,134.897,0.287,15.089,-0.862,64.516,-5.033,2.588,3.164,-287.39,82.111,-175.953
1.495,-1.437,10.586,1.245,52.786,-0.431,18.442,-3.976,-23.46,-4.458,7.334,0.288,-240.469,41.056,-111.437
1.5,-1.341,12.933,4.646,-29.326,0.383,19.495,-7.52,-76.246,-4.17,6.759,-2.157,-205.279,5.865,-17.595
1.5050000000000001,-0.623,14.083,7.904,-76.246,2.203,21.986,-8.766,-105.572,-4.17,9.203,-6.183,-158.358,-23.46,52.786
1.51,-1.245,15.568,9.005,-105.572,3.018,23.806,-8.814,-134.897,-1.726,9.347,-8.484,-99.707,-46.921,93.842
1.5150000000000001,-1.293,17.1,8.766,-134.897,2.299,22.8,-7.856,-152.493,-2.157,10.497,-9.347,-29.326,-58.651,117.302
1.52,-0.24,17.34,7.664,-152.493,1.341,18.968,-6.514,-158.358,-1.438,11.935,-8.628,41.056,-58.651,140.762
1.5250000000000001,0.431,16.047,6.227,-152.493,1.724,14.226,-4.694,-140.762,-0.431,13.517,-7.19,117.302,-58.651,158.358
1.53,0.144,14.035,4.598,-134.897,1.629,11.927,-3.257,-117.302,0.144,14.524,-5.752,170.088,-52.786,152.493
1.5350000000000001,-0.144,13.173,3.305,-111.437,1.629,10.825,-2.395,-99.707,0.0,14.092,-3.883,193.548,-46.921,134.897
1.54,0.383,12.358,2.539,-99.707,1.006,9.963,-2.108,-93.842,0.0,14.092,-2.876,193.548,-41.056,105.572
1.545,1.006,12.646,2.347,-87.977,1.677,9.341,-2.012,-82.111,0.144,13.661,-2.157,181.818,-35.191,99.707
1.55,0.479,12.071,2.443,-76.246,2.012,9.532,-2.203,-64.516,0.431,13.661,-2.013,164.223,-29.326,93.842
1.555,-0.048,12.071,2.491,-64.516,2.395,9.915,-1.581,-52.786,0.431,13.949,-2.445,140.762,-17.595,93.842
1.56,-0.431,12.262,1.868,-46.921,2.299,10.682,-0.766,-35.191,0.575,14.236,-2.301,111.437,-5.865,87.977
1.565,-0.335,12.31,1.198,-29.326,1.533,10.251,-0.719,-11.73,0.288,14.236,-1.438,87.977,5.865,70.381
1.57,-0.144,11.64,1.198,-5.865,1.293,9.676,-0.575,11.73,0.431,13.661,-1.007,64.516,17.595,46.921
1.575,-0.144,10.49,0.862,11.73,1.198,9.053,0.144,23.46,-0.144,12.367,-1.15,46.921,23.46,17.595
1.58,-0.048,9.772,0.24,23.46,1.006,8.766,0.479,23.46,-0.288,11.216,-0.575,29.326,29.326,-5.865
1.585,0.048,9.676,-0.096,23.46,0.671,9.436,0.958,23.46,-0.144,10.641,-0.0,17.595,35.191,-17.595
1.59,0.192,10.251,-0.671,23.46,-0.048,10.155,1.629,23.46,-0.144,10.641,0.288,5.865,35.191,-11.73
1.595,0.958,10.921,-1.293,23.46,-0.719,10.634,2.012,29.326,0.0,11.216,0.863,0.0,41.056,-17.595
1.6,1.629,11.113,-1.629,29.326,-1.198,10.778,2.299,29.326,0.863,11.648,1.438,-5.865,41.056,-23.46
1.605,1.772,10.969,-1.964,29.326,-0.958,11.065,2.539,29.326,1.294,11.648,1.726,-11.73,41.056,-23.46
1.61,1.437,10.825,-2.108,29.326,-0.814,10.73,2.395,29.326,1.007,10.929,2.157,-17.595,35.191,-23.46
1.615,1.389,10.346,-1.964,29.326,-0.671,10.634,2.251,29.326,0.863,10.641,2.157,-17.595,35.191,-23.46
1.62,1.102,10.299,-1.868,29.326,-0.575,10.825,2.251,29.326,0.575,10.066,1.869,-17.595,29.326,-23.46
1.625,1.102,10.299,-1.868,29.326,-0.479,10.586,1.916,23.46,0.431,10.21,1.869,-11.73,29.326,-23.46
1.6300000000000001,0.862,10.155,-1.485,23.46,-0.287,10.251,1.772,17.595,0.431,10.066,1.726,-11.73,23.46,-23.46
1.635,0.719,9.915,-1.341,17.595,-0.048,10.059,1.485,17.595,0.0,10.066,1.438,-5.865,17.595,-17.595
1.6400000000000001,0.527,9.82,-1.054,17.595,0.383,9.915,1.198,11.73,0.0,9.778,1.294,0.0,11.73,-11.73
1.645,0.287,9.772,-0.719,11.73,0.623,9.628,0.862,11.73,-0.144,9.778,1.007,5.865,11.73,-11.73
1.6500000000000001,0.24,9.676,-0.383,11.73,0.719,9.532,0.671,5.865,-0.144,9.922,0.719,5.865,5.865,-11.73
1.655,0.096,9.676,-0.192,5.865,0.719,9.484,0.575,5.865,-0.144,9.922,0.431,5.865,5.865,-5.865
1.6600000000000001,0.096,9.676,-0.144,5.865,0.766,9.341,0.575,5.865,-0.288,9.922,0.288,5.865,5.865,0.0
1.665,0.048,9.58,-0.096,5.865,0.719,9.245,0.383,5.865,-0.288,9.922,0.144,5.865,5.865,0.0
1.67,0.048,9.388,0.096,5.865,0.719,9.053,0.335,5.865,-0.431,9.778,0.144,5.865,5.865,0.0
1.675,0.048,9.293,0.144,5.865,0.814,8.909,0.335,5.865,-0.288,9.635,-0.0,5.865,5.865,0.0
1.68,0.048,9.245,0.144,5.865,0.719,8.862,0.287,5.865,-0.288,9.635,-0.0,0.0,5.865,0.0
1.685,0.096,9.293,0.192,-0.0,0.575,9.005,0.335,5.865,-0.288,9.635,-0.144,0.0,5.865,0.0
1.69,0.24,9.293,0.144,5.865,0.479,9.101,0.192,5.865,-0.288,9.635,-0.144,-5.865,5.865,0.0
1.695,0.383,9.436,0.287,5.865,0.479,9.293,-0.048,5.865,-0.144,9.635,-0.0,-5.865,5.865,-5.865
1.7,0.431,9.676,0.527,5.865,0.479,9.484,-0.287,5.865,0.0,9.778,-0.431,-11.73,0.0,0.0
1.705,0.431,9.772,0.766,5.865,0.479,9.58,-0.479,11.73,0.0,10.066,-0.575,-11.73,0.0,0.0
1.71,0.431,9.724,0.958,5.865,0.527,9.532,-0.575,11.73,0.144,10.066,-0.863,-17.595,0.0,-5.865
1.715,0.383,9.58,1.006,11.73,0.527,9.532,-0.623,11.73,0.144,9.922,-1.007,-17.595,5.865,-11.73
1.72,0.287,9.484,1.102,11.73,0.623,9.532,-0.671,11.73,0.0,9.635,-1.007,-17.595,5.865,-11.73
1.725,0.192,9.388,1.15,11.73,0.575,9.628,-0.766,11.73,-0.144,9.491,-1.15,-17.595,5.865,-11.73
1.73,0.192,9.388,1.198,11.73,0.623,9.772,-0.862,11.73,-0.288,9.347,-1.15,-17.595,5.865,-11.73
1.735,0.192,9.436,1.293,11.73,0.671,9.963,-0.91,5.865,-0.144,9.203,-1.294,-17.595,5.865,-5.865
1.74,0.096,9.58,1.341,5.865,0.671,10.059,-0.958,5.865,-0.288,9.347,-1.294,-11.73,5.865,-5.865
1.745,0.144,9.676,1.389,5.865,0.575,10.059,-0.958,0.0,-0.288,9.347,-1.294,-5.865,5.865,0.0
1.75,0.24,9.772,1.341,-0.0,0.575,9.963,-0.814,0.0,-0.288,9.491,-1.438,0.0,5.865,0.0
1.7550000000000001,0.287,9.867,1.245,-0.0,0.575,9.867,-0.719,0.0,-0.144,9.635,-1.294,0.0,5.865,0.0
1.76,0.335,9.867,1.15,-0.0,0.527,9.724,-0.623,0.0,-0.144,9.922,-1.15,5.865,0.0,0.0
1.7650000000000001,0.335,9.82,1.006,-0.0,0.527,9.58,-0.479,0.0,0.0,9.922,-1.15,5.865,5.865,0.0
1.77,0.335,9.724,0.91,-0.0,0.527,9.484,-0.431,0.0,-0.144,9.922,-1.007,5.865,0.0,5.865
1.7750000000000001,0.335,9.676,0.862,-0.0,0.623,9.436,-0.335,0.0,0.0,9.922,-0.863,5.865,5.865,5.865
1.78,0.287,9.676,0.719,-0.0,0.527,9.388,-0.24,0.0,0.0,9.922,-0.863,5.865,5.865,0.0
1.7850000000000001,0.383,9.676,0.719,-0.0,0.383,9.388,-0.192,0.0,0.0,10.066,-0.719,5.865,5.865,0.0
1.79,0.479,9.628,0.623,-0.0,0.335,9.532,-0.096,5.865,0.144,9.922,-0.719,5.865,5.865,0.0
1.795,0.527,9.676,0.527,-0.0,0.335,9.532,-0.144,5.865,0.144,9.922,-0.575,0.0,5.865,0.0
1.8,0.479,9.724,0.575,-0.0,0.335,9.436,-0.048,5.865,0.144,9.922,-0.575,0.0,5.865,0.0
1.805,0.479,9.628,0.479,-0.0,0.335,9.436,-0.048,5.865,0.144,9.922,-0.575,0.0,5.865,0.0
1.81,0.479,9.58,0.527,5.865,0.431,9.484,-0.096,5.865,0.0,9.778,-0.431,0.0,5.865,0.0
1.815,0.383,9.58,0.575,-0.0,0.527,9.484,-0.192,5.865,0.0,9.778,-0.575,-5.865,5.865,0.0
1.82,0.335,9.628,0.623,-0.0,0.479,9.532,-0.192,5.865,0.0,9.778,-0.575,-5.865,5.865,0.0
1.825,0.383,9.724,0.623,5.865,0.479,9.676,-0.192,5.865,0.0,9.922,-0.575,-5.865,5.865,0.0
1.83,0.383,9.82,0.623,-0.0,0.527,9.772,-0.192,5.865,0.0,9.922,-0.575,-5.865,5.865,0.0
1.835,0.287,9.867,0.623,5.865,0.575,9.772,-0.24,5.865,0.0,10.066,-0.575,-11.73,5.865,0.0
1.84,0.287,9.82,0.671,5.865,0.671,9.724,-0.287,5.865,0.0,9.922,-0.575,-11.73,5.865,0.0
1.845,0.192,9.772,0.719,5.865,0.766,9.676,-0.287,5.865,-0.144,9.922,-0.719,-11.73,5.865,0.0
1.85,0.144,9.724,0.719,5.865,0.766,9.628,-0.287,5.865,-0.144,9.922,-0.719,-11.73,5.865,-5.865
1.855,0.096,9.676,0.719,5.865,0.719,9.628,-0.24,5.865,-0.144,9.778,-0.719,-11.73,5.865,-5.865
1.86,0.144,9.724,0.671,5.865,0.479,9.724,-0.192,5.865,-0.288,9.778,-0.719,-11.73,5.865,-5.865
1.865,0.287,9.82,0.575,5.865,0.335,9.915,-0.096,5.865,-0.288,9.922,-0.719,-11.73,5.865,-5.865
1.87,0.431,9.963,0.527,5.865,0.287,10.011,-0.096,5.865,-0.144,10.066,-0.575,-11.73,5.865,-5.865
1.875,0.431,10.107,0.527,5.865,0.287,10.107,-0.144,5.865,0.0,10.21,-0.575,-11.73,5.865,-5.865
1.8800000000000001,0.479,10.155,0.575,5.865,0.335,10.155,-0.192,5.865,0.0,10.21,-0.575,-11.73,5.865,0.0
1.885,0.431,10.203,0.623,5.865,0.383,10.155,-0.24,5.865,0.0,10.21,-0.575,-11.73,5.865,0.0
1.8900000000000001,0.431,10.155,0.671,5.865,0.431,10.059,-0.24,11.73,0.0,10.21,-0.575,-11.73,0.0,-5.865
1.895,0.383,10.107,0.671,5.865,0.431,10.059,-0.287,11.73,-0.144,10.21,-0.719,-11.73,0.0,-5.865
1.9000000000000001,0.383,10.107,0.719,11.73,0.479,10.011,-0.287,11.73,0.0,10.21,-0.719,-11.73,0.0,-5.865
1.905,0.383,10.203,0.671,5.865,0.479,10.059,-0.24,11.73,0.0,10.354,-0.719,-11.73,0.0,-5.865
1.9100000000000001,0.335,10.203,0.671,5.865,0.479,10.107,-0.24,11.73,0.0,10.354,-0.719,-11.73,0.0,-5.865
1.915,0.335,10.251,0.671,11.73,0.527,10.155,-0.24,11.73,-0.144,10.497,-0.719,-11.73,0.0,-5.865
1.92,0.335,10.251,0.671,11.73,0.575,10.155,-0.24,11.73,-0.144,10.497,-0.719,-11.73,0.0,-5.865
1.925,0.287,10.251,0.719,11.73,0.575,10.107,-0.335,11.73,-0.144,10.497,-0.719,-17.595,0.0,-11.73
1.93,0.287,10.251,0.766,11.73,0.479,10.107,-0.335,17.595,-0.144,10.497,-0.719,-17.595,0.0,-11.73
1.935,0.335,10.299,0.766,11.73,0.431,10.203,-0.287,17.595,-0.144,10.497,-0.863,-17.595,0.0,-11.73
1.94,0.383,10.394,0.719,17.595,0.383,10.299,-0.287,17.595,-0.144,10.497,-0.719,-17.595,0.0,-11.73
1.945,0.383,10.442,0.719,17.595,0.24,10.394,-0.335,17.595,-0.144,10.641,-0.719,-17.595,0.0,-11.73
1.95,0.479,10.394,0.766,23.46,0.335,10.346,-0.287,23.46,-0.144,10.641,-0.719,-17.595,-5.865,-17.595
1.955,0.383,10.299,0.719,17.595,0.383,10.442,-0.431,17.595,-0.144,10.354,-0.719,-17.595,-5.865,-17.595
1.96,0.383,10.442,0.862,23.46,0.575,10.394,-0.479,23.46,-0.144,10.354,-0.719,-17.595,-5.865,-17.595
1.965,0.24,10.346,0.91,23.46,0.623,10.251,-0.527,29.326,-0.144,10.497,-0.863,-17.595,-5.865,-17.595
1.97,0.335,10.155,1.006,23.46,0.623,10.251,-0.623,23.46,-0.144,10.354,-0.863,-17.595,-5.865,-23.46
1.975,0.287,10.299,1.054,23.46,0.766,10.299,-0.575,23.46,0.0,10.21,-1.007,-17.595,-5.865,-23.46
1.98,0.192,10.49,1.006,23.46,0.814,10.059,-0.719,29.326,-0.144,10.497,-1.007,-17.595,-5.865,-17.595
1.985,0.287,10.299,1.198,29.326,0.91,9.772,-0.958,29.326,-0.144,10.785,-1.007,-11.73,-5.865,-23.46
1.99,0.24,10.299,1.437,29.326,1.341,9.484,-1.054,29.326,0.144,10.641,-1.294,-17.595,-5.865,-23.46
1.995,0.048,10.346,1.533,29.326,1.724,9.245,-1.054,29.326,0.144,10.929,-1.438,-17.595,-5.865,-23.46
2.0,0.0,10.442,1.533,35.191,1.82,9.053,-1.102,35.191,0.144,11.36,-1.438,-23.46,0.0,-23.46
2.005,-0.048,10.538,1.581,35.191,1.772,9.149,-1.102,41.056,0.288,11.648,-1.438,-29.326,5.865,-29.326
2.0100000000000002,0.048,10.73,1.533,41.056,1.724,9.245,-0.958,41.056,0.431,11.935,-1.438,-46.921,17.595,-35.191
2.015,0.096,10.873,1.341,46.921,1.581,9.245,-0.814,52.786,0.431,12.223,-1.294,-64.516,23.46,-41.056
2.02,0.144,10.825,1.198,52.786,1.389,9.197,-0.671,58.651,0.431,12.367,-1.15,-76.246,35.191,-46.921
2.025,0.096,10.586,0.958,58.651,1.15,9.053,-0.383,64.516,0.431,12.079,-1.007,-93.842,46.921,-52.786
2.0300000000000002,-0.096,9.963,0.671,64.516,0.958,9.149,-0.383,76.246,0.0,11.504,-0.719,-111.437,52.786,-58.651
2.035,-0.287,9.293,0.623,70.381,0.719,9.149,-0.383,76.246,-0.431,10.354,-0.431,-129.032,58.651,-70.381
2.04,-0.383,8.622,0.575,76.246,0.335,9.149,-0.383,70.381,-1.007,9.059,-0.575,-134.897,58.651,-70.381
2.045,-0.527,8.047,0.623,70.381,0.24,9.628,-0.527,64.516,-1.438,8.053,-0.575,-140.762,58.651,-70.381
2.05,-0.862,7.664,0.862,64.516,0.144,10.107,-0.766,52.786,-2.013,6.902,-0.719,-134.897,52.786,-64.516
2.055,-1.198,7.377,1.054,52.786,0.575,10.538,-0.958,41.056,-2.588,5.752,-1.007,-123.167,41.056,-58.651
2.06,-1.533,7.137,1.341,35.191,0.958,10.538,-1.485,23.46,-3.164,4.889,-1.294,-99.707,23.46,-46.921
2.065,-1.724,6.946,1.916,23.46,1.437,10.251,-2.156,5.865,-3.451,4.314,-1.726,-70.381,5.865,-29.326
2.07,-1.772,7.089,2.587,-0.0,1.82,10.011,-2.635,-17.595,-3.307,4.314,-2.301,-29.326,-17.595,-17.595
2.075,-1.677,7.616,3.066,-17.595,2.06,10.107,-3.066,-35.191,-3.02,5.033,-2.876,5.865,-29.326,5.865
2.08,-1.581,8.239,3.401,-41.056,2.299,10.442,-3.209,-52.786,-2.445,6.183,-3.307,41.056,-41.056,29.326
2.085,-1.341,8.862,3.497,-52.786,2.395,10.49,-3.161,-64.516,-2.157,7.046,-3.451,70.381,-46.921,46.921
2.09,-1.198,9.436,3.401,-64.516,2.395,10.538,-2.97,-76.246,-1.582,7.909,-3.451,87.977,-52.786,58.651
2.095,-0.91,10.059,3.209,-76.246,2.108,10.299,-2.73,-76.246,-1.15,8.916,-3.307,105.572,-52.786,70.381
2.1,-0.479,10.49,2.97,-76.246,1.964,9.963,-2.443,-76.246,-0.719,9.922,-3.02,123.167,-52.786,76.246
2.105,-0.096,10.921,2.778,-76.246,1.916,9.628,-2.156,-70.381,-0.144,11.073,-2.876,129.032,-46.921,76.246
2.11,0.144,11.4,2.539,-70.381,1.916,9.293,-1.82,-64.516,0.431,12.079,-2.588,123.167,-41.056,76.246
2.115,0.335,11.879,2.203,-64.516,1.82,9.197,-1.437,-52.786,0.863,13.23,-2.301,117.302,-29.326,70.381
2.12,0.479,12.262,1.916,-52.786,1.629,9.197,-1.245,-35.191,1.15,14.236,-1.869,93.842,-17.595,64.516
2.125,0.575,12.262,1.677,-35.191,1.341,9.293,-1.102,-17.595,1.15,14.668,-1.726,70.381,-5.865,46.921
2.13,0.671,12.119,1.533,-11.73,1.198,9.341,-0.91,0.0,1.15,14.668,-1.438,41.056,11.73,29.326
2.1350000000000002,0.575,11.64,1.389,-0.0,1.006,9.532,-0.814,17.595,1.007,14.092,-1.438,5.865,23.46,11.73
2.14,0.479,11.4,1.198,23.46,0.671,9.772,-0.623,29.326,0.863,13.373,-1.15,-23.46,35.191,-5.865
2.145,0.479,11.209,1.006,35.191,0.527,9.82,-0.479,46.921,0.431,12.798,-1.007,-46.921,46.921,-23.46
2.15,0.192,10.634,0.766,46.921,0.335,9.82,-0.287,52.786,0.0,12.079,-0.863,-70.381,52.786,-35.191
2.1550000000000002,-0.048,9.867,0.575,52.786,0.096,9.82,-0.096,58.651,-0.575,11.073,-0.719,-87.977,52.786,-46.921
2.16,-0.335,8.957,0.431,58.651,0.431,9.963,-0.048,58.651,-1.15,9.491,-0.575,-93.842,52.786,-52.786
2.165,-0.862,8.095,0.335,58.651,0.431,9.724,-0.287,52.786,-1.869,7.765,-0.431,-93.842,46.921,-58.651
2.17,-1.15,7.377,0.671,46.921,0.719,9.628,-0.623,35.191,-2.588,6.327,-0.575,-82.111,35.191,-52.786
2.1750000000000003,-1.245,7.089,1.054,35.191,1.15,9.628,-1.006,17.595,-2.732,5.464,-1.007,-64.516,17.595,-46.921
2.18,-1.533,7.185,1.437,17.595,1.677,9.82,-1.485,0.0,-2.732,5.177,-1.294,-41.056,0.0,-23.46
2.185,-1.485,7.664,1.964,-0.0,1.772,10.011,-1.964,-17.595,-2.732,5.464,-1.726,-11.73,-11.73,-11.73
2.19,-1.198,8.383,2.395,-17.595,1.82,10.251,-2.203,-35.191,-2.157,6.327,-2.157,5.865,-23.46,5.865
2.195,-1.006,9.101,2.635,-35.191,2.012,10.49,-2.251,-41.056,-1.726,7.478,-2.588,41.056,-29.326,29.326
2.2,-0.862,9.724,2.635,-41.056,1.964,10.346,-2.251,-46.921,-1.294,8.484,-2.588,58.651,-35.191,35.191
2.205,-0.623,10.107,2.635,-46.921,1.868,10.107,-2.108,-46.921,-1.007,9.347,-2.588,70.381,-35.191,46.921
2.21,-0.383,10.394,2.443,-46.921,1.772,9.867,-1.868,-46.921,-0.575,10.21,-2.445,82.111,-29.326,52.786
2.215,-0.24,10.586,2.251,-46.921,1.724,9.82,-1.629,-46.921,-0.288,10.785,-2.301,82.111,-29.326,52.786
2.22,-0.096,10.825,2.06,-41.056,1.581,9.676,-1.485,-41.056,-0.144,11.36,-2.157,82.111,-23.46,46.921
2.225,0.048,10.873,1.916,-35.191,1.389,9.58,-1.389,-29.326,0.144,11.792,-1.869,76.246,-11.73,41.056
2.23,0.192,11.017,1.82,-29.326,1.15,9.724,-1.293,-23.46,0.288,12.079,-1.726,64.516,-5.865,35.191
2.235,0.383,11.209,1.724,-23.46,0.814,10.155,-1.102,-17.595,0.431,12.223,-1.726,52.786,0.0,29.326
2.24,0.575,11.496,1.533,-17.595,0.575,10.538,-1.006,-5.865,0.431,12.511,-1.582,41.056,5.865,23.46
2.245,0.623,11.688,1.389,-5.865,0.383,10.873,-0.958,0.0,0.431,12.511,-1.438,23.46,17.595,17.595
2.25,0.623,11.736,1.389,-0.0,0.335,11.017,-0.958,11.73,0.431,12.511,-1.438,5.865,17.595,5.865
2.255,0.527,11.64,1.389,11.73,0.575,11.065,-1.006,23.46,0.144,12.367,-1.294,0.0,23.46,-5.865
2.2600000000000002,0.335,11.352,1.437,23.46,0.623,10.873,-1.054,29.326,0.0,11.935,-1.438,-11.73,23.46,-11.73
2.265,0.192,10.969,1.485,29.326,0.671,10.778,-0.958,29.326,-0.144,11.504,-1.438,-17.595,23.46,-23.46
2.27,0.096,10.634,1.341,29.326,0.623,10.778,-0.814,35.191,-0.431,10.929,-1.438,-17.595,23.46,-23.46
2.275,0.0,10.394,1.198,29.326,0.527,10.969,-0.671,29.326,-0.575,10.497,-1.294,-17.595,23.46,-23.46
2.2800000000000002,0.0,10.251,1.102,29.326,0.479,11.113,-0.671,23.46,-0.719,10.066,-1.15,-17.595,17.595,-23.46
2.285,-0.048,10.203,1.054,23.46,0.479,11.352,-0.671,17.595,-0.863,9.635,-1.15,-11.73,17.595,-23.46
2.29,-0.096,10.442,1.054,17.595,0.575,11.448,-0.766,17.595,-0.863,9.635,-1.15,-5.865,11.73,-17.595
2.295,0.0,10.682,1.198,11.73,0.623,11.496,-1.006,11.73,-0.863,9.778,-1.15,5.865,5.865,-11.73
2.3000000000000003,0.096,11.017,1.389,11.73,0.671,11.64,-1.102,5.865,-0.719,10.354,-1.294,17.595,0.0,-11.73
2.305,0.192,11.4,1.533,5.865,0.671,11.831,-1.198,5.865,-0.431,10.929,-1.438,23.46,0.0,-5.865
2.31,0.287,11.783,1.581,5.865,0.623,11.927,-1.198,5.865,-0.288,11.36,-1.582,29.326,-5.865,0.0
2.315,0.383,12.071,1.581,5.865,0.575,11.975,-1.15,5.865,-0.144,11.935,-1.582,35.191,-5.865,0.0
2.32,0.479,12.215,1.533,5.865,0.527,12.071,-1.15,11.73,0.0,12.223,-1.582,41.056,-5.865,0.0
2.325,0.479,12.215,1.485,5.865,0.527,12.119,-1.054,11.73,0.0,12.367,-1.582,35.191,-5.865,-5.865
2.33,0.479,12.262,1.437,11.73,0.479,12.167,-1.054,11.73,0.0,12.367,-1.438,35.191,-5.865,-5.865
2.335,0.479,12.262,1.389,11.73,0.479,12.215,-1.054,17.595,0.0,12.367,-1.438,35.191,-5.865,-11.73
2.34,0.479,12.31,1.437,17.595,0.431,12.215,-1.054,23.46,0.0,12.367,-1.438,35.191,-5.865,-11.73
2.345,0.479,12.31,1.485,23.46,0.479,12.167,-1.102,23.46,0.0,12.511,-1.438,35.191,0.0,-17.595
2.35,0.479,12.262,1.533,23.46,0.527,12.167,-1.198,29.326,0.0,12.367,-1.438,35.191,0.0,-17.595
2.355,0.431,12.262,1.581,29.326,0.623,12.119,-1.245,35.191,0.0,12.367,-1.582,35.191,0.0,-23.46
2.36,0.383,12.215,1.677,35.191,0.623,12.119,-1.341,35.191,0.0,12.367,-1.582,35.191,0.0,-23.46
2.365,0.383,12.167,1.772,35.191,0.671,12.023,-1.437,41.056,0.0,12.223,-1.726,35.191,0.0,-35.191
2.37,0.383,12.071,1.82,41.056,0.671,12.023,-1.485,41.056,0.0,12.223,-1.726,35.191,0.0,-35.191
2.375,0.383,12.023,1.916,41.056,0.719,11.879,-1.533,46.921,0.0,12.079,-1.869,35.191,0.0,-41.056
2.38,0.335,11.975,1.964,46.921,0.814,11.736,-1.581,46.921,0.0,12.079,-1.869,35.191,0.0,-41.056
2.3850000000000002,0.335,11.879,2.012,46.921,0.91,11.544,-1.581,52.786,0.0,12.079,-2.013,35.191,0.0,-46.921
2.39,0.24,11.688,1.964,52.786,1.102,11.161,-1.437,58.651,0.0,11.935,-2.013,35.191,5.865,-46.921
2.395,0.144,11.448,1.868,58.651,1.15,10.73,-1.245,64.516,0.0,11.935,-2.013,35.191,5.865,-52.786
2.4,0.048,11.161,1.629,64.516,1.198,10.442,-0.958,70.381,0.0,11.792,-1.726,29.326,11.73,-58.651
2.4050000000000002,-0.048,10.825,1.341,70.381,1.15,10.155,-0.671,76.246,-0.144,11.504,-1.582,29.326,17.595,-64.516
2.41,-0.096,10.442,1.054,76.246,1.006,9.915,-0.431,82.111,-0.288,11.073,-1.15,23.46,17.595,-70.381
2.415,-0.096,10.155,0.814,82.111,1.006,9.628,-0.287,82.111,-0.431,10.641,-1.007,23.46,23.46,-76.246
2.42,-0.144,9.867,0.719,82.111,0.91,9.436,-0.24,87.977,-0.431,10.354,-0.719,17.595,23.46,-82.111
2.4250000000000003,-0.144,9.484,0.671,87.977,1.054,9.197,-0.048,93.842,-0.575,9.922,-0.719,5.865,23.46,-87.977
2.43,-0.383,9.053,0.431,93.842,1.15,8.718,0.096,99.707,-0.719,9.347,-0.575,5.865,23.46,-87.977
2.435,-0.623,8.43,0.383,99.707,1.198,8.191,0.048,105.572,-1.007,8.772,-0.431,5.865,23.46,-93.842
2.44,-0.814,7.712,0.383,99.707,1.293,7.568,0.048,105.572,-1.294,8.053,-0.431,5.865,23.46,-99.707
2.445,-1.006,6.993,0.383,105.572,1.485,7.041,0.096,105.572,-1.582,7.19,-0.431,5.865,17.595,-105.572
2.45,-1.245,6.467,0.335,105.572,1.772,6.754,0.144,105.572,-1.726,6.471,-0.431,17.595,17.595,-105.572
2.455,-1.581,6.083,0.335,99.707,2.108,6.131,0.0,99.707,-2.013,5.896,-0.431,23.46,11.73,-99.707
2.46,-1.772,5.461,0.527,99.707,2.299,5.365,-0.24,99.707,-2.445,5.464,-0.431,29.326,5.865,-99.707
2.465,-1.964,4.79,0.766,99.707,2.587,4.551,-0.479,93.842,-2.445,4.889,-0.575,41.056,0.0,-99.707
2.47,-2.203,4.167,1.006,93.842,3.114,3.832,-0.671,87.977,-2.445,4.314,-0.863,41.056,-5.865,-93.842
2.475,-2.635,3.64,1.245,82.111,3.64,3.161,-0.814,76.246,-2.732,3.883,-1.15,46.921,-5.865,-87.977
2.48,-3.018,3.114,1.389,76.246,4.119,2.491,-1.006,70.381,-3.02,3.451,-1.294,52.786,-11.73,-82.111
2.485,-3.305,2.539,1.581,70.381,4.263,2.251,-1.054,64.516,-3.307,3.02,-1.438,52.786,-11.73,-70.381
2.49,-3.497,2.299,1.629,58.651,4.551,1.82,-1.15,52.786,-3.451,2.588,-1.582,52.786,-5.865,-64.516
2.495,-3.736,1.868,1.724,52.786,4.742,1.437,-1.15,46.921,-3.739,2.301,-1.582,52.786,-5.865,-58.651
2.5,-4.024,1.341,1.677,46.921,4.982,0.766,-0.958,41.056,-3.883,1.869,-1.726,52.786,-5.865,-46.921
2.505,-4.311,0.431,1.485,35.191,5.221,0.096,-0.766,29.326,-4.17,1.007,-1.582,46.921,0.0,-41.056
2.5100000000000002,-4.694,-0.527,1.293,29.326,5.509,-0.814,-0.527,17.595,-4.458,-0.144,-1.438,46.921,0.0,-35.191
2.515,-5.077,-1.533,1.102,11.73,5.844,-2.156,-0.383,5.865,-5.033,-1.15,-1.294,52.786,5.865,-23.46
2.52,-5.413,-2.682,0.91,-0.0,6.179,-3.401,-0.048,-11.73,-5.321,-2.157,-1.007,52.786,5.865,-5.865
2.525,-5.796,-3.784,0.623,-17.595,6.658,-4.598,0.144,-29.326,-5.752,-3.164,-0.863,58.651,5.865,5.865
2.5300000000000002,-6.275,-4.934,0.431,-35.191,7.137,-5.988,0.192,-52.786,-6.04,-4.17,-0.575,64.516,5.865,23.46
2.535,-6.754,-6.179,0.479,-58.651,7.712,-7.377,-0.048,-82.111,-6.615,-5.321,-0.431,64.516,5.865,41.056
2.54,-7.089,-7.281,0.766,-82.111,8.287,-8.574,-0.096,-105.572,-6.902,-6.471,-0.575,64.516,11.73,70.381
2.545,-7.329,-8.287,0.814,-111.437,8.335,-9.341,-0.048,-140.762,-6.759,-7.046,-0.719,58.651,11.73,93.842
2.5500000000000003,-7.233,-8.909,0.814,-146.628,7.52,-9.293,-0.24,-181.818,-6.759,-7.765,-0.719,52.786,17.595,123.167
2.555,-6.467,-8.622,0.958,-181.818,6.467,-8.862,-0.096,-211.144,-6.471,-8.197,-0.863,46.921,23.46,158.358
2.56,-5.413,-7.808,0.814,-217.009,5.461,-8.191,-0.192,-246.334,-5.608,-7.765,-0.863,41.056,29.326,193.548
2.565,-4.407,-6.802,0.958,-246.334,4.551,-7.568,-0.671,-269.795,-4.602,-6.615,-0.719,29.326,41.056,228.739
2.57,-3.305,-5.7,1.437,-269.795,2.587,-6.035,-1.245,-293.255,-3.595,-5.321,-1.007,17.595,46.921,258.064
2.575,-1.293,-3.928,2.012,-293.255,0.958,-3.497,-1.724,-310.85,-2.301,-3.883,-1.438,5.865,52.786,281.525
2.58,0.431,-1.198,2.347,-310.85,-1.245,-0.814,-2.108,-328.446,-0.288,-1.726,-2.013,-11.73,64.516,304.985
2.585,2.156,1.916,2.635,-328.446,-2.539,1.964,-2.395,-334.311,1.438,1.15,-2.301,-29.326,70.381,316.715
2.59,3.736,5.365,2.922,-328.446,-20.597,22.274,4.359,-316.715,2.732,4.889,-2.588,-46.921,76.246,334.311
2.595,1.629,23.375,-5.988,-310.85,-17.244,18.298,11.113,5.865,4.314,8.628,-2.876,-64.516,82.111,334.311
2.6,23.758,24.094,-8.047,-199.413,-24.237,24.285,-7.425,152.493,8.628,49.611,3.595,-23.46,82.111,310.85
2.605,24.094,24.094,6.371,129.032,-14.562,24.333,-3.449,152.493,42.996,73.913,6.902,41.056,76.246,99.707
2.61,17.1,21.124,-2.874,240.469,-0.048,24.333,8.143,134.897,37.819,47.742,-2.588,-375.366,82.111,-187.683
2.615,-0.192,8.814,-9.341,228.739,0.24,11.927,4.646,175.953,8.628,1.582,7.765,-533.724,140.762,-234.604
2.62,-3.64,1.677,-4.167,193.548,-0.719,8.766,1.245,134.897,-6.615,-5.608,8.197,-463.343,158.358,-187.683
2.625,-1.245,2.73,-0.719,117.302,-2.395,10.586,-1.533,35.191,-4.889,-2.445,2.876,-304.985,129.032,-140.762
2.63,-0.479,7.472,1.868,17.595,-2.251,16.526,-2.491,-58.651,-2.876,2.013,-0.431,-205.279,87.977,-58.651
2.6350000000000002,0.383,12.646,2.682,-70.381,-3.353,20.741,-3.976,-117.302,-2.876,7.621,-2.445,-134.897,52.786,35.191
2.64,1.629,15.568,4.455,-123.167,-1.868,21.507,-5.365,-152.493,-2.445,9.491,-3.164,-93.842,17.595,99.707
2.645,2.203,16.19,5.461,-152.493,-0.91,21.603,-5.077,-170.088,-0.431,11.648,-5.321,-41.056,-23.46,134.897
2.65,1.245,16.334,5.125,-170.088,0.144,18.585,-5.221,-181.818,1.007,11.792,-5.321,23.46,-52.786,158.358
2.6550000000000002,1.198,16.094,5.365,-175.953,1.389,14.226,-5.7,-164.223,0.144,12.654,-5.177,82.111,-64.516,175.953
2.66,0.91,15.807,5.892,-158.358,2.251,9.82,-5.461,-129.032,1.15,15.099,-5.321,134.897,-76.246,170.088
2.665,0.383,14.178,5.7,-123.167,2.682,10.011,-4.838,-93.842,1.726,17.687,-5.752,152.493,-76.246,146.628
2.67,0.144,13.604,5.125,-82.111,2.491,11.688,-4.119,-58.651,1.582,17.256,-5.464,140.762,-70.381,111.437
2.6750000000000003,0.287,13.556,4.503,-52.786,1.82,9.58,-3.353,-35.191,1.15,15.674,-4.745,99.707,-52.786,76.246
2.68,0.431,11.927,3.784,-29.326,1.868,10.251,-2.97,-11.73,1.294,14.668,-4.17,64.516,-29.326,46.921
2.685,-0.096,11.783,3.257,-11.73,1.868,9.676,-2.395,11.73,1.15,13.373,-3.595,41.056,-17.595,29.326
2.69,-0.192,10.538,2.73,11.73,1.293,9.628,-1.772,23.46,0.0,12.654,-3.164,23.46,0.0,5.865
2.695,0.24,10.011,2.156,23.46,0.91,10.394,-1.198,29.326,0.144,10.785,-2.588,5.865,11.73,-17.595
2.7,0.192,10.634,1.533,35.191,0.766,10.203,-1.006,41.056,0.431,10.21,-1.869,-5.865,17.595,-23.46
2.705,0.192,10.155,1.341,41.056,0.671,9.58,-0.719,41.056,-0.144,10.785,-1.438,-5.865,23.46,-35.191
2.71,0.24,9.149,1.102,41.056,0.383,9.867,-0.575,35.191,0.0,9.778,-1.294,-11.73,23.46,-35.191
2.715,0.383,9.197,1.245,35.191,0.575,10.346,-0.24,35.191,0.0,8.772,-1.007,-5.865,23.46,-35.191
2.72,0.144,10.634,0.527,35.191,-0.192,10.011,0.24,35.191,0.0,9.635,-1.294,0.0,23.46,-35.191
2.725,1.054,10.442,0.192,35.191,-0.287,10.73,0.527,35.191,-0.144,10.785,-0.431,0.0,23.46,-35.191
2.73,1.198,10.634,-0.144,35.191,-0.527,10.299,0.575,29.326,0.863,10.785,-0.144,0.0,23.46,-35.191
2.735,1.15,10.778,-0.144,23.46,0.048,10.73,0.623,23.46,0.863,11.073,0.288,0.0,17.595,-23.46
2.74,0.862,11.257,-0.192,23.46,0.144,11.017,0.527,29.326,0.719,11.36,0.144,0.0,17.595,-23.46
2.745,0.91,11.64,-0.048,29.326,0.096,11.113,0.287,35.191,0.575,11.792,0.288,-5.865,17.595,-23.46
2.75,0.958,11.64,0.096,35.191,0.24,11.113,0.431,41.056,0.863,12.223,-0.0,-11.73,17.595,-29.326
2.755,0.814,11.257,0.0,46.921,0.096,11.113,0.383,41.056,0.719,12.079,-0.0,-17.595,17.595,-35.191
2.7600000000000002,0.766,10.969,0.0,41.056,0.24,10.921,0.527,46.921,0.575,11.216,-0.0,-17.595,17.595,-41.056
2.765,0.575,10.73,-0.144,46.921,0.287,10.49,0.527,46.921,0.288,10.929,-0.0,-23.46,17.595,-41.056
2.77,0.431,10.346,-0.096,46.921,0.383,10.538,0.287,41.056,0.144,10.641,0.144,-17.595,17.595,-41.056
2.775,0.287,10.203,0.144,46.921,0.335,10.49,0.287,41.056,0.0,10.21,-0.0,-17.595,17.595,-41.056
2.7800000000000002,0.383,10.203,0.144,41.056,0.24,10.49,0.24,41.056,-0.288,10.066,-0.144,-17.595,11.73,-41.056
2.785,0.431,10.299,0.144,35.191,0.24,10.442,0.192,35.191,-0.144,10.21,-0.144,-11.73,11.73,-41.056
2.79,0.431,10.203,0.24,35.191,0.335,10.346,0.096,29.326,0.0,10.354,-0.144,-11.73,5.865,-35.191
2.795,0.335,10.059,0.335,29.326,0.527,10.155,0.048,29.326,-0.144,10.066,-0.288,-5.865,5.865,-29.326
2.8000000000000003,0.287,10.011,0.431,29.326,0.575,10.011,-0.144,29.326,-0.144,9.922,-0.431,-5.865,0.0,-23.46
2.805,0.192,10.011,0.575,29.326,0.862,10.107,-0.24,29.326,-0.144,10.066,-0.431,0.0,0.0,-23.46
2.81,0.144,10.059,0.719,29.326,0.862,10.107,-0.479,29.326,-0.288,10.066,-0.575,0.0,0.0,-23.46
2.815,0.048,10.155,0.958,35.191,0.958,9.867,-0.623,35.191,-0.144,10.066,-0.863,0.0,-5.865,-23.46
2.82,0.048,10.011,1.054,35.191,0.91,9.484,-0.671,41.056,-0.288,10.354,-1.007,0.0,-5.865,-35.191
2.825,0.048,9.58,1.15,35.191,0.958,9.245,-0.671,35.191,-0.288,10.21,-1.15,0.0,-5.865,-35.191
2.83,-0.144,9.245,1.102,35.191,1.102,9.053,-0.575,35.191,-0.288,9.778,-1.15,0.0,-5.865,-35.191
2.835,-0.335,9.005,1.006,35.191,1.102,8.862,-0.671,29.326,-0.575,9.347,-1.007,0.0,-5.865,-35.191
2.84,-0.383,8.814,1.102,29.326,1.15,8.766,-0.862,29.326,-0.719,9.059,-1.007,0.0,-5.865,-29.326
2.845,-0.383,8.814,1.341,29.326,1.293,8.766,-1.054,29.326,-0.719,8.916,-1.15,0.0,-5.865,-23.46
2.85,-0.431,8.718,1.485,23.46,1.341,8.814,-1.102,17.595,-0.719,8.916,-1.438,0.0,-5.865,-23.46
2.855,-0.575,8.766,1.533,17.595,1.437,8.909,-1.102,11.73,-0.719,8.772,-1.438,0.0,-5.865,-17.595
2.86,-0.623,8.766,1.581,11.73,1.245,9.005,-1.198,11.73,-0.863,8.772,-1.582,0.0,-5.865,-11.73
2.865,-0.431,8.814,1.677,11.73,1.198,9.197,-1.293,5.865,-1.007,8.772,-1.582,5.865,-11.73,-11.73
2.87,-0.335,9.101,1.724,5.865,1.198,9.388,-1.293,5.865,-0.719,8.772,-1.726,5.865,-11.73,-5.865
2.875,-0.287,9.484,1.772,5.865,1.15,9.388,-1.437,5.865,-0.719,9.203,-1.726,5.865,-11.73,-5.865
2.88,-0.096,9.628,1.916,5.865,1.15,9.293,-1.581,11.73,-0.431,9.635,-1.869,5.865,-11.73,-5.865
2.8850000000000002,-0.096,9.628,2.012,11.73,1.245,9.149,-1.581,11.73,-0.288,9.922,-1.869,5.865,-11.73,-5.865
2.89,-0.24,9.532,2.012,11.73,1.341,9.245,-1.581,17.595,-0.288,9.922,-2.013,5.865,-11.73,-5.865
2.895,-0.287,9.484,2.012,17.595,1.293,9.101,-1.677,23.46,-0.431,9.778,-2.013,5.865,-11.73,-11.73
2.9,-0.287,9.293,2.108,23.46,1.341,8.957,-1.724,17.595,-0.575,9.635,-2.013,5.865,-5.865,-17.595
2.9050000000000002,-0.335,9.101,2.156,17.595,1.533,8.957,-1.724,17.595,-0.575,9.491,-2.157,0.0,-5.865,-17.595
2.91,-0.527,9.053,2.156,17.595,1.677,9.053,-1.724,17.595,-0.575,9.347,-2.157,0.0,-5.865,-17.595
2.915,-0.623,9.053,2.156,11.73,1.485,9.101,-1.677,11.73,-0.719,9.203,-2.157,0.0,-5.865,-11.73
2.92,-0.479,9.053,2.108,11.73,1.341,9.149,-1.629,11.73,-0.719,9.059,-2.157,0.0,0.0,-11.73
2.9250000000000003,-0.431,9.053,2.012,11.73,1.341,9.149,-1.485,11.73,-0.719,9.059,-2.157,0.0,0.0,-11.73
2.93,-0.527,9.005,1.916,5.865,1.341,9.245,-1.485,5.865,-0.719,9.059,-2.013,0.0,0.0,-11.73
2.935,-0.527,9.005,1.916,5.865,1.341,9.293,-1.485,5.865,-0.863,8.916,-2.013,0.0,0.0,-5.865
2.94,-0.527,9.053,1.916,5.865,1.437,9.245,-1.485,0.0,-0.863,8.916,-2.013,0.0,0.0,-5.865
2.945,-0.527,9.101,1.916,-0.0,1.293,9.197,-1.533,0.0,-0.863,8.916,-2.013,5.865,0.0,0.0
2.95,-0.383,9.245,1.964,-0.0,1.389,9.245,-1.533,-5.865,-0.719,9.203,-2.013,5.865,0.0,0.0
2.955,-0.431,9.388,1.964,-5.865,1.437,9.341,-1.485,-5.865,-0.719,9.491,-2.013,5.865,0.0,5.865
2.96,-0.431,9.532,1.916,-5.865,1.341,9.293,-1.437,0.0,-0.719,9.635,-2.013,5.865,0.0,5.865
2.965,-0.335,9.484,1.82,-0.0,1.341,9.341,-1.293,0.0,-0.719,9.778,-1.869,5.865,0.0,5.865
2.97,-0.383,9.628,1.724,-0.0,1.198,9.388,-1.341,0.0,-0.575,9.778,-1.726,5.865,0.0,5.865
2.975,-0.192,9.676,1.82,-0.0,1.102,9.388,-1.437,5.865,-0.575,9.922,-1.726,5.865,0.0,0.0
2.98,-0.096,9.724,1.868,-0.0,1.198,9.532,-1.341,5.865,-0.288,9.922,-1.869,5.865,0.0,0.0
2.985,-0.24,9.772,1.772,5.865,1.198,9.628,-1.341,5.865,-0.431,10.066,-1.869,5.865,0.0,0.0
2.99,-0.24,9.82,1.772,5.865,1.198,9.676,-1.341,5.865,-0.575,10.066,-1.726,0.0,5.865,0.0
2.995,-0.287,9.772,1.724,5.865,1.245,9.628,-1.293,11.73,-0.431,9.922,-1.726,0.0,5.865,-5.865
3.0,-0.335,9.628,1.724,11.73,1.293,9.484,-1.245,11.73,-0.575,9.922,-1.726,0.0,5.865,-5.865
3.005,-0.431,9.436,1.629,5.865,1.341,9.341,-1.15,11.73,-0.575,9.635,-1.726,0.0,5.865,-5.865
3.0100000000000002,-0.527,9.293,1.581,5.865,1.389,9.197,-1.102,11.73,-0.863,9.491,-1.582,0.0,5.865,-5.865
3.015,-0.575,9.149,1.533,5.865,1.437,9.101,-1.102,11.73,-0.863,9.347,-1.582,0.0,5.865,-5.865
3.02,-0.575,9.053,1.533,5.865,1.437,9.149,-1.102,5.865,-0.863,9.203,-1.582,0.0,5.865,-5.865
3.025,-0.575,9.197,1.533,5.865,1.533,9.436,-1.102,5.865,-0.863,9.203,-1.582,0.0,5.865,-5.865
3.0300000000000002,-0.575,9.341,1.533,-0.0,1.437,9.436,-1.102,0.0,-0.863,9.347,-1.582,0.0,0.0,0.0
3.035,-0.671,9.388,1.533,-0.0,1.581,9.436,-1.006,0.0,-0.863,9.347,-1.438,0.0,0.0,0.0
3.04,-0.671,9.436,1.437,-0.0,1.533,9.388,-1.006,0.0,-1.007,9.491,-1.438,5.865,0.0,5.865
3.045,-0.671,9.388,1.437,-0.0,1.533,9.293,-0.958,0.0,-1.007,9.491,-1.438,5.865,0.0,0.0
3.0500000000000003,-0.671,9.245,1.389,-0.0,1.581,9.245,-1.006,0.0,-1.007,9.491,-1.438,5.865,0.0,0.0
3.055,-0.623,9.197,1.437,-0.0,1.485,9.197,-1.006,0.0,-1.007,9.347,-1.438,5.865,0.0,0.0
3.06,-0.671,9.293,1.437,-5.865,1.533,9.341,-0.958,-5.865,-0.863,9.347,-1.438,5.865,0.0,5.865
3.065,-0.623,9.436,1.389,-5.865,1.389,9.532,-0.91,-5.865,-1.007,9.491,-1.438,5.865,0.0,5.865
3.0700000000000003,-0.527,9.628,1.293,-5.865,1.198,9.58,-0.862,-5.865,-0.863,9.635,-1.294,5.865,0.0,5.865
3.075,-0.335,9.676,1.293,-5.865,1.102,9.58,-0.862,-5.865,-0.863,9.778,-1.294,5.865,0.0,5.865
3.08,-0.24,9.724,1.245,-5.865,1.15,9.628,-0.862,-5.865,-0.719,9.778,-1.294,5.865,0.0,5.865
3.085,-0.287,9.772,1.293,-5.865,1.245,9.58,-0.91,-5.865,-0.719,9.922,-1.294,5.865,0.0,5.865
3.09,-0.287,9.724,1.389,-5.865,1.293,9.484,-1.054,0.0,-0.719,9.922,-1.294,5.865,0.0,5.865
3.095,-0.335,9.724,1.485,-5.865,1.389,9.436,-1.102,0.0,-0.575,9.922,-1.438,5.865,-5.865,5.865
3.1,-0.383,9.772,1.581,-0.0,1.341,9.484,-1.102,0.0,-0.575,10.066,-1.582,5.865,-5.865,5.865
3.105,-0.383,9.82,1.581,-0.0,1.293,9.484,-1.15,0.0,-0.575,10.066,-1.582,0.0,-5.865,5.865
3.11,-0.335,9.676,1.533,-0.0,1.198,9.532,-1.102,0.0,-0.575,10.066,-1.582,0.0,0.0,0.0
3.115,-0.287,9.628,1.581,-0.0,1.293,9.628,-1.102,0.0,-0.575,9.922,-1.582,-5.865,0.0,0.0
3.12,-0.479,9.676,1.533,-0.0,1.341,9.724,-1.15,0.0,-0.719,9.778,-1.582,-5.865,0.0,0.0
3.125,-0.479,9.724,1.581,5.865,1.293,9.532,-1.245,5.865,-0.863,9.778,-1.582,-5.865,0.0,0.0
3.13,-0.431,9.484,1.677,5.865,1.245,9.388,-1.293,5.865,-0.863,9.778,-1.582,-5.865,0.0,0.0
3.1350000000000002,-0.431,9.293,1.772,5.865,1.245,9.436,-1.293,0.0,-0.719,9.491,-1.726,-5.865,0.0,-5.865
3.14,-0.479,9.341,1.724,-0.0,1.15,9.676,-1.245,0.0,-0.863,9.347,-1.726,-5.865,0.0,0.0
3.145,-0.479,9.388,1.677,-0.0,1.054,9.915,-1.293,0.0,-1.007,9.203,-1.726,-5.865,-5.865,0.0
3.15,-0.383,9.484,1.677,-0.0,1.006,10.011,-1.341,-5.865,-1.007,9.059,-1.726,0.0,-5.865,5.865
3.1550000000000002,-0.335,9.58,1.772,-5.865,1.006,10.059,-1.485,-5.865,-0.863,9.203,-1.726,0.0,-5.865,5.865
3.16,-0.24,9.676,1.916,-5.865,0.958,10.011,-1.629,-5.865,-0.863,9.347,-1.869,5.865,-11.73,5.865
3.165,-0.096,9.772,2.06,-5.865,1.006,10.011,-1.629,-11.73,-0.575,9.491,-2.013,5.865,-11.73,11.73
3.17,-0.096,9.915,2.06,-11.73,1.054,10.059,-1.629,-11.73,-0.431,9.778,-2.013,17.595,-17.595,11.73
3.1750000000000003,-0.096,10.059,2.012,-11.73,1.006,10.059,-1.581,-11.73,-0.431,9.922,-2.013,23.46,-17.595,11.73
3.18,-0.048,10.059,2.012,-11.73,1.006,9.963,-1.581,-11.73,-0.431,10.066,-2.013,23.46,-17.595,11.73
3.185,0.048,10.107,2.012,-5.865,1.054,9.867,-1.533,-5.865,-0.288,10.21,-2.013,29.326,-17.595,11.73
3.19,0.048,10.107,1.964,-5.865,1.006,9.82,-1.533,-5.865,-0.144,10.354,-2.013,29.326,-17.595,11.73
3.1950000000000003,0.096,10.155,1.916,-5.865,1.006,9.772,-1.437,0.0,-0.144,10.354,-2.013,29.326,-17.595,11.73
3.2,0.096,10.203,1.868,-5.865,0.958,9.724,-1.389,0.0,-0.144,10.497,-1.869,23.46,-11.73,5.865
3.205,0.096,10.155,1.772,-0.0,0.958,9.676,-1.293,0.0,0.0,10.641,-1.869,23.46,-11.73,5.865
3.21,0.096,10.107,1.724,-0.0,0.91,9.58,-1.198,5.865,0.0,10.497,-1.726,17.595,-11.73,0.0
3.215,0.096,10.011,1.629,5.865,0.958,9.484,-1.198,5.865,-0.144,10.497,-1.726,5.865,-11.73,0.0
3.22,0.048,9.82,1.629,5.865,0.958,9.388,-1.198,5.865,-0.144,10.354,-1.582,5.865,-5.865,0.0
3.225,0.048,9.772,1.629,5.865,0.958,9.245,-1.245,11.73,-0.144,10.21,-1.582,5.865,-5.865,-5.865
3.23,0.096,9.628,1.677,11.73,1.006,9.149,-1.389,11.73,-0.144,10.21,-1.582,0.0,-5.865,-5.865
3.235,0.0,9.436,1.82,11.73,1.293,9.149,-1.437,11.73,-0.144,9.922,-1.726,0.0,-5.865,-5.865
3.24,-0.24,9.436,1.916,5.865,1.485,9.197,-1.533,11.73,-0.144,9.778,-1.869,-5.865,-5.865,-5.865
3.245,-0.335,9.436,2.012,11.73,1.485,9.197,-1.677,11.73,-0.431,9.635,-1.869,-11.73,0.0,-5.865
3.25,-0.287,9.388,2.156,11.73,1.485,9.149,-1.772,11.73,-0.431,9.635,-2.013,-11.73,0.0,-5.865
3.255,-0.287,9.388,2.203,5.865,1.485,9.149,-1.772,5.865,-0.288,9.635,-2.157,-11.73,0.0,-5.865
3.2600000000000002,-0.24,9.484,2.251,5.865,1.485,9.197,-1.82,5.865,-0.288,9.778,-2.157,-17.595,5.865,-5.865
3.265,-0.192,9.628,2.251,5.865,1.437,9.245,-1.82,5.865,-0.288,9.922,-2.301,-17.595,11.73,-5.865
3.27,-0.144,9.772,2.251,5.865,1.389,9.341,-1.82,5.865,-0.144,10.066,-2.301,-17.595,11.73,-5.865
3.275,-0.096,9.867,2.251,5.865,1.198,9.436,-1.772,5.865,-0.144,10.21,-2.157,-23.46,17.595,-5.865
3.2800000000000002,0.048,9.963,2.203,5.865,0.958,9.724,-1.677,5.865,-0.144,10.354,-2.157,-29.326,23.46,-5.865
3.285,0.192,10.107,2.108,5.865,0.719,10.011,-1.437,11.73,0.0,10.354,-2.157,-35.191,23.46,-5.865
3.29,0.24,10.299,1.82,5.865,0.431,10.251,-1.198,11.73,0.0,10.497,-2.013,-35.191,29.326,-5.865
3.295,0.335,10.394,1.533,11.73,0.24,10.299,-1.006,17.595,-0.144,10.497,-1.726,-41.056,29.326,-5.865
3.3000000000000003,0.335,10.203,1.341,11.73,0.24,10.299,-0.91,17.595,-0.144,10.354,-1.438,-41.056,29.326,-11.73
3.305,0.287,9.963,1.293,17.595,0.048,10.251,-0.862,17.595,-0.288,10.066,-1.294,-41.056,29.326,-11.73
3.31,0.192,9.772,1.245,23.46,0.144,10.203,-0.958,23.46,-0.575,9.635,-1.294,-41.056,23.46,-17.595
3.315,0.048,9.532,1.341,23.46,0.335,10.107,-0.958,17.595,-0.719,9.347,-1.294,-35.191,17.595,-17.595
3.3200000000000003,-0.192,9.293,1.389,17.595,0.575,10.059,-1.102,17.595,-0.863,8.916,-1.438,-29.326,11.73,-17.595
3.325,-0.335,9.149,1.533,17.595,0.814,9.867,-1.341,11.73,-1.15,8.628,-1.438,-23.46,0.0,-17.595
3.33,-0.335,9.005,1.772,11.73,1.15,9.724,-1.724,5.865,-1.15,8.484,-1.582,-17.595,-5.865,-11.73
3.335,-0.431,9.101,2.156,-0.0,1.485,9.628,-2.012,0.0,-0.863,8.484,-2.013,-5.865,-11.73,-5.865
3.34,-0.575,9.341,2.491,-0.0,1.772,9.724,-2.299,-5.865,-0.863,8.916,-2.301,5.865,-17.595,0.0
3.345,-0.575,9.676,2.778,-5.865,1.964,9.82,-2.491,-11.73,-0.719,9.347,-2.588,5.865,-17.595,5.865
3.35,-0.527,10.059,2.97,-11.73,2.06,9.772,-2.587,-11.73,-0.575,9.922,-2.876,17.595,-17.595,11.73
3.355,-0.335,10.49,3.066,-11.73,2.012,9.724,-2.635,-17.595,-0.144,10.641,-3.02,17.595,-17.595,17.595
3.36,-0.192,10.921,3.066,-17.595,1.916,9.915,-2.587,-11.73,0.144,11.504,-3.02,5.865,-11.73,17.595
3.365,0.0,11.257,3.018,-11.73,1.82,10.107,-2.539,-11.73,0.431,12.079,-3.02,5.865,0.0,17.595
3.37,0.144,11.496,2.97,-5.865,1.677,10.251,-2.347,0.0,0.575,12.511,-3.02,-5.865,11.73,11.73
3.375,0.192,11.592,2.778,-0.0,1.293,10.394,-2.108,5.865,0.575,12.654,-2.876,-17.595,23.46,5.865
3.38,0.383,11.64,2.443,5.865,0.958,10.49,-1.724,17.595,0.575,12.654,-2.588,-29.326,29.326,0.0
3.3850000000000002,0.431,11.544,2.06,17.595,0.719,10.49,-1.389,29.326,0.575,12.654,-2.301,-46.921,41.056,-11.73
3.39,0.287,11.209,1.677,29.326,0.431,10.394,-1.102,35.191,0.288,12.367,-1.869,-58.651,46.921,-17.595
3.395,0.24,10.682,1.341,35.191,0.048,10.346,-0.766,41.056,-0.144,11.648,-1.582,-70.381,52.786,-23.46
3.4,0.144,10.107,1.054,41.056,-0.144,10.49,-0.527,46.921,-0.575,10.785,-1.294,-76.246,52.786,-35.191
3.4050000000000002,-0.096,9.58,0.814,46.921,0.0,10.634,-0.383,46.921,-1.007,9.635,-1.007,-76.246,46.921,-41.056
3.41,-0.431,9.053,0.719,46.921,-0.144,10.49,-0.575,41.056,-1.582,8.484,-0.863,-76.246,35.191,-46.921
3.415,-0.479,8.526,0.958,35.191,0.24,10.682,-0.766,29.326,-2.013,7.621,-0.863,-64.516,23.46,-41.056
3.42,-0.766,8.191,1.15,29.326,0.671,10.825,-1.102,17.595,-2.013,6.759,-1.15,-46.921,5.865,-35.191
3.4250000000000003,-0.958,8.239,1.533,11.73,1.006,10.634,-1.581,0.0,-2.301,6.183,-1.294,-29.326,-5.865,-23.46
3.43,-0.958,8.526,2.012,-0.0,1.437,10.538,-2.156,-17.595,-2.157,6.471,-1.726,0.0,-23.46,-5.865
3.435,-0.958,8.957,2.635,-17.595,1.964,10.586,-2.587,-29.326,-1.869,7.19,-2.301,29.326,-35.191,5.865
3.44,-1.006,9.484,3.018,-29.326,2.203,10.73,-2.826,-41.056,-1.438,8.053,-2.732,52.786,-41.056,23.46
3.4450000000000003,-0.862,10.107,3.209,-41.056,2.156,10.825,-2.826,-46.921,-1.15,8.916,-3.02,70.381,-46.921,35.191
3.45,-0.575,10.73,3.161,-46.921,1.964,10.825,-2.635,-46.921,-0.719,9.922,-3.164,82.111,-46.921,46.921
3.455,-0.24,11.257,3.018,-46.921,1.677,10.778,-2.491,-46.921,-0.288,11.073,-3.02,93.842,-46.921,46.921
3.46,0.048,11.544,2.826,-46.921,1.581,10.682,-2.299,-41.056,0.144,11.792,-2.876,93.842,-41.056,46.921
3.465,0.24,11.736,2.682,-41.056,1.533,10.442,-2.06,-35.191,0.431,12.367,-2.732,87.977,-29.326,46.921
3.47,0.335,11.831,2.491,-29.326,1.533,10.251,-1.964,-23.46,0.575,12.654,-2.588,82.111,-23.46,35.191
3.475,0.335,11.927,2.395,-17.595,1.581,10.346,-1.916,-11.73,0.719,13.086,-2.301,70.381,-17.595,29.326
3.48,0.383,11.975,2.395,-11.73,1.581,10.442,-1.964,0.0,0.863,13.23,-2.301,58.651,-5.865,23.46
3.485,0.335,12.023,2.395,5.865,1.437,10.49,-1.916,11.73,1.007,13.373,-2.301,41.056,0.0,5.865
3.49,0.431,11.927,2.347,11.73,1.293,10.538,-1.772,23.46,0.863,13.23,-2.301,29.326,17.595,-5.865
3.495,0.287,11.64,2.203,29.326,1.102,10.49,-1.581,35.191,0.719,13.086,-2.301,5.865,23.46,-17.595
3.5,0.144,11.257,1.916,35.191,0.862,10.346,-1.245,41.056,0.431,12.367,-2.157,-5.865,35.191,-23.46
3.505,0.096,10.825,1.581,41.056,0.766,10.251,-1.006,46.921,0.0,11.792,-1.726,-17.595,41.056,-35.191
3.5100000000000002,-0.096,10.442,1.341,46.921,0.719,10.251,-0.91,52.786,-0.288,11.073,-1.582,-23.46,41.056,-41.056
3.515,-0.24,10.107,1.245,52.786,0.431,10.251,-0.814,52.786,-0.719,10.497,-1.294,-29.326,41.056,-46.921
3.52,-0.287,9.676,1.102,52.786,0.383,10.73,-0.814,52.786,-1.007,9.778,-1.294,-29.326,41.056,-52.786
3.525,-0.527,9.436,1.15,46.921,0.527,11.209,-0.862,41.056,-1.438,9.059,-1.15,-29.326,35.191,-52.786
3.5300000000000002,-0.671,9.197,1.245,41.056,0.671,11.113,-1.198,35.191,-1.726,8.197,-1.294,-23.46,23.46,-46.921
3.535,-0.766,9.053,1.581,29.326,1.102,10.969,-1.485,23.46,-1.869,7.621,-1.438,-5.865,11.73,-41.056
3.54,-0.91,9.197,1.916,23.46,1.389,10.778,-1.82,11.73,-1.869,7.478,-1.726,5.865,0.0,-23.46
3.545,-0.91,9.484,2.251,11.73,1.581,10.73,-2.108,5.865,-1.726,8.197,-2.013,35.191,-11.73,-17.595
3.5500000000000003,-0.814,9.82,2.491,-0.0,1.724,10.825,-2.156,-5.865,-1.582,8.772,-2.301,52.786,-17.595,-5.865
3.555,-0.719,10.203,2.491,-5.865,1.581,10.73,-2.06,-11.73,-1.294,9.347,-2.445,70.381,-23.46,5.865
3.56,-0.479,10.538,2.395,-11.73,1.485,10.634,-1.916,-11.73,-0.863,9.922,-2.445,82.111,-23.46,11.73
3.565,-0.24,10.921,2.251,-11.73,1.293,10.634,-1.772,-11.73,-0.575,10.641,-2.301,87.977,-23.46,11.73
3.5700000000000003,0.048,11.209,2.156,-11.73,1.102,10.73,-1.629,-5.865,-0.288,11.36,-2.157,93.842,-23.46,11.73
3.575,0.24,11.496,2.012,-5.865,1.006,10.825,-1.581,0.0,0.0,11.792,-2.013,87.977,-23.46,11.73
3.58,0.287,11.64,1.916,-0.0,0.862,10.825,-1.533,5.865,0.144,12.223,-2.013,87.977,-17.595,5.865
3.585,0.383,11.592,1.916,5.865,0.862,10.921,-1.533,11.73,0.288,12.367,-1.869,76.246,-17.595,0.0
3.59,0.383,11.496,1.916,11.73,0.766,10.921,-1.533,17.595,0.288,12.223,-1.869,70.381,-11.73,-5.865
3.595,0.335,11.352,1.916,23.46,0.814,10.825,-1.581,29.326,0.144,11.935,-1.869,64.516,-11.73,-11.73
3.6,0.287,11.209,2.012,29.326,0.91,10.825,-1.677,29.326,0.144,11.792,-1.869,58.651,-5.865,-17.595
3.605,0.144,11.065,2.108,29.326,1.054,10.778,-1.772,35.191,0.0,11.504,-2.013,52.786,-5.865,-23.46
3.61,0.0,10.921,2.156,35.191,1.102,10.73,-1.724,35.191,-0.144,11.216,-2.157,52.786,-5.865,-29.326
3.615,-0.096,10.778,2.156,41.056,1.15,10.634,-1.677,41.056,-0.288,11.073,-2.157,52.786,0.0,-35.191
3.62,-0.144,10.538,2.06,41.056,1.054,10.442,-1.485,46.921,-0.431,10.785,-2.157,52.786,0.0,-35.191
3.625,-0.24,10.299,1.868,46.921,1.006,10.299,-1.341,46.921,-0.575,10.497,-2.013,46.921,0.0,-41.056
3.63,-0.287,10.059,1.724,46.921,1.006,10.203,-1.245,46.921,-0.719,10.21,-1.869,52.786,0.0,-46.921
3.6350000000000002,-0.383,9.772,1.629,46.921,1.102,10.011,-1.293,46.921,-0.863,9.778,-1.726,52.786,0.0,-46.921
3.64,-0.479,9.532,1.677,46.921,1.293,9.867,-1.341,46.921,-1.007,9.491,-1.726,52.786,-5.865,-46.921
3.645,-0.623,9.388,1.724,46.921,1.485,9.772,-1.341,46.921,-1.007,9.203,-1.726,58.651,-5.865,-46.921
3.65,-0.766,9.293,1.724,46.921,1.485,9.772,-1.389,46.921,-1.15,9.059,-1.726,64.516,-11.73,-46.921
3.6550000000000002,-0.671,9.388,1.772,46.921,1.533,9.772,-1.341,46.921,-1.15,9.059,-1.726,70.381,-11.73,-46.921
3.66,-0.719,9.484,1.724,46.921,1.677,9.724,-1.245,46.921,-1.007,9.203,-1.726,76.246,-17.595,-46.921
3.665,-0.766,9.58,1.629,46.921,1.629,9.628,-1.245,46.921,-1.15,9.347,-1.726,82.111,-17.595,-41.056
3.67,-0.719,9.532,1.629,46.921,1.485,9.388,-1.198,52.786,-1.15,9.491,-1.582,87.977,-17.595,-46.921
3.6750000000000003,-0.575,9.532,1.581,52.786,1.341,9.245,-1.054,58.651,-1.007,9.491,-1.582,87.977,-17.595,-46.921
3.68,-0.431,9.532,1.389,58.651,1.245,9.101,-0.862,64.516,-0.863,9.635,-1.582,87.977,-17.595,-52.786
3.685,-0.383,9.532,1.198,64.516,1.245,8.909,-0.671,70.381,-0.719,9.778,-1.294,87.977,-17.595,-58.651
3.69,-0.479,9.341,1.054,70.381,1.341,8.526,-0.479,82.111,-0.719,9.778,-1.15,87.977,-17.595,-64.516
3.6950000000000003,-0.623,8.862,0.862,82.111,1.437,7.904,-0.287,87.977,-0.863,9.491,-1.007,87.977,-17.595,-70.381
3.7,-0.862,8.191,0.671,87.977,1.724,6.993,-0.192,99.707,-1.15,8.916,-0.863,82.111,-17.595,-82.111
3.705,-1.245,7.233,0.575,99.707,2.203,5.748,-0.192,105.572,-1.438,8.197,-0.575,76.246,-17.595,-93.842
3.71,-1.677,6.083,0.623,105.572,2.874,4.359,-0.287,111.437,-1.869,7.334,-0.575,76.246,-23.46,-99.707
3.715,-2.395,4.79,0.766,111.437,3.593,2.874,-0.431,111.437,-2.301,6.183,-0.719,70.381,-23.46,-111.437
3.72,-3.114,3.353,1.006,111.437,4.598,1.485,-0.671,111.437,-2.876,5.033,-0.863,64.516,-23.46,-111.437
3.725,-3.976,1.724,1.198,105.572,5.461,-0.144,-0.766,99.707,-3.595,3.595,-1.007,58.651,-23.46,-111.437
3.73,-4.838,0.048,1.341,99.707,6.323,-1.293,-0.671,87.977,-4.314,1.726,-1.15,52.786,-23.46,-105.572
3.735,-5.7,-1.245,1.293,82.111,6.946,-2.06,-0.431,64.516,-5.033,0.144,-1.294,46.921,-23.46,-93.842
3.74,-6.467,-2.347,0.958,58.651,7.472,-3.209,-0.048,41.056,-5.896,-1.294,-1.15,41.056,-17.595,-70.381
3.745,-6.946,-3.593,0.671,35.191,7.664,-4.503,0.335,17.595,-6.759,-2.588,-0.863,41.056,-17.595,-52.786
3.75,-7.377,-4.838,0.24,11.73,8.047,-5.844,0.766,-11.73,-7.19,-3.883,-0.575,35.191,-11.73,-29.326
3.755,-7.76,-6.035,-0.144,-17.595,8.766,-7.329,0.814,-41.056,-7.621,-5.033,-0.0,35.191,-11.73,0.0
3.7600000000000002,-8.43,-7.185,-0.048,-46.921,9.724,-8.67,0.479,-70.381,-8.053,-6.183,0.288,35.191,-11.73,29.326
3.765,-9.053,-8.287,0.335,-76.246,10.346,-9.82,-0.335,-105.572,-8.484,-6.902,-0.0,29.326,-11.73,58.651
3.77,-9.101,-9.293,1.293,-111.437,10.011,-10.586,-1.293,-140.762,-8.772,-7.909,-0.431,29.326,-5.865,87.977
3.775,-8.478,-9.532,2.251,-146.628,9.867,-10.251,-2.108,-181.818,-8.197,-8.628,-1.582,17.595,0.0,123.167
3.7800000000000002,-7.999,-8.909,3.066,-181.818,10.346,-9.293,-2.922,-217.009,-7.19,-8.197,-2.445,5.865,11.73,158.358
3.785,-8.191,-8.239,3.88,-217.009,11.783,-9.053,-4.119,-252.199,-6.615,-7.621,-3.164,-11.73,29.326,193.548
3.79,-8.862,-7.856,5.221,-246.334,12.119,-9.532,-5.604,-275.66,-6.615,-7.19,-4.026,-23.46,46.921,234.604
3.795,-8.191,-7.616,6.706,-275.66,8.095,-8.335,-6.467,-299.12,-6.471,-6.615,-5.321,-35.191,70.381,258.064
3.8000000000000003,-4.263,-5.317,6.993,-293.255,1.245,-3.593,-4.982,-316.715,-4.889,-5.464,-6.615,-46.921,105.572,281.525
3.805,0.862,-0.287,4.934,-316.715,-4.646,2.826,-2.443,-334.311,-1.15,-2.013,-6.183,-64.516,140.762,304.985
3.81,4.503,6.083,2.06,-334.311,-9.532,9.388,-0.575,-334.311,2.013,3.307,-4.026,-87.977,170.088,322.581
3.815,8.047,11.975,0.383,-328.446,-10.73,1.82,13.268,-275.66,3.595,9.203,-1.294,-111.437,181.818,340.176
3.8200000000000003,22.8,24.046,-11.927,-316.715,-23.806,19.687,-2.395,-46.921,3.883,-5.464,-5.033,-123.167,170.088,334.311
3.825,24.094,24.094,1.677,-93.842,-24.333,24.285,-0.91,140.762,30.486,73.194,6.04,93.842,129.032,304.985
3.83,22.321,23.471,-3.593,140.762,-11.352,20.358,9.053,217.009,51.624,57.089,1.582,-269.795,99.707,5.865
3.835,3.161,8.095,-11.113,217.009,0.383,24.19,9.341,222.874,11.792,5.608,7.046,-510.264,134.897,-175.953
3.84,-3.257,5.461,-8.143,211.144,-2.203,10.442,0.958,129.032,-4.745,-6.183,11.792,-392.962,117.302,-228.739
3.845,0.766,5.604,0.048,105.572,-3.545,13.604,-0.527,23.46,-6.471,-4.17,4.889,-234.604,52.786,-187.683
3.85,2.347,10.346,0.431,11.73,-2.251,16.478,0.0,-52.786,-0.288,4.745,-1.15,-82.111,5.865,-70.381
3.855,1.437,14.849,0.192,-58.651,-2.156,17.484,0.192,-99.707,-0.144,9.778,-0.144,-11.73,-29.326,17.595
3.86,1.868,15.903,-0.096,-99.707,-2.635,23.04,-0.719,-117.302,-0.575,14.236,-0.431,29.326,-52.786,82.111
3.865,3.066,18.394,0.719,-111.437,-2.203,22.369,-0.862,-99.707,0.0,14.38,-0.288,52.786,-76.246,111.437
3.87,3.305,18.968,0.862,-93.842,-1.341,16.669,-1.772,-70.381,2.013,14.092,-0.575,82.111,-99.707,111.437
3.875,2.922,17.915,2.012,-64.516,0.287,12.454,-2.922,-35.191,2.588,17.4,-1.007,129.032,-111.437,87.977
3.88,2.06,16.478,3.353,-29.326,2.395,10.011,-3.401,0.0,2.876,19.988,-2.157,158.358,-123.167,52.786
3.8850000000000002,0.766,14.657,3.928,-0.0,3.497,9.341,-3.64,11.73,2.732,19.988,-3.307,146.628,-117.302,17.595
3.89,-0.192,13.46,4.215,11.73,3.545,9.915,-3.257,23.46,2.157,18.263,-3.739,99.707,-105.572,0.0
3.895,-0.671,12.406,3.688,29.326,2.97,10.538,-2.443,46.921,1.007,16.106,-3.883,52.786,-82.111,-17.595
3.9,-0.766,11.065,2.73,46.921,1.916,10.825,-1.677,58.651,0.288,13.373,-3.307,5.865,-58.651,-35.191
3.9050000000000002,-0.527,9.772,2.012,58.651,1.581,11.113,-1.581,64.516,-0.575,10.641,-2.445,-11.73,-41.056,-52.786
3.91,-0.527,9.867,2.012,64.516,1.533,11.496,-1.629,64.516,-0.719,8.628,-2.013,-17.595,-29.326,-64.516
3.915,-0.431,10.73,2.012,64.516,1.916,11.352,-2.012,64.516,-1.007,9.059,-2.013,-11.73,-29.326,-64.516
3.92,-0.527,10.921,2.539,64.516,1.198,11.592,-2.012,64.516,-0.719,10.354,-2.013,5.865,-29.326,-64.516
3.9250000000000003,0.144,11.209,2.491,64.516,1.677,11.64,-2.251,64.516,-0.575,10.641,-2.588,17.595,-29.326,-64.516
3.93,-0.048,11.4,2.635,64.516,1.341,10.921,-2.251,58.651,-0.288,11.216,-2.588,23.46,-29.326,-64.516
3.935,0.287,10.825,2.682,58.651,1.533,11.831,-1.437,52.786,0.0,11.36,-2.588,29.326,-29.326,-64.516
3.94,-0.287,11.4,1.82,52.786,0.862,11.113,-1.389,52.786,-0.144,11.073,-2.588,29.326,-23.46,-58.651
3.9450000000000003,0.383,11.304,1.724,52.786,1.15,11.496,-1.198,58.651,-0.288,11.073,-1.869,35.191,-17.595,-52.786
3.95,0.192,11.209,1.629,58.651,1.006,11.113,-1.245,58.651,-0.288,11.36,-1.582,35.191,-17.595,-52.786
3.955,0.144,10.969,1.581,52.786,1.245,10.778,-0.91,52.786,0.144,11.073,-1.726,41.056,-17.595,-58.651
3.96,-0.048,10.73,1.245,52.786,1.198,10.251,-0.623,52.786,-0.288,10.929,-1.582,41.056,-17.595,-52.786
3.9650000000000003,0.048,10.251,0.958,52.786,1.102,10.059,-0.192,46.921,-0.288,10.785,-1.15,41.056,-17.595,-52.786
3.97,0.0,10.011,0.575,52.786,0.91,10.107,0.096,46.921,-0.288,10.354,-0.863,41.056,-17.595,-52.786
3.975,0.096,10.059,0.287,46.921,0.814,10.394,0.048,41.056,-0.288,10.066,-0.431,41.056,-17.595,-46.921
3.98,0.24,10.49,0.431,41.056,1.198,10.011,0.192,46.921,-0.288,10.066,-0.288,41.056,-17.595,-41.056
3.985,0.048,10.155,0.335,46.921,1.198,9.388,-0.144,46.921,-0.575,10.21,-0.431,46.921,-17.595,-41.056
3.99,-0.048,9.58,0.671,46.921,1.054,9.149,-0.287,46.921,-0.575,10.21,-0.288,46.921,-17.595,-41.056
3.995,0.096,9.436,0.766,52.786,1.677,9.149,0.048,46.921,0.144,9.778,-0.575,46.921,-17.595,-46.921
4.0,-0.383,9.101,0.335,46.921,1.341,8.814,0.144,46.921,-0.288,9.778,-0.719,41.056,-17.595,-46.921
4.005,-0.287,8.622,0.287,46.921,1.102,8.335,0.383,52.786,-0.575,9.059,-0.288,41.056,-17.595,-46.921
4.01,-0.144,8.287,0.0,52.786,1.102,8.095,0.527,46.921,-0.575,8.484,-0.144,41.056,-11.73,-46.921
4.015,-0.144,8.095,-0.096,52.786,1.15,7.951,0.575,46.921,-0.431,8.484,-0.0,41.056,-11.73,-46.921
4.0200000000000005,-0.287,8.095,-0.144,46.921,1.293,7.76,0.671,46.921,-0.575,8.197,0.144,41.056,-11.73,-46.921
4.025,-0.431,7.856,-0.24,46.921,1.341,7.425,0.719,46.921,-0.719,8.197,0.144,41.056,-11.73,-41.056
4.03,-0.431,7.472,-0.24,46.921,1.437,7.185,0.766,46.921,-0.719,7.909,0.288,41.056,-11.73,-46.921
4.035,-0.623,7.281,-0.287,46.921,1.677,6.946,0.862,41.056,-0.719,7.621,0.288,41.056,-11.73,-46.921
4.04,-0.862,6.993,-0.383,41.056,1.82,6.706,0.862,41.056,-1.007,7.334,0.431,41.056,-11.73,-41.056
4.045,-1.006,6.85,-0.383,41.056,2.012,6.61,0.91,35.191,-1.15,7.046,0.431,35.191,-11.73,-41.056
4.05,-1.102,6.898,-0.431,35.191,2.012,6.61,0.91,35.191,-1.294,7.046,0.431,35.191,-17.595,-41.056
4.055,-1.102,6.898,-0.431,35.191,2.108,6.658,1.054,35.191,-1.438,7.19,0.431,35.191,-11.73,-35.191
4.0600000000000005,-1.198,6.993,-0.575,35.191,2.108,6.658,1.198,35.191,-1.438,7.19,0.575,29.326,-11.73,-35.191
4.065,-1.245,6.993,-0.719,35.191,2.156,6.562,1.198,29.326,-1.582,7.334,0.719,29.326,-11.73,-35.191
4.07,-1.245,6.898,-0.719,29.326,2.108,6.61,1.15,29.326,-1.582,7.334,0.719,29.326,-11.73,-29.326
4.075,-1.198,6.946,-0.671,29.326,2.06,6.754,1.198,29.326,-1.582,7.19,0.719,23.46,-11.73,-23.46
4.08,-1.198,7.089,-0.719,29.326,2.06,6.946,1.198,23.46,-1.438,7.334,0.719,23.46,-11.73,-23.46
4.085,-1.15,7.281,-0.719,23.46,1.964,7.137,1.15,23.46,-1.438,7.478,0.719,17.595,-11.73,-23.46
4.09,-1.054,7.377,-0.671,23.46,1.916,7.233,1.102,17.595,-1.438,7.478,0.719,5.865,-17.595,-23.46
4.095,-1.006,7.472,-0.623,23.46,1.82,7.377,1.006,17.595,-1.294,7.621,0.719,5.865,-11.73,-17.595
4.1,-0.862,7.664,-0.527,17.595,1.533,7.568,0.958,17.595,-1.294,7.765,0.575,5.865,-11.73,-17.595
4.105,-0.623,7.904,-0.479,17.595,1.341,7.76,0.958,17.595,-1.15,7.909,0.575,5.865,-11.73,-17.595
4.11,-0.479,8.047,-0.527,17.595,1.198,7.904,1.054,17.595,-0.863,8.197,0.575,5.865,-11.73,-17.595
4.115,-0.431,8.191,-0.623,11.73,1.293,7.999,1.15,11.73,-0.719,8.34,0.575,0.0,-17.595,-17.595
4.12,-0.527,8.239,-0.719,11.73,1.389,7.951,1.198,11.73,-0.863,8.484,0.719,0.0,-17.595,-11.73
4.125,-0.623,8.143,-0.719,17.595,1.437,7.856,1.198,11.73,-1.007,8.484,0.863,-5.865,-17.595,-11.73
4.13,-0.671,7.999,-0.719,11.73,1.533,7.712,1.198,11.73,-1.007,8.34,0.863,-5.865,-17.595,-11.73
4.135,-0.766,7.904,-0.766,17.595,1.437,7.664,1.198,11.73,-1.15,8.197,0.719,-5.865,-23.46,-11.73
4.14,-0.719,7.904,-0.766,11.73,1.341,7.808,1.245,5.865,-1.15,8.197,0.863,-5.865,-23.46,-11.73
4.1450000000000005,-0.623,8.095,-0.814,5.865,1.245,8.047,1.293,5.865,-1.15,8.34,0.719,-11.73,-29.326,-11.73
4.15,-0.575,8.287,-0.862,5.865,1.198,8.335,1.341,0.0,-1.15,8.484,0.863,-11.73,-29.326,-5.865
4.155,-0.527,8.43,-0.91,-0.0,1.198,8.574,1.293,0.0,-1.15,8.628,0.863,-17.595,-29.326,0.0
4.16,-0.527,8.526,-0.862,-0.0,1.15,8.718,1.245,-5.865,-1.15,8.484,0.863,-17.595,-35.191,0.0
4.165,-0.431,8.574,-0.814,-5.865,1.102,8.814,1.15,-5.865,-1.007,8.484,0.863,-17.595,-41.056,5.865
4.17,-0.287,8.718,-0.719,-11.73,0.862,8.957,1.102,-11.73,-0.863,8.628,0.863,-17.595,-41.056,5.865
4.175,-0.048,9.005,-0.719,-11.73,0.671,9.149,1.15,-17.595,-0.719,8.772,0.719,-17.595,-46.921,11.73
4.18,0.144,9.245,-0.766,-17.595,0.575,9.341,1.198,-17.595,-0.431,9.203,0.719,-17.595,-46.921,11.73
4.1850000000000005,0.24,9.388,-0.766,-17.595,0.527,9.436,1.198,-23.46,-0.288,9.491,0.863,-11.73,-52.786,17.595
4.19,0.287,9.436,-0.814,-23.46,0.527,9.436,1.198,-23.46,-0.288,9.491,0.863,-17.595,-52.786,23.46
4.195,0.287,9.388,-0.766,-23.46,0.479,9.293,1.102,-29.326,-0.144,9.491,0.863,-17.595,-58.651,23.46
4.2,0.431,9.388,-0.719,-23.46,0.335,9.293,1.102,-29.326,-0.144,9.491,0.719,-17.595,-58.651,29.326
4.205,0.575,9.532,-0.719,-29.326,0.24,9.484,1.198,-35.191,0.0,9.635,0.719,-17.595,-58.651,29.326
4.21,0.671,9.772,-0.766,-35.191,0.0,9.772,1.198,-35.191,0.144,9.922,0.863,-17.595,-64.516,29.326
4.215,0.862,9.963,-0.814,-35.191,-0.096,10.059,1.198,-35.191,0.431,10.21,0.863,-17.595,-64.516,35.191
4.22,0.958,10.155,-0.814,-35.191,-0.144,10.251,1.15,-41.056,0.431,10.21,0.863,-17.595,-70.381,35.191
4.225,1.054,10.394,-0.766,-35.191,-0.192,10.394,1.054,-41.056,0.575,10.497,0.863,-23.46,-70.381,35.191
4.23,1.102,10.49,-0.671,-35.191,-0.24,10.442,0.91,-35.191,0.719,10.641,0.863,-23.46,-70.381,41.056
4.235,1.198,10.586,-0.527,-35.191,-0.287,10.49,0.766,-35.191,0.863,10.785,0.719,-23.46,-76.246,35.191
4.24,1.341,10.682,-0.383,-29.326,-0.479,10.586,0.719,-35.191,0.863,10.785,0.575,-23.46,-76.246,35.191
4.245,1.533,10.873,-0.383,-29.326,-0.527,10.778,0.766,-35.191,1.15,11.073,0.431,-23.46,-76.246,35.191
4.25,1.533,10.969,-0.431,-29.326,-0.575,10.921,0.766,-35.191,1.294,11.216,0.575,-29.326,-76.246,35.191
4.255,1.485,10.921,-0.431,-29.326,-0.575,10.921,0.766,-29.326,1.15,11.216,0.575,-29.326,-76.246,35.191
4.26,1.485,10.825,-0.383,-29.326,-0.527,10.825,0.719,-29.326,1.15,11.073,0.431,-29.326,-76.246,35.191
4.265,1.389,10.634,-0.335,-29.326,-0.431,10.634,0.671,-29.326,1.007,10.785,0.575,-29.326,-82.111,29.326
4.2700000000000005,1.341,10.442,-0.287,-23.46,-0.383,10.49,0.575,-29.326,1.007,10.641,0.431,-29.326,-82.111,29.326
4.275,1.293,10.299,-0.192,-29.326,-0.335,10.442,0.527,-35.191,0.863,10.354,0.288,-29.326,-82.111,29.326
4.28,1.245,10.203,-0.144,-35.191,-0.335,10.394,0.383,-35.191,0.863,10.21,0.288,-29.326,-87.977,29.326
4.285,1.293,10.107,-0.048,-35.191,-0.383,10.346,0.24,-41.056,0.863,10.21,0.288,-23.46,-87.977,35.191
4.29,1.389,10.107,0.144,-35.191,-0.335,10.299,0.192,-46.921,1.007,10.066,-0.0,-23.46,-87.977,35.191
4.295,1.341,10.155,0.192,-41.056,-0.335,10.49,0.144,-46.921,1.007,10.066,-0.0,-23.46,-93.842,41.056
4.3,1.341,10.299,0.24,-46.921,-0.479,10.682,0.096,-52.786,1.007,10.21,-0.144,-17.595,-93.842,46.921
4.305,1.437,10.394,0.287,-46.921,-0.527,10.873,0.048,-52.786,1.007,10.21,-0.144,-17.595,-93.842,46.921
4.3100000000000005,1.485,10.442,0.335,-46.921,-0.623,10.873,-0.096,-52.786,1.007,10.21,-0.288,-11.73,-93.842,46.921
4.315,1.581,10.442,0.431,-46.921,-0.671,10.825,-0.192,-52.786,1.15,10.21,-0.288,-11.73,-93.842,52.786
4.32,1.677,10.442,0.575,-52.786,-0.814,10.825,-0.24,-58.651,1.294,10.21,-0.431,-5.865,-99.707,52.786
4.325,1.82,10.682,0.623,-52.786,-1.15,11.113,-0.24,-58.651,1.438,10.354,-0.575,0.0,-99.707,52.786
4.33,2.156,11.065,0.575,-52.786,-1.485,11.496,-0.192,-58.651,1.582,10.785,-0.575,0.0,-99.707,58.651
4.335,2.443,11.448,0.527,-52.786,-1.533,11.831,-0.24,-52.786,1.869,11.216,-0.575,5.865,-99.707,58.651
4.34,2.491,11.688,0.575,-52.786,-1.341,11.736,-0.335,-52.786,2.157,11.504,-0.431,5.865,-105.572,52.786
4.345,2.443,11.688,0.671,-46.921,-1.198,11.544,-0.575,-46.921,2.157,11.648,-0.575,5.865,-105.572,52.786
4.3500000000000005,2.347,11.592,0.958,-41.056,-1.006,11.352,-0.766,-41.056,2.301,11.792,-0.719,5.865,-105.572,46.921
4.355,2.299,11.496,1.15,-35.191,-0.91,11.257,-0.862,-35.191,2.157,11.792,-0.863,5.865,-105.572,41.056
4.36,2.203,11.352,1.198,-29.326,-0.862,11.065,-0.862,-35.191,2.301,11.648,-1.15,5.865,-105.572,35.191
4.365,2.156,11.113,1.198,-29.326,-0.862,10.921,-0.814,-29.326,2.157,11.504,-1.15,5.865,-105.572,35.191
4.37,2.06,10.921,1.15,-29.326,-0.766,10.778,-0.766,-23.46,2.013,11.216,-1.15,5.865,-105.572,29.326
4.375,2.012,10.778,1.102,-23.46,-0.814,10.634,-0.719,-23.46,1.869,10.929,-1.15,5.865,-99.707,23.46
4.38,2.012,10.682,1.054,-17.595,-0.814,10.538,-0.671,-17.595,1.869,10.929,-1.007,5.865,-99.707,23.46
4.385,1.964,10.49,1.006,-17.595,-0.814,10.49,-0.575,-17.595,1.869,10.785,-1.007,5.865,-99.707,23.46
4.39,1.916,10.299,0.91,-17.595,-0.814,10.394,-0.479,-17.595,1.869,10.497,-0.863,5.865,-99.707,17.595
4.3950000000000005,1.868,10.203,0.814,-17.595,-0.862,10.394,-0.335,-17.595,1.726,10.21,-0.863,5.865,-93.842,17.595
4.4,1.916,10.155,0.671,-17.595,-0.91,10.299,-0.24,-17.595,1.582,10.066,-0.719,5.865,-93.842,17.595
4.405,1.916,10.155,0.575,-17.595,-1.054,10.107,-0.144,-17.595,1.582,10.066,-0.575,5.865,-93.842,17.595
4.41,1.964,10.059,0.479,-17.595,-1.054,9.867,-0.096,-17.595,1.726,10.21,-0.431,17.595,-93.842,17.595
4.415,1.964,9.963,0.431,-11.73,-1.102,9.772,0.0,-17.595,1.726,10.21,-0.431,17.595,-99.707,17.595
4.42,2.012,9.867,0.335,-11.73,-1.245,9.676,0.048,-17.595,1.726,10.21,-0.431,17.595,-99.707,17.595
4.425,2.108,9.82,0.287,-11.73,-1.293,9.676,0.048,-17.595,1.726,10.066,-0.288,17.595,-99.707,17.595
4.43,2.156,9.772,0.287,-11.73,-1.293,9.676,0.048,-17.595,1.726,10.066,-0.288,17.595,-99.707,11.73
4.4350000000000005,2.203,9.724,0.287,-11.73,-1.341,9.676,0.048,-17.595,1.869,9.922,-0.288,17.595,-105.572,11.73
4.44,2.251,9.772,0.335,-11.73,-1.341,9.676,0.0,-17.595,2.013,9.922,-0.288,17.595,-105.572,17.595
4.445,2.299,9.772,0.383,-11.73,-1.389,9.676,-0.096,-11.73,2.013,9.922,-0.288,17.595,-105.572,17.595
4.45,2.395,9.772,0.431,-11.73,-1.389,9.676,-0.192,-11.73,2.157,9.922,-0.288,5.865,-105.572,11.73
4.455,2.443,9.724,0.575,-11.73,-1.389,9.676,-0.287,-11.73,2.301,9.922,-0.431,5.865,-105.572,11.73
4.46,2.443,9.724,0.623,-11.73,-1.389,9.676,-0.287,-11.73,2.301,9.922,-0.575,5.865,-105.572,11.73
4.465,2.443,9.724,0.671,-5.865,-1.389,9.58,-0.335,-11.73,2.301,9.922,-0.575,5.865,-105.572,11.73
4.47,2.443,9.628,0.719,-5.865,-1.389,9.484,-0.383,-5.865,2.301,9.922,-0.575,5.865,-105.572,11.73
4.4750000000000005,2.443,9.532,0.766,-5.865,-1.389,9.436,-0.431,-5.865,2.301,9.778,-0.575,5.865,-105.572,11.73
4.48,2.491,9.484,0.766,-5.865,-1.437,9.484,-0.383,-5.865,2.445,9.635,-0.719,5.865,-105.572,5.865
4.485,2.539,9.484,0.719,-5.865,-1.533,9.341,-0.287,-5.865,2.445,9.635,-0.719,5.865,-105.572,5.865
4.49,2.491,9.245,0.623,-5.865,-1.437,9.293,-0.24,-5.865,2.445,9.491,-0.575,5.865,-105.572,5.865
4.495,2.395,9.245,0.575,-5.865,-1.341,9.197,-0.144,0.0,2.301,9.347,-0.431,17.595,-99.707,5.865
4.5,2.347,9.149,0.527,-0.0,-1.389,8.957,-0.096,0.0,2.301,9.347,-0.575,17.595,-99.707,5.865
4.505,2.443,8.862,0.479,5.865,-1.629,8.718,0.048,0.0,2.301,9.203,-0.431,17.595,-99.707,0.0
4.51,2.539,8.67,0.287,-0.0,-1.677,8.718,0.335,0.0,2.301,8.916,-0.431,17.595,-99.707,0.0
4.515,2.443,8.718,-0.048,-0.0,-1.82,8.718,0.623,0.0,2.301,8.772,-0.0,17.595,-99.707,0.0
4.5200000000000005,2.587,8.622,-0.335,-0.0,-1.964,8.574,0.814,0.0,2.157,8.772,0.288,17.595,-99.707,0.0
4.525,2.539,8.622,-0.527,-0.0,-2.06,8.526,0.814,0.0,2.301,8.628,0.575,23.46,-99.707,0.0
4.53,2.874,8.478,-0.527,5.865,-2.203,8.287,0.862,0.0,2.301,8.772,0.575,23.46,-105.572,0.0
4.535,2.778,8.43,-0.527,-0.0,-1.868,8.526,0.91,0.0,2.588,8.628,0.575,23.46,-105.572,0.0
4.54,2.73,8.718,-0.623,-0.0,-2.06,8.574,0.862,0.0,2.445,8.772,0.719,23.46,-111.437,0.0
4.545,2.874,8.814,-0.527,-0.0,-2.06,8.335,0.814,-5.865,2.588,9.059,0.719,23.46,-111.437,0.0
4.55,2.922,8.766,-0.527,-0.0,-1.82,8.478,0.958,0.0,2.732,9.203,0.575,17.595,-111.437,5.865
4.555,2.778,8.909,-0.623,-0.0,-1.964,8.622,0.862,0.0,2.732,9.203,0.719,17.595,-111.437,0.0
4.5600000000000005,2.97,9.005,-0.479,5.865,-2.012,8.478,0.814,5.865,2.732,9.347,0.719,5.865,-117.302,0.0
4.565,2.922,8.862,-0.431,5.865,-1.916,8.574,0.862,5.865,2.876,9.491,0.575,5.865,-117.302,0.0
4.57,2.874,8.862,-0.527,11.73,-1.916,8.574,0.862,5.865,2.876,9.347,0.575,5.865,-117.302,-5.865
4.575,2.826,8.814,-0.527,11.73,-1.82,8.478,0.862,11.73,2.732,9.203,0.719,0.0,-117.302,-5.865
4.58,2.682,8.718,-0.527,11.73,-1.772,8.383,0.814,11.73,2.588,9.059,0.719,0.0,-111.437,-11.73
4.585,2.635,8.526,-0.431,17.595,-1.724,8.383,0.719,17.595,2.445,8.916,0.719,0.0,-111.437,-11.73
4.59,2.587,8.478,-0.335,17.595,-1.677,8.383,0.671,17.595,2.445,8.772,0.575,-5.865,-111.437,-11.73
4.595,2.491,8.335,-0.335,17.595,-1.629,8.335,0.623,17.595,2.445,8.628,0.431,-5.865,-117.302,-17.595
4.6000000000000005,2.395,8.239,-0.24,17.595,-1.533,8.335,0.479,11.73,2.301,8.484,0.431,-5.865,-117.302,-17.595
4.605,2.347,8.239,-0.096,17.595,-1.389,8.383,0.383,17.595,2.157,8.34,0.288,-5.865,-117.302,-17.595
4.61,2.251,8.287,-0.048,17.595,-1.389,8.383,0.287,17.595,2.157,8.34,0.288,-5.865,-117.302,-11.73
4.615,2.251,8.287,0.048,17.595,-1.437,8.383,0.24,11.73,2.157,8.34,0.144,0.0,-117.302,-17.595
4.62,2.299,8.287,0.096,11.73,-1.389,8.574,0.24,11.73,2.157,8.34,-0.0,0.0,-117.302,-17.595
4.625,2.251,8.43,0.048,11.73,-1.485,8.814,0.287,11.73,2.013,8.34,-0.0,0.0,-117.302,-11.73
4.63,2.299,8.526,0.0,11.73,-1.533,8.909,0.335,5.865,2.013,8.484,-0.0,5.865,-117.302,-11.73
4.635,2.299,8.574,0.0,5.865,-1.533,8.957,0.383,0.0,2.013,8.484,0.144,5.865,-123.167,-5.865
4.64,2.299,8.622,-0.096,5.865,-1.581,9.005,0.431,0.0,2.013,8.484,0.144,5.865,-123.167,-5.865
4.6450000000000005,2.347,8.67,-0.144,-0.0,-1.581,9.101,0.431,-5.865,2.013,8.484,0.288,5.865,-123.167,0.0
4.65,2.395,8.718,-0.144,-0.0,-1.581,9.197,0.479,-5.865,2.013,8.628,0.288,17.595,-129.032,0.0
4.655,2.347,8.766,-0.192,-5.865,-1.581,9.245,0.479,-11.73,2.157,8.628,0.288,23.46,-129.032,5.865
4.66,2.347,8.814,-0.192,-11.73,-1.485,9.388,0.479,-17.595,2.013,8.628,0.288,29.326,-129.032,11.73
4.665,2.347,8.909,-0.192,-11.73,-1.485,9.436,0.479,-17.595,2.157,8.628,0.288,29.326,-134.897,11.73
4.67,2.395,8.909,-0.192,-17.595,-1.485,9.436,0.431,-23.46,2.013,8.628,0.288,35.191,-134.897,17.595
4.675,2.395,8.909,-0.144,-17.595,-1.389,9.436,0.383,-29.326,2.157,8.628,0.288,41.056,-134.897,23.46
4.68,2.395,8.909,-0.096,-23.46,-1.389,9.341,0.335,-35.191,2.157,8.628,0.288,46.921,-134.897,23.46
4.6850000000000005,2.443,8.814,-0.096,-29.326,-1.437,9.149,0.335,-41.056,2.301,8.772,0.288,52.786,-134.897,29.326
4.69,2.539,8.718,-0.048,-35.191,-1.437,9.245,0.383,-46.921,2.445,8.628,0.288,58.651,-134.897,35.191
4.695,2.443,8.909,-0.144,-41.056,-1.533,9.341,0.575,-52.786,2.445,8.628,0.288,64.516,-134.897,41.056
4.7,2.587,8.957,-0.335,-46.921,-1.916,9.341,0.766,-52.786,2.301,8.772,0.431,70.381,-134.897,46.921
4.705,2.778,8.909,-0.527,-46.921,-2.012,9.341,0.91,-58.651,2.445,8.772,0.575,70.381,-134.897,52.786
4.71,2.826,8.909,-0.766,-52.786,-2.156,9.197,1.102,-58.651,2.588,8.772,0.719,76.246,-134.897,52.786
4.715,2.922,8.814,-0.91,-58.651,-2.299,9.005,1.245,-64.516,2.588,8.772,1.007,76.246,-134.897,52.786
4.72,3.066,8.718,-1.006,-58.651,-2.395,8.957,1.245,-70.381,2.588,8.772,1.15,82.111,-140.762,58.651
4.7250000000000005,3.161,8.67,-1.006,-64.516,-2.299,8.814,1.198,-70.381,2.876,8.628,1.294,87.977,-140.762,64.516
4.73,3.209,8.718,-0.958,-70.381,-2.203,8.67,1.15,-76.246,3.02,8.772,1.294,87.977,-146.628,70.381
4.735,3.305,8.957,-0.862,-76.246,-2.203,8.862,1.054,-82.111,3.164,9.059,1.15,87.977,-146.628,70.381
4.74,3.449,9.341,-0.766,-76.246,-2.347,9.197,1.006,-82.111,3.451,9.491,1.15,87.977,-146.628,76.246
4.745,3.688,9.724,-0.719,-82.111,-2.491,9.484,1.006,-82.111,3.595,9.922,1.007,87.977,-146.628,82.111
4.75,3.832,10.011,-0.719,-82.111,-2.539,9.772,1.054,-82.111,3.883,10.354,1.007,82.111,-140.762,82.111
4.755,3.88,10.251,-0.766,-82.111,-2.443,10.011,1.102,-82.111,4.026,10.641,1.007,76.246,-140.762,82.111
4.76,3.784,10.394,-0.814,-82.111,-2.299,9.963,1.198,-82.111,4.026,10.785,1.007,70.381,-134.897,82.111
4.765,3.64,10.299,-0.91,-76.246,-2.156,9.82,1.245,-76.246,3.883,10.785,1.15,64.516,-134.897,82.111
4.7700000000000005,3.401,10.059,-0.958,-70.381,-1.916,9.484,1.389,-70.381,3.739,10.641,1.15,58.651,-129.032,76.246
4.775,3.114,9.628,-1.054,-70.381,-1.772,9.101,1.437,-70.381,3.451,10.354,1.15,52.786,-123.167,70.381
4.78,2.874,9.245,-1.15,-64.516,-1.581,8.766,1.533,-70.381,3.164,9.922,1.294,52.786,-123.167,70.381
4.785,2.635,8.909,-1.198,-64.516,-1.533,8.67,1.581,-70.381,2.876,9.491,1.294,52.786,-117.302,70.381
4.79,2.491,8.718,-1.245,-70.381,-1.437,8.622,1.485,-76.246,2.588,9.203,1.438,46.921,-117.302,70.381
4.795,2.395,8.622,-1.15,-70.381,-1.485,8.67,1.341,-82.111,2.301,8.916,1.294,41.056,-117.302,70.381
4.8,2.395,8.622,-1.006,-76.246,-1.581,8.814,1.198,-82.111,2.301,8.772,1.294,41.056,-117.302,76.246
4.805,2.491,8.67,-0.862,-82.111,-1.772,9.005,0.958,-87.977,2.157,8.772,1.15,41.056,-117.302,82.111
4.8100000000000005,2.682,8.814,-0.623,-82.111,-2.203,9.388,0.719,-93.842,2.301,8.772,0.863,41.056,-117.302,82.111
4.815,3.114,9.149,-0.335,-87.977,-2.491,9.772,0.431,-93.842,2.588,8.772,0.719,41.056,-117.302,87.977
4.82,3.449,9.676,-0.144,-93.842,-2.874,10.107,0.24,-99.707,3.02,9.203,0.431,41.056,-117.302,93.842
4.825,3.832,10.203,0.096,-93.842,-3.257,10.586,-0.048,-105.572,3.307,9.922,0.144,46.921,-117.302,93.842
4.83,4.311,10.873,0.383,-99.707,-3.545,11.065,-0.192,-105.572,3.883,10.641,-0.0,46.921,-117.302,99.707
4.835,4.646,11.544,0.527,-99.707,-3.64,11.448,-0.383,-105.572,4.314,11.36,-0.288,46.921,-123.167,99.707
4.84,4.838,12.023,0.671,-93.842,-3.736,11.64,-0.575,-99.707,4.602,12.223,-0.431,41.056,-123.167,99.707
4.845,4.934,12.31,0.91,-93.842,-3.545,11.64,-0.814,-93.842,4.889,12.798,-0.575,41.056,-123.167,99.707
4.8500000000000005,4.79,12.31,1.102,-87.977,-3.209,11.544,-1.006,-87.977,4.889,12.942,-0.863,29.326,-123.167,93.842
4.855,4.503,12.071,1.341,-82.111,-2.874,11.352,-1.198,-76.246,4.745,12.942,-1.007,23.46,-117.302,87.977
4.86,4.215,11.688,1.581,-70.381,-2.587,11.113,-1.341,-70.381,4.458,12.511,-1.294,17.595,-117.302,76.246
4.865,3.928,11.209,1.677,-64.516,-2.299,10.682,-1.389,-70.381,4.17,11.935,-1.582,5.865,-117.302,70.381
4.87,3.449,10.586,1.724,-64.516,-1.82,10.538,-1.245,-64.516,3.883,11.216,-1.582,5.865,-111.437,70.381
4.875,2.97,10.155,1.581,-58.651,-1.677,10.394,-1.102,-64.516,3.307,10.497,-1.582,5.865,-105.572,70.381
4.88,2.73,9.724,1.389,-58.651,-1.724,10.155,-0.958,-64.516,2.732,9.778,-1.438,5.865,-105.572,64.516
4.885,2.682,9.388,1.293,-64.516,-1.916,10.107,-0.719,-70.381,2.588,9.203,-1.294,5.865,-105.572,58.651
4.89,2.73,9.293,0.958,-64.516,-1.964,10.203,-0.287,-76.246,2.445,8.916,-1.15,17.595,-105.572,64.516
4.8950000000000005,2.73,9.388,0.527,-70.381,-1.868,9.963,-0.144,-82.111,2.445,8.916,-0.863,29.326,-105.572,70.381
4.9,2.73,9.532,0.479,-82.111,-1.964,9.963,0.144,-87.977,2.301,9.059,-0.431,35.191,-105.572,76.246
4.905,2.682,9.532,0.144,-82.111,-2.108,9.915,0.335,-87.977,2.445,9.491,-0.288,41.056,-111.437,82.111
4.91,3.066,9.484,-0.096,-82.111,-2.73,9.772,0.623,-93.842,2.301,9.347,-0.0,46.921,-111.437,82.111
4.915,3.545,9.963,-0.431,-87.977,-2.635,9.867,1.006,-87.977,3.02,9.491,0.288,52.786,-117.302,87.977
4.92,3.497,10.394,-0.766,-82.111,-2.73,9.724,1.15,-82.111,3.164,10.497,0.719,52.786,-117.302,87.977
4.925,3.928,10.299,-0.814,-76.246,-3.018,9.293,1.15,-76.246,3.451,11.073,1.007,52.786,-117.302,82.111
4.93,4.119,10.059,-0.814,-76.246,-3.018,9.101,1.341,-76.246,3.883,10.929,1.007,46.921,-117.302,76.246
4.9350000000000005,4.119,10.011,-1.054,-70.381,-3.018,9.101,1.533,-76.246,4.17,10.929,1.007,41.056,-117.302,76.246
4.94,4.119,9.867,-1.198,-70.381,-3.305,9.149,1.629,-70.381,4.17,10.929,1.294,29.326,-117.302,76.246
4.945,4.407,9.628,-1.293,-64.516,-3.545,9.245,1.724,-70.381,4.17,10.497,1.438,17.595,-117.302,70.381
4.95,4.503,9.388,-1.437,-64.516,-3.545,9.436,1.868,-70.381,4.458,10.066,1.438,5.865,-117.302,70.381
4.955,4.455,9.341,-1.533,-64.516,-3.497,9.484,2.012,-76.246,4.458,9.635,1.582,5.865,-117.302,70.381
4.96,4.407,9.341,-1.677,-70.381,-3.449,9.388,2.156,-76.246,4.458,9.491,1.726,0.0,-117.302,70.381
4.965,4.359,9.341,-1.82,-70.381,-3.401,9.197,2.299,-70.381,4.314,9.491,1.869,0.0,-117.302,70.381
4.97,4.263,9.197,-1.964,-70.381,-3.353,8.909,2.347,-70.381,4.17,9.635,2.013,0.0,-117.302,70.381
4.9750000000000005,4.167,8.957,-1.964,-70.381,-3.209,8.622,2.395,-76.246,4.17,9.491,2.157,0.0,-117.302,70.381
4.98,4.119,8.718,-2.06,-70.381,-3.066,8.478,2.587,-76.246,4.026,9.203,2.157,0.0,-117.302,70.381
4.985,3.88,8.622,-2.299,-70.381,-2.922,8.43,2.874,-76.246,4.026,8.916,2.301,0.0,-111.437,76.246
4.99,3.784,8.526,-2.539,-76.246,-3.066,8.239,3.114,-82.111,3.739,8.916,2.445,-5.865,-117.302,76.246
4.995,3.736,8.383,-2.826,-76.246,-3.209,8.143,3.401,-82.111,3.595,8.916,2.732,-5.865,-117.302,76.246
5.0,3.688,8.191,-3.114,-76.246,-3.209,8.191,3.64,-82.111,3.451,8.772,3.02,-5.865,-117.302,76.246
5.005,3.545,7.904,-3.401,-76.246,-3.114,8.047,3.832,-82.111,3.164,8.197,3.451,-11.73,-117.302,76.246
5.01,3.449,7.664,-3.545,-76.246,-3.114,7.904,3.88,-87.977,3.02,7.765,3.595,-11.73,-123.167,82.111
5.015,3.401,7.472,-3.64,-82.111,-3.161,8.095,3.88,-87.977,2.876,7.478,3.739,-11.73,-123.167,82.111
5.0200000000000005,3.545,7.568,-3.593,-82.111,-3.209,8.287,3.736,-87.977,2.876,7.334,3.739,-5.865,-129.032,82.111
5.025,3.736,7.856,-3.449,-82.111,-3.353,8.335,3.64,-93.842,3.164,7.334,3.739,-5.865,-134.897,87.977
5.03,4.024,8.143,-3.353,-87.977,-3.257,8.43,3.497,-87.977,3.451,7.765,3.595,0.0,-140.762,87.977
5.035,4.119,8.287,-3.161,-82.111,-3.018,8.43,3.305,-87.977,3.883,8.197,3.451,5.865,-146.628,87.977
5.04,4.072,8.383,-2.97,-82.111,-2.539,8.143,3.209,-82.111,4.17,8.34,3.307,5.865,-146.628,82.111
5.045,3.784,8.43,-2.874,-76.246,-2.156,7.808,3.257,-76.246,4.17,8.484,3.164,5.865,-146.628,82.111
5.05,3.593,8.43,-2.922,-70.381,-2.012,7.52,3.401,-70.381,4.026,8.916,3.02,5.865,-146.628,76.246
5.055,3.545,8.335,-3.018,-64.516,-2.012,7.233,3.401,-64.516,4.026,9.203,3.164,5.865,-140.762,70.381
5.0600000000000005,3.497,8.287,-3.018,-58.651,-1.964,7.137,3.497,-58.651,4.026,9.203,3.164,-5.865,-134.897,64.516
5.065,3.353,8.335,-3.114,-52.786,-2.06,7.137,3.64,-46.921,3.883,9.347,3.307,-11.73,-123.167,58.651
5.07,3.353,8.239,-3.257,-46.921,-2.587,7.425,3.784,-41.056,3.739,9.347,3.451,-29.326,-117.302,52.786
5.075,3.736,8.383,-3.497,-41.056,-2.251,7.808,4.119,-41.056,3.595,9.347,3.451,-41.056,-111.437,46.921
5.08,3.401,8.574,-3.736,-35.191,-2.156,8.287,3.928,-41.056,4.026,9.347,3.883,-52.786,-105.572,41.056
5.085,3.018,8.718,-3.593,-35.191,-2.108,8.766,3.928,-35.191,3.307,9.347,3.883,-58.651,-99.707,35.191
5.09,3.066,8.718,-3.64,-29.326,-2.012,8.862,3.88,-35.191,3.02,8.916,3.739,-70.381,-99.707,35.191
5.095,3.114,8.574,-3.449,-35.191,-2.156,8.143,3.497,-41.056,3.164,8.916,3.883,-70.381,-99.707,35.191
5.1000000000000005,2.73,7.664,-3.066,-41.056,-1.437,7.712,3.401,-41.056,3.02,8.34,3.451,-76.246,-99.707,35.191
5.105,2.012,7.281,-3.066,-35.191,-1.054,7.76,3.305,-29.326,2.157,7.19,3.164,-70.381,-93.842,41.056
5.11,1.868,7.185,-2.922,-23.46,-1.341,7.856,3.066,-29.326,1.582,7.046,3.164,-64.516,-99.707,35.191
5.115,2.203,7.233,-2.682,-23.46,-1.581,8.047,2.922,-35.191,1.726,6.902,3.02,-64.516,-99.707,23.46
5.12,2.299,7.425,-2.539,-35.191,-1.868,8.526,2.97,-46.921,2.157,7.046,2.732,-58.651,-99.707,29.326
5.125,2.539,7.664,-2.682,-41.056,-2.012,8.67,3.305,-52.786,2.157,7.19,2.732,-52.786,-99.707,41.056
5.13,2.635,7.568,-3.066,-52.786,-2.108,8.622,3.593,-58.651,2.157,7.046,2.876,-46.921,-99.707,46.921
5.135,2.635,7.808,-3.257,-58.651,-1.868,8.862,3.784,-64.516,2.157,6.902,3.307,-35.191,-105.572,52.786
5.14,2.682,8.43,-3.449,-58.651,-1.868,8.766,3.784,-64.516,2.301,7.478,3.451,-23.46,-105.572,64.516
5.1450000000000005,2.778,8.766,-3.401,-58.651,-2.108,8.526,3.593,-58.651,2.588,8.484,3.595,-17.595,-111.437,64.516
5.15,3.018,8.718,-3.209,-52.786,-2.156,8.383,3.449,-52.786,2.732,8.916,3.451,-11.73,-111.437,58.651
5.155,3.161,8.574,-3.066,-46.921,-1.916,8.191,3.449,-46.921,3.02,8.916,3.307,-11.73,-111.437,52.786
5.16,3.066,8.478,-3.066,-41.056,-1.629,7.951,3.545,-46.921,3.307,8.772,3.164,-11.73,-111.437,46.921
5.165,2.778,8.287,-3.161,-41.056,-1.437,7.856,3.688,-41.056,3.164,8.916,3.307,-17.595,-111.437,46.921
5.17,2.539,8.095,-3.305,-41.056,-1.245,7.808,3.736,-46.921,2.876,8.628,3.307,-17.595,-105.572,41.056
5.175,2.395,7.808,-3.305,-41.056,-1.15,7.808,3.784,-46.921,2.588,8.34,3.451,-23.46,-99.707,41.056
5.18,2.156,7.568,-3.401,-41.056,-1.054,7.856,3.736,-41.056,2.445,7.765,3.451,-23.46,-99.707,41.056
5.1850000000000005,2.06,7.472,-3.305,-41.056,-0.958,8.095,3.928,-41.056,2.157,7.478,3.451,-23.46,-99.707,41.056
5.19,2.06,7.616,-3.545,-41.056,-1.15,8.909,4.215,-41.056,2.157,7.334,3.451,-23.46,-93.842,41.056
5.195,2.108,7.856,-3.832,-35.191,-1.341,8.574,4.455,-35.191,2.013,7.046,3.739,-17.595,-87.977,41.056
5.2,2.347,7.712,-4.072,-35.191,-1.868,8.574,4.694,-35.191,2.157,7.046,4.026,-11.73,-87.977,35.191
5.205,3.161,7.425,-4.263,-35.191,-2.539,8.718,5.077,-46.921,2.157,7.478,4.17,0.0,-87.977,35.191
5.21,3.353,7.76,-4.742,-41.056,-2.778,8.143,5.461,-58.651,2.157,8.197,4.602,5.865,-87.977,35.191
5.215,3.497,7.999,-5.077,-52.786,-2.874,7.904,5.604,-64.516,2.588,7.909,5.033,17.595,-82.111,29.326
5.22,3.497,7.712,-5.221,-58.651,-2.778,7.856,5.748,-58.651,3.02,7.765,5.321,29.326,-82.111,23.46
5.2250000000000005,3.688,7.856,-5.365,-58.651,-2.682,7.904,5.892,-64.516,3.164,7.909,5.464,29.326,-87.977,23.46
5.23,3.688,7.856,-5.509,-58.651,-2.539,8.239,5.892,-70.381,3.307,8.34,5.608,29.326,-87.977,23.46
5.235,3.928,8.383,-5.461,-64.516,-3.114,8.909,5.796,-76.246,3.595,8.772,5.608,29.326,-82.111,23.46
5.24,4.215,8.766,-5.317,-70.381,-3.497,8.766,5.892,-76.246,4.026,8.772,5.608,29.326,-82.111,23.46
5.245,4.598,8.766,-5.317,-76.246,-3.928,8.67,5.988,-76.246,4.314,9.059,5.608,29.326,-76.246,23.46
5.25,5.03,8.718,-5.556,-76.246,-4.167,8.814,6.179,-76.246,4.314,9.203,5.608,29.326,-76.246,29.326
5.255,5.269,8.862,-5.748,-76.246,-4.551,9.053,6.419,-76.246,4.745,9.491,5.896,29.326,-76.246,29.326
5.26,5.365,9.053,-6.179,-76.246,-4.886,9.005,6.706,-76.246,4.745,9.203,6.04,23.46,-70.381,23.46
5.265,5.652,8.957,-6.323,-76.246,-5.221,9.005,6.754,-76.246,5.321,9.347,6.471,23.46,-70.381,23.46
5.2700000000000005,6.035,8.862,-6.323,-76.246,-5.652,8.957,6.946,-82.111,5.321,9.491,6.615,23.46,-70.381,29.326
5.275,6.419,8.814,-6.61,-82.111,-6.035,8.909,6.993,-87.977,5.321,9.491,6.615,23.46,-70.381,35.191
5.28,6.898,8.718,-6.467,-82.111,-5.988,8.862,6.85,-87.977,5.752,9.203,6.759,23.46,-70.381,35.191
5.285,7.041,8.909,-6.371,-87.977,-5.892,8.957,6.61,-87.977,5.896,9.203,6.759,23.46,-70.381,41.056
5.29,6.61,9.293,-6.131,-82.111,-5.652,9.101,6.371,-76.246,6.183,9.491,6.471,29.326,-70.381,41.056
5.295,6.514,9.245,-5.94,-76.246,-5.604,9.197,6.035,-70.381,6.183,9.491,6.327,23.46,-70.381,35.191
5.3,6.323,9.101,-5.556,-64.516,-5.509,9.245,5.796,-64.516,6.04,9.491,6.04,23.46,-70.381,35.191
5.305,6.514,9.149,-5.317,-58.651,-5.317,8.909,5.7,-58.651,5.608,9.203,5.752,17.595,-70.381,29.326
5.3100000000000005,5.748,8.909,-5.221,-52.786,-4.934,8.718,5.748,-52.786,5.608,9.347,5.608,17.595,-70.381,29.326
5.315,5.988,9.005,-5.173,-46.921,-4.934,8.383,5.509,-46.921,5.608,9.347,5.464,17.595,-70.381,23.46
5.32,5.94,8.766,-5.125,-46.921,-5.077,8.047,5.556,-46.921,5.464,9.491,5.321,17.595,-70.381,23.46
5.325,5.844,8.862,-5.173,-41.056,-4.886,7.999,5.604,-46.921,5.896,9.922,5.321,5.865,-70.381,23.46
5.33,6.419,8.622,-5.125,-41.056,-5.077,7.999,5.7,-52.786,5.896,9.922,5.464,5.865,-70.381,29.326
5.335,6.419,8.766,-5.221,-41.056,-5.173,7.904,5.748,-52.786,6.04,10.354,5.321,5.865,-64.516,29.326
5.34,6.467,8.957,-5.221,-41.056,-5.556,8.191,5.652,-52.786,6.471,10.497,5.464,-5.865,-58.651,29.326
5.345,7.137,9.053,-5.125,-41.056,-5.892,8.718,5.556,-58.651,6.471,10.785,5.464,-17.595,-52.786,29.326
5.3500000000000005,7.425,9.388,-5.077,-46.921,-6.179,9.436,5.413,-52.786,6.902,10.785,5.464,-29.326,-46.921,35.191
5.355,7.712,9.915,-4.982,-46.921,-6.61,10.011,5.365,-46.921,7.046,11.073,5.177,-35.191,-41.056,35.191
5.36,7.904,10.394,-4.934,-41.056,-6.993,10.394,5.413,-46.921,6.759,11.216,5.177,-46.921,-35.191,35.191
5.365,7.951,10.634,-5.03,-41.056,-7.425,10.73,5.317,-41.056,6.759,11.648,5.177,-52.786,-29.326,29.326
5.37,8.287,10.921,-4.886,-41.056,-7.856,10.921,5.077,-41.056,7.046,11.935,5.177,-52.786,-23.46,23.46
5.375,8.335,10.969,-4.694,-41.056,-8.095,10.921,4.838,-35.191,6.759,11.792,5.033,-58.651,-23.46,23.46
5.38,8.574,10.825,-4.551,-35.191,-8.287,11.065,4.838,-35.191,7.046,11.648,4.745,-64.516,-23.46,23.46
5.385,8.622,10.825,-4.455,-35.191,-8.383,11.304,4.742,-41.056,7.19,11.504,4.602,-64.516,-23.46,23.46
5.39,8.814,10.969,-4.359,-35.191,-8.622,11.592,4.551,-41.056,7.19,11.504,4.602,-58.651,-29.326,23.46
5.3950000000000005,8.718,10.873,-4.215,-41.056,-8.67,12.167,4.455,-35.191,6.902,11.504,4.458,-58.651,-35.191,29.326
5.4,8.335,10.778,-4.072,-41.056,-8.574,11.879,4.215,-35.191,7.046,11.504,4.314,-52.786,-35.191,29.326
5.405,8.239,10.634,-3.928,-41.056,-8.191,11.592,4.119,-29.326,6.759,11.073,4.17,-52.786,-46.921,35.191
5.41,8.047,10.059,-3.832,-41.056,-7.712,10.682,4.119,-35.191,6.471,10.641,4.026,-46.921,-52.786,35.191
5.415,7.999,9.963,-3.784,-41.056,-7.185,9.772,4.215,-35.191,6.471,10.066,3.883,-41.056,-58.651,29.326
5.42,7.425,9.388,-3.832,-35.191,-6.562,9.149,4.263,-35.191,6.327,9.922,4.026,-29.326,-70.381,29.326
5.425,7.089,8.957,-3.928,-29.326,-6.227,8.335,4.359,-29.326,6.04,9.491,4.026,-23.46,-76.246,29.326
5.43,6.514,8.095,-4.072,-23.46,-5.796,8.047,4.263,-23.46,5.896,9.059,4.026,-17.595,-87.977,23.46
5.4350000000000005,6.131,7.76,-3.88,-17.595,-5.365,7.664,4.119,-17.595,5.608,8.628,3.595,-17.595,-87.977,17.595
5.44,6.227,7.472,-3.688,-17.595,-5.03,7.137,3.928,-17.595,5.608,8.34,3.451,-11.73,-87.977,17.595
5.445,5.988,6.802,-3.449,-11.73,-4.551,6.658,3.736,-11.73,5.608,8.053,3.451,-5.865,-82.111,5.865
5.45,5.7,6.898,-3.257,-5.865,-4.598,6.131,3.736,-5.865,5.464,8.053,3.451,-5.865,-76.246,0.0
5.455,5.7,6.467,-3.305,-0.0,-4.694,6.179,3.832,-5.865,5.464,7.909,3.307,-11.73,-70.381,-5.865
5.46,5.7,6.371,-3.401,-0.0,-4.886,5.892,3.784,0.0,5.464,7.621,3.164,-5.865,-70.381,-11.73
5.465,5.892,6.131,-3.353,5.865,-4.838,6.227,3.593,0.0,5.752,7.334,3.164,-11.73,-58.651,-17.595
5.47,6.083,5.94,-3.066,5.865,-5.077,5.892,3.497,0.0,5.896,7.334,3.02,-11.73,-52.786,-23.46
5.4750000000000005,6.083,5.748,-2.97,11.73,-5.221,5.796,3.64,5.865,5.896,6.902,3.164,-17.595,-46.921,-29.326
5.48,5.796,5.988,-3.209,11.73,-5.365,5.413,3.736,0.0,5.896,7.046,2.445,-17.595,-41.056,-35.191
5.485,5.509,6.323,-3.305,11.73,-5.269,5.892,3.832,5.865,6.183,6.902,2.013,-17.595,-35.191,-41.056
5.49,5.556,6.083,-3.353,11.73,-5.317,5.556,3.88,5.865,6.183,7.19,1.726,-17.595,-17.595,-52.786
5.495,5.604,6.419,-3.449,5.865,-5.317,5.652,3.88,0.0,5.464,7.478,2.301,-17.595,0.0,-58.651
5.5,5.652,6.179,-3.449,5.865,-5.317,5.7,3.688,0.0,5.608,7.478,2.445,-17.595,23.46,-64.516
5.505,5.652,6.179,-3.305,-0.0,-5.413,5.94,3.736,-11.73,5.464,7.765,2.732,-17.595,35.191,-70.381
5.51,5.892,5.892,-3.449,-11.73,-5.652,5.892,3.64,-17.595,5.321,7.621,3.02,-23.46,46.921,-64.516
5.515,5.892,5.94,-3.305,-11.73,-5.652,6.131,3.688,-17.595,4.026,7.478,3.595,-23.46,46.921,-58.651
5.5200000000000005,4.934,5.892,-2.251,-17.595,-3.018,9.005,6.131,-17.595,1.294,6.471,5.896,-23.46,41.056,-52.786
5.525,1.198,6.035,-4.982,-17.595,-0.335,7.76,4.694,-11.73,-26.315,2.876,19.844,-11.73,-5.865,-35.191
5.53,0.958,8.766,-4.072,-17.595,-0.527,7.712,2.97,0.0,-2.445,8.916,6.04,17.595,-164.223,-5.865
5.535,1.629,7.425,-2.587,-0.0,2.347,7.856,4.359,23.46,10.21,7.765,-2.013,41.056,-234.604,-5.865
5.54,3.64,6.514,-4.359,17.595,-3.88,4.455,5.365,41.056,13.373,6.471,0.288,41.056,-199.413,-35.191
5.545,2.97,5.988,-4.646,35.191,-3.401,6.467,2.874,46.921,4.889,6.902,4.17,23.46,-134.897,-41.056
5.55,2.778,6.371,-2.443,41.056,-2.97,5.604,2.539,46.921,-0.288,6.759,4.745,5.865,-87.977,-41.056
5.555,3.161,5.892,-2.108,41.056,-2.443,5.125,3.209,41.056,0.575,6.471,1.869,5.865,-93.842,-41.056
5.5600000000000005,2.922,5.844,-2.97,41.056,-1.868,5.365,3.784,41.056,1.582,7.334,2.157,5.865,-111.437,-35.191
5.565,2.73,5.652,-3.401,35.191,-1.772,5.652,3.64,35.191,2.301,6.615,3.307,5.865,-117.302,-41.056
5.57,2.778,5.556,-3.257,35.191,-2.395,5.748,3.401,35.191,2.157,6.183,3.595,5.865,-123.167,-35.191
5.575,3.066,5.509,-2.97,35.191,-2.587,5.796,3.449,41.056,1.869,6.183,3.164,5.865,-117.302,-35.191
5.58,3.161,5.748,-3.114,41.056,-2.635,5.7,3.64,41.056,2.013,6.183,3.02,5.865,-117.302,-35.191
5.585,3.209,5.604,-3.305,41.056,-2.587,5.556,3.545,41.056,2.445,6.183,3.164,5.865,-117.302,-41.056
5.59,3.257,5.461,-3.161,41.056,-2.73,5.173,3.64,41.056,2.301,6.04,3.307,5.865,-123.167,-41.056
5.595,3.066,5.365,-3.257,41.056,-2.587,5.173,3.449,41.056,2.301,5.896,3.307,5.865,-123.167,-41.056
5.6000000000000005,3.161,4.982,-3.066,41.056,-2.156,5.509,3.305,46.921,2.445,5.608,3.164,17.595,-123.167,-35.191
5.605,2.826,4.982,-2.97,41.056,-1.916,5.509,3.449,46.921,2.445,5.321,3.164,23.46,-123.167,-41.056
5.61,2.539,5.077,-3.161,41.056,-1.293,5.604,3.593,46.921,2.157,5.321,3.02,29.326,-123.167,-35.191
5.615,2.203,5.317,-3.257,41.056,-1.102,5.652,3.736,41.056,1.869,5.321,3.307,29.326,-123.167,-35.191
5.62,1.82,5.509,-3.353,41.056,-0.24,6.323,3.545,41.056,1.582,5.464,3.451,29.326,-123.167,-35.191
5.625,1.581,5.748,-3.114,35.191,-0.479,7.52,4.503,41.056,1.15,5.608,3.451,35.191,-123.167,-35.191
5.63,1.198,7.233,-4.551,35.191,-0.766,6.706,4.79,41.056,1.15,5.608,3.451,35.191,-123.167,-29.326
5.635,1.533,6.754,-4.167,35.191,-0.719,6.61,3.928,46.921,0.431,6.902,4.314,46.921,-117.302,-29.326
5.64,1.677,6.562,-3.449,35.191,-1.15,5.844,3.64,46.921,0.719,6.327,4.314,52.786,-111.437,-29.326
5.6450000000000005,1.772,6.179,-3.209,35.191,-1.245,5.509,3.449,46.921,1.007,6.615,3.451,52.786,-111.437,-23.46
5.65,1.629,5.94,-3.018,41.056,-1.198,5.03,3.305,46.921,0.719,6.471,3.307,52.786,-111.437,-29.326
5.655,1.533,5.652,-2.874,41.056,-0.671,4.838,3.353,46.921,0.288,6.327,3.164,52.786,-111.437,-29.326
5.66,1.293,5.365,-3.018,41.056,-0.096,5.461,3.976,46.921,0.288,6.327,3.164,46.921,-117.302,-35.191
5.665,0.958,5.365,-3.688,46.921,-0.096,5.748,4.167,52.786,0.431,5.608,3.451,41.056,-123.167,-35.191
5.67,0.91,5.844,-3.784,52.786,-0.048,5.988,3.832,58.651,0.431,5.464,3.883,41.056,-123.167,-41.056
5.675,0.862,6.514,-3.353,58.651,0.479,6.371,3.688,64.516,-0.144,6.183,4.026,41.056,-123.167,-46.921
5.68,0.431,6.898,-3.305,64.516,0.623,6.706,3.736,70.381,-0.575,7.19,3.739,41.056,-123.167,-58.651
5.6850000000000005,0.335,7.425,-3.401,58.651,0.383,7.329,3.928,64.516,-1.007,7.478,3.595,41.056,-123.167,-58.651
5.69,0.192,7.76,-3.736,52.786,0.192,7.904,4.359,52.786,-1.294,8.34,3.595,29.326,-123.167,-52.786
5.695,0.623,7.377,-4.072,46.921,-0.096,7.808,4.455,52.786,-1.007,7.334,3.883,23.46,-123.167,-46.921
5.7,1.102,7.76,-4.119,46.921,0.048,8.43,4.503,52.786,-0.288,7.334,4.314,23.46,-129.032,-41.056
5.705,1.245,8.095,-4.167,52.786,0.048,8.383,4.551,58.651,0.144,7.621,4.314,29.326,-123.167,-46.921
5.71,1.198,8.526,-4.311,52.786,-0.144,8.862,5.077,52.786,0.144,8.053,4.314,23.46,-123.167,-46.921
5.715,1.724,10.059,-4.646,52.786,0.144,9.915,4.838,52.786,0.144,8.628,4.602,23.46,-123.167,-52.786
5.72,1.437,9.484,-4.407,46.921,0.335,9.676,4.79,46.921,-0.144,9.635,4.745,23.46,-123.167,-52.786
5.7250000000000005,0.862,8.718,-4.598,46.921,0.91,9.58,5.748,46.921,0.144,10.066,4.602,17.595,-123.167,-52.786
5.73,1.006,9.58,-5.413,52.786,0.527,9.341,5.892,58.651,0.144,9.778,5.177,5.865,-111.437,-52.786
5.735,1.245,9.963,-5.365,64.516,0.096,9.197,5.413,70.381,0.144,9.635,5.752,17.595,-105.572,-52.786
5.74,1.485,10.011,-4.838,64.516,0.096,9.532,5.221,64.516,0.0,10.497,5.464,23.46,-99.707,-58.651
5.745,1.485,9.963,-4.79,64.516,-0.144,9.628,5.269,64.516,0.144,10.785,5.033,23.46,-93.842,-58.651
5.75,1.772,10.011,-4.838,58.651,-0.24,9.915,5.221,58.651,0.144,10.497,5.033,17.595,-87.977,-58.651
5.755,1.868,10.059,-4.79,52.786,-0.671,10.155,5.173,58.651,0.288,10.785,5.177,5.865,-87.977,-52.786
5.76,1.964,10.251,-4.742,52.786,-2.012,10.394,5.125,58.651,0.431,10.785,5.033,5.865,-82.111,-52.786
5.765,2.251,10.251,-4.79,52.786,-0.335,10.442,4.838,52.786,0.288,10.641,4.889,5.865,-82.111,-46.921
5.7700000000000005,2.395,10.299,-4.598,46.921,-0.862,10.346,5.556,46.921,0.144,10.785,4.602,5.865,-82.111,-46.921
5.775,1.868,10.299,-5.173,46.921,0.096,10.299,5.317,46.921,0.288,10.785,5.033,5.865,-82.111,-46.921
5.78,1.341,10.155,-4.982,46.921,1.437,10.203,5.077,46.921,-0.288,10.497,5.608,5.865,-82.111,-46.921
5.785,0.719,10.107,-4.646,46.921,3.305,10.299,5.94,46.921,-0.575,10.497,5.321,5.865,-82.111,-46.921
5.79,-1.437,10.778,-5.604,46.921,2.156,10.203,6.467,35.191,-0.719,10.354,5.321,5.865,-82.111,-46.921
5.795,-1.389,10.682,-5.796,35.191,1.82,10.73,5.556,29.326,-3.02,10.497,5.321,5.865,-82.111,-46.921
5.8,-1.006,10.873,-5.077,29.326,1.054,10.346,5.03,23.46,-2.876,10.785,6.183,5.865,-70.381,-35.191
5.805,-0.144,10.586,-4.646,23.46,0.575,9.82,5.221,17.595,-2.301,10.497,4.889,-5.865,-64.516,-29.326
5.8100000000000005,0.192,10.155,-4.79,17.595,0.623,9.532,5.365,11.73,-1.726,10.785,4.889,-11.73,-64.516,-23.46
5.815,0.24,9.867,-4.934,17.595,0.671,9.005,5.365,11.73,-1.438,10.21,5.177,-11.73,-64.516,-23.46
5.82,0.24,9.58,-4.982,17.595,0.719,9.197,5.652,11.73,-1.582,10.066,5.321,-17.595,-70.381,-23.46
5.825,0.144,9.963,-5.365,23.46,0.671,9.676,5.988,23.46,-1.438,9.778,5.177,-23.46,-70.381,-23.46
5.83,0.431,9.867,-5.652,35.191,0.431,9.101,5.796,35.191,-1.294,9.922,5.752,-29.326,-76.246,-35.191
5.835,0.766,9.293,-5.365,52.786,-0.479,8.718,5.509,46.921,-1.294,9.922,6.04,-29.326,-76.246,-46.921
5.84,1.15,9.149,-5.077,64.516,-0.431,8.239,5.221,58.651,-1.007,9.635,5.608,-29.326,-76.246,-58.651
5.845,1.341,8.909,-4.79,70.381,-0.479,8.191,5.03,70.381,-0.863,9.347,5.464,-29.326,-82.111,-70.381
5.8500000000000005,1.341,8.622,-4.646,82.111,-0.24,8.143,4.934,82.111,-0.719,9.059,5.033,-35.191,-82.111,-82.111
5.855,0.862,8.43,-4.598,93.842,0.24,8.383,4.934,99.707,-0.719,8.772,5.033,-41.056,-93.842,-93.842
5.86,0.479,8.478,-4.646,105.572,0.958,8.766,5.077,111.437,-1.007,8.628,5.033,-41.056,-99.707,-105.572
5.865,0.144,8.718,-4.694,117.302,1.437,9.101,4.886,129.032,-1.582,8.484,5.177,-41.056,-105.572,-117.302
5.87,-0.814,8.67,-4.646,129.032,2.395,9.101,5.077,140.762,-2.013,8.197,5.177,-35.191,-111.437,-129.032
5.875,-1.15,9.101,-4.646,140.762,2.826,9.436,4.934,146.628,-2.157,8.772,5.033,-29.326,-117.302,-146.628
5.88,-1.245,9.436,-4.551,146.628,3.449,9.724,5.03,146.628,-2.301,8.916,4.889,-29.326,-111.437,-146.628
5.885,-1.437,9.867,-4.598,146.628,3.736,10.299,4.79,146.628,-2.732,9.203,5.033,-29.326,-105.572,-152.493
5.89,-1.629,10.155,-4.359,140.762,4.263,10.682,4.694,140.762,-2.876,9.635,4.889,-29.326,-99.707,-146.628
5.8950000000000005,-1.724,10.586,-4.167,134.897,4.455,11.257,4.694,129.032,-3.02,10.066,4.889,-29.326,-93.842,-140.762
5.9,-1.82,10.825,-4.167,123.167,4.359,11.736,4.598,111.437,-3.164,10.21,4.602,-29.326,-82.111,-129.032
5.905,-2.06,11.304,-4.167,105.572,4.215,11.927,4.503,93.842,-3.451,10.354,4.602,-29.326,-70.381,-111.437
5.91,-1.916,11.64,-4.072,87.977,3.784,12.358,4.455,82.111,-3.883,10.785,4.602,-29.326,-64.516,-99.707
5.915,-2.251,11.783,-4.072,70.381,3.353,12.502,4.263,58.651,-3.595,10.785,4.602,-23.46,-52.786,-82.111
5.92,-2.108,11.879,-3.88,52.786,3.018,12.215,4.215,41.056,-3.739,10.785,4.026,-23.46,-46.921,-64.516
5.925,-1.772,11.879,-3.88,35.191,3.018,11.879,4.167,23.46,-3.595,10.785,4.026,-23.46,-41.056,-46.921
5.93,-1.533,11.496,-3.832,17.595,3.161,11.113,4.407,5.865,-3.307,10.785,3.883,-23.46,-35.191,-29.326
5.9350000000000005,-1.581,10.969,-4.072,-0.0,3.305,10.634,4.694,-5.865,-3.307,10.497,4.026,-23.46,-29.326,-11.73
5.94,-1.629,10.155,-4.263,-5.865,3.114,9.915,4.79,-17.595,-3.02,9.922,4.17,-17.595,-29.326,0.0
5.945,-1.533,9.532,-4.311,-11.73,2.635,9.245,4.646,-17.595,-2.876,9.347,4.602,-23.46,-23.46,5.865
5.95,-1.054,9.101,-4.119,-11.73,2.443,8.766,4.503,-11.73,-2.732,8.772,4.602,-23.46,-17.595,11.73
5.955,-0.958,8.574,-3.928,-5.865,2.012,7.999,4.359,-5.865,-2.445,8.34,4.458,-23.46,-5.865,5.865
5.96,-0.862,8.095,-3.88,-0.0,2.06,7.904,4.119,5.865,-2.301,8.053,4.17,-23.46,-5.865,0.0
5.965,-0.575,7.76,-3.64,5.865,1.581,7.712,4.215,11.73,-2.301,7.765,4.17,-17.595,0.0,-5.865
5.97,-0.623,7.76,-3.784,17.595,1.437,7.76,4.215,23.46,-2.157,7.621,4.026,-17.595,5.865,-11.73
5.9750000000000005,-0.24,7.52,-3.688,29.326,1.054,7.377,4.503,35.191,-2.013,7.478,4.026,-17.595,5.865,-23.46
5.98,-0.719,7.52,-4.072,35.191,1.437,7.951,3.976,46.921,-2.013,7.334,4.17,-17.595,11.73,-35.191
5.985,-0.527,7.52,-3.64,46.921,2.012,7.329,5.988,58.651,-2.301,7.046,3.883,-11.73,5.865,-41.056
5.99,-1.102,7.52,-5.03,52.786,2.97,7.664,4.551,70.381,-2.013,7.046,5.177,-5.865,5.865,-46.921
5.995,-1.581,7.281,-4.072,64.516,3.353,6.467,4.982,70.381,-3.02,6.759,5.177,0.0,11.73,-58.651
6.0,-2.587,6.802,-4.694,58.651,3.066,6.179,4.024,52.786,-2.732,7.046,4.314,5.865,11.73,-58.651
6.005,-1.724,6.562,-3.305,46.921,2.587,5.413,4.263,35.191,-3.164,6.471,4.026,0.0,11.73,-58.651
6.01,-1.341,6.179,-3.736,29.326,2.108,5.413,4.167,23.46,-2.732,6.183,3.883,-5.865,17.595,-46.921
6.015000000000001,-1.198,5.748,-3.64,17.595,1.293,5.461,3.161,11.73,-2.301,5.608,3.739,-17.595,17.595,-23.46
6.0200000000000005,-0.623,6.035,-2.73,5.865,1.581,5.125,3.449,0.0,-2.301,5.321,3.595,-17.595,17.595,-17.595
6.025,-0.527,5.94,-2.826,-5.865,0.91,5.652,3.449,-17.595,-2.301,5.896,2.588,-23.46,17.595,-5.865
6.03,-0.335,5.556,-3.066,-17.595,1.198,5.604,3.736,-29.326,-1.869,5.608,3.307,-29.326,5.865,5.865
6.035,-0.623,5.317,-3.353,-29.326,2.06,5.652,3.88,-29.326,-1.726,5.033,3.307,-29.326,0.0,11.73
6.04,-1.389,5.125,-3.449,-23.46,3.066,5.413,4.263,-17.595,-1.869,4.602,3.595,-35.191,0.0,23.46
