time_aligned_sec,L_Acc_X_aligned,L_Acc_Y_aligned,L_Acc_Z_aligned,L_Gyro_Z_aligned,R_Acc_X_aligned,R_Acc_Y_aligned,R_Acc_Z_aligned,R_Gyro_Z_aligned,T_Acc_X_aligned,T_Acc_Y_aligned,T_Acc_Z_aligned,T_Gyro_X_aligned,T_Gyro_Y_aligned,T_Gyro_Z_aligned
0.0,-1.198,7.329,6.227,-52.786,2.108,7.76,-5.796,-58.651,-0.575,6.902,-6.759,70.381,52.786,35.191
0.005,-1.15,7.377,5.844,-64.516,2.012,7.76,-5.461,-70.381,-0.575,7.046,-6.471,76.246,58.651,46.921
0.01,-1.054,7.377,5.413,-76.246,1.964,7.808,-4.982,-76.246,-0.431,7.19,-6.183,82.111,58.651,52.786
0.015,-0.958,7.568,4.934,-82.111,1.677,8.047,-4.503,-82.111,-0.288,7.19,-5.896,87.977,64.516,64.516
0.02,-0.766,7.904,4.359,-87.977,1.341,8.191,-3.928,-93.842,-0.144,7.334,-5.321,93.842,64.516,76.246
0.025,-0.671,8.335,3.928,-93.842,1.198,8.526,-3.593,-93.842,-0.144,7.334,-4.889,99.707,70.381,82.111
0.03,-0.671,8.814,3.688,-93.842,1.245,9.005,-3.353,-99.707,-0.144,7.765,-4.458,105.572,70.381,87.977
0.035,-0.719,9.388,3.545,-93.842,1.341,9.628,-3.305,-93.842,-0.144,8.34,-4.026,111.437,70.381,93.842
0.04,-0.671,9.963,3.593,-93.842,1.389,10.059,-3.353,-93.842,-0.288,8.916,-3.739,111.437,64.516,99.707
0.045,-0.814,10.394,3.736,-87.977,1.868,10.251,-3.497,-87.977,-0.288,9.347,-3.595,117.302,64.516,93.842
0.05,-1.102,10.682,3.784,-76.246,2.108,10.299,-3.545,-76.246,-0.144,9.922,-3.595,117.302,58.651,93.842
0.055,-1.006,10.634,3.832,-58.651,1.916,9.915,-3.688,-58.651,-0.144,10.497,-3.739,117.302,58.651,87.977
0.06,-0.719,10.251,3.976,-46.921,1.341,9.388,-3.736,-46.921,-0.575,10.929,-3.883,117.302,52.786,82.111
0.065,-0.144,9.676,4.024,-35.191,0.862,8.814,-3.736,-35.191,-0.288,11.216,-3.883,117.302,52.786,64.516
0.07,0.24,9.005,3.928,-29.326,0.527,8.287,-3.593,-23.46,0.0,10.929,-4.026,111.437,52.786,46.921
0.075,0.431,8.43,3.64,-23.46,0.479,7.999,-3.257,-23.46,0.719,10.354,-4.17,105.572,52.786,35.191
0.08,0.431,8.095,3.257,-29.326,0.527,7.951,-2.826,-29.326,1.15,9.635,-4.026,99.707,52.786,29.326
0.085,0.479,8.047,2.826,-29.326,0.527,8.095,-2.347,-29.326,1.438,8.916,-3.739,93.842,58.651,23.46
0.09,0.479,8.191,2.299,-35.191,0.24,8.335,-1.82,-35.191,1.438,8.34,-3.307,87.977,58.651,29.326
0.095,0.575,8.335,1.916,-35.191,-0.048,8.574,-1.533,-35.191,1.438,8.053,-2.732,82.111,64.516,29.326
0.1,0.719,8.478,1.724,-35.191,-0.192,8.862,-1.341,-35.191,1.294,8.197,-2.301,82.111,64.516,35.191
0.105,0.766,8.766,1.581,-41.056,-0.096,9.245,-1.245,-41.056,1.294,8.34,-1.869,87.977,70.381,35.191
0.11,0.623,9.053,1.533,-41.056,0.144,9.676,-1.15,-41.056,1.294,8.34,-1.726,87.977,70.381,35.191
0.115,0.431,9.484,1.437,-41.056,0.335,10.059,-1.102,-41.056,1.438,8.484,-1.582,87.977,64.516,41.056
0.12,0.383,10.011,1.245,-41.056,0.192,10.299,-0.862,-46.921,1.294,8.772,-1.438,93.842,64.516,41.056
0.125,0.383,10.49,1.006,-41.056,0.096,10.299,-0.623,-41.056,1.15,9.203,-1.294,99.707,64.516,46.921
0.13,0.24,10.873,0.91,-41.056,0.048,10.299,-0.623,-41.056,1.007,9.922,-1.15,99.707,64.516,46.921
0.135,0.192,11.017,0.958,-29.326,-0.192,10.155,-0.719,-23.46,0.863,10.785,-1.007,105.572,58.651,46.921
0.14,0.144,10.921,1.102,-17.595,0.144,9.772,-0.91,-17.595,0.575,11.36,-1.007,105.572,58.651,41.056
0.145,-0.144,10.586,1.437,-11.73,0.623,9.341,-1.293,-5.865,0.288,11.792,-1.15,99.707,52.786,29.326
0.15,-0.383,10.155,1.772,-5.865,0.91,8.957,-1.485,0.0,0.431,11.935,-1.294,93.842,41.056,23.46
0.155,-0.383,9.628,1.868,5.865,0.91,8.526,-1.581,5.865,0.288,11.792,-1.582,82.111,35.191,11.73
0.16,-0.287,9.101,2.06,5.865,0.862,8.095,-1.724,11.73,0.144,11.216,-2.013,70.381,29.326,5.865
0.165,-0.383,8.622,2.203,11.73,0.91,7.664,-1.916,11.73,0.288,10.641,-2.013,52.786,23.46,0.0
0.17,-0.575,8.143,2.347,17.595,1.006,7.281,-1.964,11.73,0.288,10.066,-2.157,41.056,23.46,-5.865
0.17500000000000002,-0.623,7.76,2.395,11.73,1.15,6.85,-2.06,17.595,0.144,9.491,-2.445,29.326,23.46,-11.73
0.18,-0.766,7.472,2.539,11.73,1.102,6.658,-2.203,11.73,0.0,8.916,-2.445,23.46,23.46,-11.73
0.185,-0.862,7.377,2.682,11.73,1.293,6.802,-2.347,11.73,-0.144,8.628,-2.588,5.865,17.595,-11.73
0.19,-1.054,7.329,2.874,11.73,1.772,7.089,-2.539,11.73,-0.288,8.34,-2.732,5.865,17.595,-11.73
0.195,-1.293,7.329,3.066,5.865,2.299,7.52,-2.682,0.0,-0.431,8.197,-2.876,-5.865,17.595,-11.73
0.2,-1.581,7.281,3.161,-0.0,2.682,7.856,-2.73,0.0,-0.431,7.765,-3.02,-11.73,17.595,-5.865
0.20500000000000002,-1.772,7.281,3.114,-5.865,2.826,8.095,-2.635,-5.865,-0.575,7.334,-3.164,-17.595,17.595,0.0
0.21,-1.629,7.329,2.97,-11.73,2.682,8.335,-2.395,-11.73,-0.719,7.046,-3.164,-17.595,17.595,5.865
0.215,-1.437,7.425,2.635,-11.73,2.443,8.526,-2.012,-11.73,-0.863,6.759,-3.02,-11.73,23.46,5.865
0.22,-1.533,7.616,2.156,-11.73,2.251,8.574,-1.629,-11.73,-0.863,6.759,-2.876,-5.865,23.46,11.73
0.225,-1.485,7.856,1.82,-11.73,2.012,8.574,-1.293,-11.73,-0.719,6.615,-2.588,5.865,29.326,11.73
0.23,-1.389,8.095,1.581,-11.73,1.724,8.622,-1.198,-17.595,-1.007,6.902,-2.157,23.46,29.326,17.595
0.23500000000000001,-1.245,8.383,1.724,-11.73,1.677,8.957,-1.389,-11.73,-1.15,7.478,-1.869,29.326,35.191,17.595
0.24,-1.293,8.718,1.916,-11.73,1.916,9.197,-1.581,-11.73,-1.15,7.909,-1.582,41.056,29.326,17.595
0.245,-1.341,9.149,2.203,-11.73,2.299,9.58,-1.868,-11.73,-1.007,8.197,-1.726,46.921,29.326,17.595
0.25,-1.533,9.436,2.539,-11.73,2.635,9.676,-2.299,-11.73,-0.863,8.484,-2.013,52.786,23.46,11.73
0.255,-1.677,9.58,3.066,-11.73,2.778,9.484,-2.826,-17.595,-0.719,8.916,-2.157,58.651,17.595,11.73
0.26,-1.677,9.532,3.497,-11.73,2.635,8.862,-3.305,-11.73,-0.719,9.347,-2.588,64.516,17.595,17.595
0.265,-1.581,9.293,3.88,-11.73,2.491,8.239,-3.688,-11.73,-0.863,9.635,-3.02,70.381,17.595,17.595
0.27,-1.533,9.197,4.215,-11.73,2.491,7.951,-3.976,-5.865,-0.863,10.066,-3.595,70.381,23.46,11.73
0.275,-1.533,9.197,4.503,-11.73,2.587,7.999,-4.215,-5.865,-0.719,10.21,-4.026,70.381,23.46,11.73
0.28,-1.677,9.341,4.598,-11.73,2.778,8.287,-4.215,-11.73,-0.575,10.354,-4.458,64.516,29.326,11.73
0.28500000000000003,-1.724,9.532,4.455,-11.73,2.97,8.574,-4.119,-11.73,-0.575,10.354,-4.745,52.786,29.326,11.73
0.29,-1.772,9.724,4.263,-5.865,3.018,8.909,-3.88,-5.865,-0.575,10.497,-4.745,41.056,35.191,11.73
0.295,-1.772,9.82,4.072,-5.865,2.97,9.197,-3.688,-5.865,-0.719,10.497,-4.602,29.326,41.056,11.73
0.3,-1.724,9.867,3.88,-5.865,2.922,9.245,-3.497,-5.865,-0.575,10.497,-4.314,17.595,46.921,11.73
0.305,-1.677,9.867,3.688,-5.865,2.778,9.341,-3.305,-5.865,-0.575,10.497,-4.17,5.865,52.786,11.73
0.31,-1.677,9.915,3.449,-0.0,2.682,9.388,-3.066,0.0,-0.719,10.497,-4.026,0.0,58.651,5.865
0.315,-1.677,9.867,3.018,-0.0,2.395,9.436,-2.539,5.865,-0.719,10.497,-3.739,-5.865,58.651,5.865
0.32,-1.629,9.724,2.299,5.865,2.06,9.436,-1.772,5.865,-0.719,10.497,-3.595,-11.73,64.516,5.865
0.325,-1.533,9.484,1.581,5.865,1.772,9.436,-1.006,5.865,-1.007,10.497,-3.164,-17.595,70.381,0.0
0.33,-1.389,9.245,0.766,11.73,1.485,9.532,-0.144,11.73,-1.294,10.21,-2.445,-23.46,70.381,0.0
0.335,-1.245,9.101,0.048,11.73,1.293,9.82,0.575,11.73,-1.294,9.635,-1.726,-23.46,70.381,-5.865
0.34,-1.054,9.005,-0.575,11.73,1.198,10.203,1.198,11.73,-1.294,9.347,-0.863,-29.326,64.516,-5.865
0.34500000000000003,-0.958,9.101,-1.198,11.73,1.198,10.538,1.868,11.73,-1.15,8.772,-0.144,-23.46,58.651,-5.865
0.35000000000000003,-1.006,9.197,-1.964,11.73,1.054,10.873,2.682,11.73,-1.007,8.484,0.575,-23.46,46.921,-5.865
0.355,-0.862,9.245,-2.682,11.73,0.814,11.017,3.305,11.73,-1.007,8.197,1.294,-11.73,41.056,-11.73
0.36,-0.623,9.293,-3.161,11.73,0.527,10.969,3.64,11.73,-1.15,8.197,2.013,0.0,29.326,-11.73
0.365,-0.431,9.149,-3.209,11.73,0.287,10.73,3.64,11.73,-1.15,8.053,2.732,17.595,23.46,-5.865
0.37,-0.24,8.862,-2.922,11.73,0.24,10.011,3.161,11.73,-0.863,8.053,3.164,35.191,11.73,-11.73
0.375,-0.144,8.287,-2.156,11.73,0.144,8.862,2.299,11.73,-0.719,8.053,3.307,52.786,0.0,-11.73
0.38,-0.096,7.616,-1.198,11.73,0.24,7.52,1.293,5.865,-0.431,8.053,3.02,70.381,-11.73,-11.73
0.385,-0.24,7.137,-0.096,5.865,0.671,6.562,0.096,0.0,-0.144,7.765,2.301,87.977,-23.46,-11.73
0.39,-0.431,6.946,1.245,-5.865,1.245,5.844,-1.293,-5.865,0.144,7.765,1.294,93.842,-35.191,-11.73
0.395,-0.862,7.137,2.539,-11.73,1.964,5.556,-2.539,-17.595,0.288,7.621,0.144,99.707,-41.056,-5.865
0.4,-1.485,7.856,3.545,-17.595,2.778,5.7,-3.449,-23.46,0.431,7.909,-1.294,99.707,-41.056,5.865
0.405,-2.012,8.67,4.167,-17.595,3.401,6.035,-4.024,-23.46,0.288,8.484,-2.588,93.842,-41.056,11.73
0.41000000000000003,-2.251,9.388,4.551,-17.595,3.449,6.275,-4.407,-17.595,-0.288,9.635,-3.739,82.111,-35.191,17.595
0.41500000000000004,-2.299,9.82,4.982,-17.595,3.64,6.61,-4.838,-17.595,-0.575,10.929,-4.458,58.651,-29.326,23.46
0.42,-2.347,10.203,5.365,-11.73,3.832,7.185,-5.269,-11.73,-1.007,12.079,-4.889,35.191,-23.46,23.46
0.425,-2.682,10.538,5.652,-0.0,4.263,8.047,-5.509,0.0,-1.007,12.654,-5.321,0.0,-11.73,17.595
0.43,-2.826,10.682,5.556,5.865,4.359,8.957,-5.365,11.73,-1.007,12.942,-5.608,-35.191,0.0,11.73
0.435,-2.73,10.825,5.269,17.595,4.119,9.963,-4.982,17.595,-1.294,12.942,-5.896,-64.516,5.865,5.865
0.44,-2.395,10.873,4.646,29.326,3.401,10.778,-4.167,29.326,-1.438,12.511,-5.752,-93.842,17.595,-5.865
0.445,-2.203,10.873,3.593,41.056,3.018,11.688,-3.066,41.056,-1.438,11.935,-5.321,-117.302,29.326,-11.73
0.45,-2.012,10.682,2.539,46.921,2.682,12.406,-1.964,46.921,-1.582,11.216,-4.745,-134.897,35.191,-23.46
0.455,-1.772,10.203,1.629,46.921,2.203,12.646,-0.958,46.921,-1.726,10.497,-3.595,-140.762,41.056,-35.191
0.46,-1.629,9.388,0.814,46.921,2.012,12.31,-0.048,46.921,-1.582,9.635,-2.445,-134.897,41.056,-41.056
0.465,-1.437,8.478,0.192,46.921,1.868,11.736,0.479,41.056,-1.726,8.484,-1.438,-123.167,35.191,-46.921
0.47000000000000003,-1.15,7.664,0.048,35.191,1.82,11.113,0.479,29.326,-1.726,7.19,-0.719,-99.707,29.326,-46.921
0.47500000000000003,-1.006,7.185,0.383,23.46,1.772,10.299,0.096,23.46,-1.294,6.04,0.144,-70.381,17.595,-41.056
0.48,-0.862,6.946,0.814,17.595,1.581,9.293,-0.383,11.73,-1.007,5.033,0.288,-35.191,11.73,-35.191
0.485,-0.671,6.898,1.293,5.865,1.485,8.335,-1.006,0.0,-0.575,4.602,-0.0,5.865,5.865,-23.46
0.49,-0.719,6.898,1.868,-11.73,1.629,7.568,-1.581,-17.595,-0.431,5.033,-0.575,46.921,0.0,-11.73
0.495,-1.006,7.281,2.251,-29.326,2.06,7.329,-1.964,-35.191,0.0,5.752,-1.007,76.246,0.0,0.0
0.5,-1.437,7.951,2.299,-41.056,2.539,7.377,-2.012,-46.921,0.288,6.471,-1.582,99.707,0.0,11.73
0.505,-1.772,8.862,2.203,-52.786,2.682,7.664,-1.916,-58.651,0.0,7.478,-2.157,111.437,0.0,29.326
0.51,-1.82,9.82,2.108,-52.786,2.682,8.143,-1.868,-58.651,-0.431,8.628,-2.301,117.302,5.865,46.921
0.515,-1.82,10.682,2.251,-52.786,2.682,8.718,-2.012,-52.786,-0.863,10.066,-2.301,117.302,5.865,52.786
0.52,-2.06,11.113,2.251,-41.056,2.874,8.862,-1.964,-41.056,-1.007,11.36,-2.301,105.572,11.73,58.651
0.525,-2.06,11.257,2.203,-35.191,2.826,8.909,-1.964,-41.056,-1.007,12.511,-2.445,87.977,17.595,52.786
0.53,-2.012,11.209,2.347,-29.326,2.874,9.005,-2.108,-29.326,-1.15,13.23,-2.588,70.381,17.595,46.921
0.535,-2.012,10.969,2.491,-17.595,2.922,9.197,-2.251,-17.595,-1.15,13.373,-2.588,46.921,17.595,41.056
0.54,-1.964,10.969,2.587,-11.73,2.97,9.676,-2.251,-5.865,-1.15,13.23,-2.588,17.595,23.46,35.191
0.545,-1.916,11.017,2.395,-0.0,2.922,10.203,-2.012,0.0,-1.15,12.654,-2.732,-5.865,23.46,23.46
0.55,-1.868,11.065,2.012,5.865,2.635,10.49,-1.533,5.865,-1.15,12.223,-2.732,-29.326,23.46,11.73
0.555,-1.677,10.969,1.485,11.73,2.299,10.73,-1.006,11.73,-1.007,11.935,-2.588,-46.921,23.46,5.865
0.56,-1.437,10.73,1.054,23.46,1.964,11.113,-0.575,17.595,-1.15,11.792,-2.157,-58.651,29.326,-5.865
0.5650000000000001,-1.293,10.394,0.671,23.46,1.916,11.448,-0.192,23.46,-1.15,11.36,-1.582,-64.516,29.326,-11.73
0.5700000000000001,-1.245,9.963,0.431,23.46,1.964,11.544,0.096,23.46,-1.007,10.785,-1.15,-70.381,29.326,-17.595
0.5750000000000001,-1.198,9.484,0.383,23.46,1.964,11.496,0.144,23.46,-1.007,9.922,-0.719,-70.381,23.46,-17.595
0.58,-1.102,9.149,0.479,23.46,1.916,11.257,0.0,17.595,-0.863,8.916,-0.288,-64.516,17.595,-23.46
0.585,-1.102,9.005,0.719,17.595,1.916,10.921,-0.287,11.73,-0.719,8.053,-0.288,-46.921,17.595,-17.595
0.59,-1.054,9.053,1.006,11.73,1.868,10.682,-0.623,5.865,-0.719,7.621,-0.288,-29.326,11.73,-17.595
0.595,-1.15,9.341,1.245,-0.0,2.06,10.49,-0.91,0.0,-0.575,7.478,-0.575,-5.865,5.865,-11.73
0.6,-1.293,9.724,1.629,-5.865,2.299,10.394,-1.245,-5.865,-0.431,7.909,-0.863,23.46,5.865,-5.865
0.605,-1.533,10.059,1.82,-11.73,2.539,10.442,-1.581,-11.73,-0.575,8.628,-1.15,41.056,0.0,0.0
0.61,-1.533,10.346,2.299,-17.595,2.587,10.346,-2.012,-17.595,-0.575,9.347,-1.582,58.651,0.0,5.865
0.615,-1.724,10.825,2.491,-11.73,2.635,10.299,-2.203,-17.595,-0.719,9.922,-1.869,70.381,0.0,11.73
0.62,-1.82,11.257,2.635,-11.73,2.73,10.299,-2.395,-11.73,-0.575,10.497,-2.301,76.246,0.0,17.595
0.625,-1.868,11.688,2.874,-11.73,2.826,10.778,-2.635,-11.73,-1.007,11.36,-2.588,76.246,0.0,17.595
0.63,-1.916,12.167,3.018,-11.73,2.97,11.304,-2.73,-11.73,-1.15,12.223,-2.732,76.246,0.0,11.73
0.635,-2.108,12.694,2.97,-5.865,3.209,11.879,-2.635,-5.865,-0.863,12.798,-3.02,64.516,0.0,11.73
0.64,-2.108,12.933,2.874,-0.0,3.161,12.262,-2.539,0.0,-1.007,13.23,-3.164,52.786,0.0,11.73
0.645,-1.964,13.029,2.73,5.865,2.97,12.406,-2.347,11.73,-1.294,13.517,-3.164,46.921,5.865,5.865
0.65,-1.964,12.933,2.491,17.595,2.826,12.358,-2.156,17.595,-1.294,13.661,-3.02,35.191,5.865,0.0
0.655,-1.868,12.741,2.395,23.46,2.73,12.358,-1.964,23.46,-1.15,13.805,-2.876,29.326,5.865,-5.865
0.66,-1.82,12.454,2.203,29.326,2.778,12.215,-1.772,29.326,-1.294,13.661,-2.732,17.595,5.865,-11.73
0.665,-1.868,12.023,2.012,35.191,2.826,11.975,-1.533,35.191,-1.15,13.23,-2.588,5.865,0.0,-23.46
0.67,-1.82,11.544,1.916,35.191,2.922,11.736,-1.485,35.191,-1.15,12.798,-2.301,5.865,0.0,-23.46
0.675,-1.772,11.017,1.916,41.056,2.826,11.209,-1.533,41.056,-1.15,12.223,-2.157,5.865,0.0,-29.326
0.68,-1.724,10.586,1.964,41.056,2.73,10.778,-1.533,41.056,-1.007,11.504,-2.013,5.865,0.0,-35.191
0.685,-1.724,10.251,1.964,41.056,2.826,10.49,-1.533,41.056,-1.007,10.929,-1.869,5.865,-5.865,-41.056
0.6900000000000001,-1.82,10.011,1.916,41.056,2.874,10.346,-1.485,41.056,-0.863,10.497,-2.013,5.865,0.0,-41.056
0.6950000000000001,-1.916,9.915,1.868,41.056,2.874,10.203,-1.437,41.056,-0.863,10.21,-2.013,5.865,0.0,-41.056
0.7000000000000001,-1.868,9.867,1.724,41.056,2.826,10.155,-1.245,41.056,-1.007,9.922,-1.869,17.595,0.0,-41.056
0.705,-1.916,9.867,1.485,41.056,2.73,10.107,-1.054,41.056,-1.15,9.922,-1.869,23.46,0.0,-41.056
0.71,-1.964,9.82,1.293,41.056,2.682,10.059,-0.814,41.056,-1.15,9.922,-1.726,29.326,5.865,-41.056
0.715,-1.964,9.772,1.15,46.921,2.635,10.059,-0.671,41.056,-1.294,9.922,-1.582,35.191,5.865,-41.056
0.72,-2.012,9.676,1.054,46.921,2.682,9.963,-0.671,46.921,-1.438,9.922,-1.294,35.191,5.865,-41.056
0.725,-2.012,9.484,1.054,52.786,2.635,9.724,-0.623,52.786,-1.582,9.778,-1.15,41.056,5.865,-41.056
0.73,-1.916,9.245,1.054,52.786,2.587,9.436,-0.671,58.651,-1.582,9.635,-1.15,41.056,0.0,-46.921
0.735,-1.868,8.909,1.15,58.651,2.539,9.053,-0.719,58.651,-1.582,9.491,-1.007,46.921,0.0,-46.921
0.74,-1.916,8.526,1.15,64.516,2.539,8.526,-0.719,64.516,-1.582,9.203,-1.15,52.786,0.0,-52.786
0.745,-1.916,8.143,1.198,70.381,2.539,8.047,-0.766,70.381,-1.438,8.916,-1.15,52.786,-5.865,-58.651
0.75,-1.916,7.664,1.245,70.381,2.347,7.568,-0.814,76.246,-1.582,8.628,-1.15,58.651,-5.865,-64.516
0.755,-1.82,7.185,1.245,76.246,2.251,7.089,-0.91,76.246,-1.582,8.34,-1.15,58.651,-5.865,-70.381
0.76,-1.724,6.658,1.485,82.111,2.156,6.419,-1.102,82.111,-1.582,7.909,-1.294,64.516,-11.73,-70.381
0.765,-1.724,5.94,1.581,87.977,2.156,5.461,-1.245,82.111,-1.582,7.478,-1.294,64.516,-11.73,-76.246
0.77,-1.629,5.03,1.772,87.977,2.156,4.503,-1.341,87.977,-1.438,6.902,-1.438,64.516,-11.73,-82.111
0.775,-1.629,3.976,1.772,87.977,1.964,3.257,-1.293,87.977,-1.438,6.327,-1.582,64.516,-11.73,-82.111
0.78,-1.437,2.73,1.629,87.977,1.581,1.868,-1.15,87.977,-1.15,5.464,-1.726,64.516,-17.595,-87.977
0.785,-1.006,1.102,1.533,87.977,0.958,0.096,-1.054,87.977,-1.294,4.602,-1.869,58.651,-11.73,-87.977
0.79,-0.862,-1.006,1.485,82.111,0.671,-2.06,-0.862,76.246,-1.15,3.451,-1.726,58.651,-11.73,-87.977
0.795,-0.958,-3.161,1.15,64.516,0.623,-3.928,-0.527,58.651,-0.719,1.869,-1.582,52.786,-11.73,-87.977
0.8,-0.671,-5.413,1.006,46.921,0.287,-5.796,-0.383,41.056,-0.719,-0.288,-1.438,46.921,-5.865,-82.111
0.805,-0.335,-7.089,0.958,23.46,0.048,-7.041,-0.335,11.73,-0.863,-2.445,-1.15,41.056,-5.865,-64.516
0.81,-0.287,-8.574,1.006,-5.865,-0.192,-8.239,-0.335,-17.595,-0.575,-5.033,-0.863,41.056,-5.865,-46.921
0.8150000000000001,-0.144,-9.341,1.006,-41.056,-0.766,-9.676,-0.431,-46.921,-0.288,-7.334,-0.863,41.056,0.0,-17.595
0.8200000000000001,0.24,-10.346,1.293,-76.246,-1.245,-11.592,-0.814,-87.977,-0.144,-8.772,-0.719,41.056,5.865,5.865
0.8250000000000001,0.335,-11.496,1.772,-117.302,-1.437,-13.364,-1.341,-134.897,-0.144,-9.203,-0.863,46.921,11.73,35.191
0.8300000000000001,0.91,-11.879,2.682,-164.223,-1.772,-13.316,-2.395,-181.818,0.288,-9.347,-1.15,52.786,17.595,76.246
0.835,1.629,-10.825,3.545,-205.279,-1.964,-11.927,-3.066,-222.874,0.431,-9.778,-1.726,46.921,17.595,117.302
0.84,1.916,-9.149,3.928,-252.199,-1.677,-9.915,-3.64,-269.795,1.294,-10.21,-2.588,35.191,23.46,164.223
0.845,2.539,-5.844,5.269,-293.255,-2.156,-4.551,-5.125,-310.85,2.157,-9.491,-3.451,17.595,29.326,211.144
0.85,3.257,0.479,5.988,-322.581,-1.772,2.778,-5.413,-334.311,2.876,-7.909,-3.739,0.0,41.056,252.199
0.855,7.329,20.214,-2.922,-334.311,18.442,23.758,11.257,-322.581,3.451,-5.608,-5.033,-11.73,58.651,293.255
0.86,8.622,23.998,-13.316,-258.064,-17.867,14.131,7.951,5.865,4.458,-0.575,-5.752,-17.595,70.381,328.446
0.865,-5.509,23.854,-8.766,-29.326,6.898,22.034,-5.077,29.326,0.863,-14.092,4.745,-11.73,87.977,340.176
0.87,5.03,23.998,-8.718,-0.0,8.526,24.333,10.586,11.73,-19.125,72.331,8.628,152.493,105.572,269.795
0.875,4.598,19.495,-7.472,29.326,4.024,24.19,6.275,29.326,-26.028,52.343,-8.197,5.865,199.413,-328.446
0.88,-0.192,8.143,-0.048,58.651,3.209,9.197,-1.677,70.381,18.119,25.884,10.785,-170.088,-46.921,-381.232
0.885,-0.91,2.73,6.371,93.842,3.257,2.06,-7.137,87.977,9.922,8.628,8.772,-293.255,-152.493,-123.167
0.89,0.192,2.347,8.862,58.651,2.97,5.652,-8.239,41.056,1.15,3.451,1.007,-205.279,-93.842,-70.381
0.895,-1.82,5.796,7.041,-5.865,5.509,11.113,-5.796,-29.326,1.15,3.164,-6.04,-117.302,-64.516,-93.842
0.9,-3.353,11.64,4.646,-64.516,5.509,15.232,-3.928,-82.111,2.588,0.863,-8.628,-93.842,-35.191,-58.651
0.905,-3.257,15.951,3.593,-93.842,4.646,17.388,-3.209,-105.572,0.431,2.588,-6.902,-76.246,-5.865,17.595
0.91,-2.251,16.861,3.545,-93.842,3.353,16.861,-2.922,-93.842,-2.588,9.347,-4.602,-41.056,17.595,76.246
0.915,-2.539,15.232,3.449,-82.111,5.221,15.52,-3.257,-82.111,-3.739,14.811,-3.595,0.0,35.191,105.572
0.92,-2.97,13.46,4.119,-70.381,5.077,13.699,-3.832,-70.381,-3.739,16.393,-3.739,23.46,35.191,99.707
0.925,-2.922,12.598,4.311,-58.651,4.551,11.64,-3.928,-58.651,-2.157,14.524,-3.307,35.191,29.326,82.111
0.93,-3.066,10.921,4.072,-41.056,3.976,9.484,-3.784,-41.056,-3.02,11.935,-4.026,46.921,29.326,76.246
0.935,-3.305,10.682,3.928,-35.191,4.359,9.915,-3.305,-35.191,-2.876,12.367,-4.314,52.786,35.191,70.381
0.9400000000000001,-2.874,10.538,2.682,-23.46,3.976,10.442,-1.868,-17.595,-3.307,12.079,-4.17,58.651,41.056,58.651
0.9450000000000001,-2.251,10.73,1.437,-11.73,3.066,10.825,-0.719,-5.865,-3.307,11.648,-4.026,52.786,41.056,52.786
0.9500000000000001,-1.533,10.873,0.383,5.865,1.724,10.682,0.24,5.865,-2.732,11.073,-2.732,46.921,41.056,35.191
0.9550000000000001,-0.814,10.49,-0.575,17.595,1.293,10.203,1.006,17.595,-2.445,10.785,-1.438,41.056,41.056,17.595
0.96,-1.006,10.299,-0.814,23.46,1.868,10.011,1.198,29.326,-2.013,10.929,-0.431,41.056,41.056,5.865
0.965,-0.958,10.059,-0.766,35.191,1.293,9.388,1.102,35.191,-1.438,11.073,0.431,41.056,35.191,-11.73
0.97,-0.431,9.772,-0.527,35.191,0.814,8.957,0.862,29.326,-1.15,10.641,0.863,41.056,23.46,-17.595
0.975,-0.192,9.532,-0.671,29.326,0.814,8.814,1.15,29.326,-1.294,10.641,0.719,41.056,17.595,-29.326
0.98,-0.144,9.436,-0.958,23.46,0.91,9.053,1.389,17.595,-0.863,10.641,0.575,35.191,17.595,-35.191
0.985,-0.096,9.436,-0.958,11.73,1.006,9.197,1.389,5.865,-0.431,10.497,0.719,29.326,5.865,-23.46
0.99,-0.24,9.484,-0.862,5.865,1.293,9.149,1.15,5.865,-0.288,10.066,1.007,17.595,5.865,-17.595
0.995,-0.479,9.628,-0.431,5.865,1.724,9.245,0.719,5.865,-0.144,9.922,1.007,5.865,0.0,-11.73
1.0,-0.623,9.82,-0.096,-0.0,1.724,9.293,0.431,0.0,-0.288,9.778,0.863,5.865,0.0,-5.865
1.0050000000000001,-0.671,9.82,-0.048,-5.865,1.677,9.293,0.479,-5.865,-0.288,10.21,0.431,0.0,0.0,-5.865
1.01,-0.719,9.724,-0.096,-5.865,1.677,9.532,0.479,-5.865,-0.431,10.354,0.144,0.0,0.0,0.0
1.0150000000000001,-0.814,9.772,0.096,-5.865,1.724,9.58,0.287,-5.865,-0.575,10.354,0.144,-5.865,0.0,5.865
1.02,-0.91,9.724,0.287,-5.865,1.82,9.772,0.048,-5.865,-0.719,10.21,0.144,-11.73,0.0,5.865
1.025,-0.91,9.963,0.623,-11.73,1.964,10.251,-0.335,-11.73,-0.863,10.066,-0.144,-17.595,0.0,5.865
1.03,-1.341,10.346,0.958,-5.865,2.635,10.73,-0.623,-5.865,-1.007,9.922,-0.288,-17.595,0.0,5.865
1.035,-1.533,10.586,1.341,-0.0,2.826,10.825,-0.958,0.0,-1.007,9.922,-0.575,-17.595,0.0,11.73
1.04,-1.437,10.299,1.533,-0.0,2.587,10.394,-1.15,0.0,-1.294,10.066,-1.007,-17.595,0.0,11.73
1.045,-1.198,10.011,1.581,-0.0,2.299,10.107,-1.15,0.0,-1.294,10.354,-1.294,-17.595,0.0,5.865
1.05,-1.102,9.772,1.389,5.865,2.299,10.011,-0.91,5.865,-1.438,10.21,-1.582,-11.73,0.0,0.0
1.055,-1.198,9.82,1.245,5.865,2.299,10.011,-0.766,11.73,-1.294,9.922,-1.582,-5.865,0.0,0.0
1.06,-1.054,9.963,1.198,5.865,1.964,10.011,-0.814,5.865,-1.15,9.635,-1.438,-5.865,0.0,-5.865
1.065,-0.91,10.011,1.245,5.865,1.916,9.963,-0.814,5.865,-1.15,9.635,-1.15,0.0,0.0,-5.865
1.07,-0.958,9.82,1.15,5.865,1.964,9.82,-0.766,5.865,-1.007,10.066,-1.15,0.0,0.0,-5.865
1.075,-0.814,9.628,1.15,5.865,1.772,9.532,-0.766,5.865,-0.863,10.066,-1.294,5.865,0.0,-5.865
1.08,-0.719,9.484,1.198,5.865,1.677,9.341,-0.766,5.865,-0.863,9.922,-1.15,5.865,0.0,-5.865
1.085,-0.814,9.484,1.15,5.865,1.868,9.341,-0.719,5.865,-0.863,9.778,-1.15,5.865,0.0,-5.865
1.09,-0.91,9.58,1.102,-0.0,1.916,9.436,-0.719,0.0,-0.719,9.635,-1.15,5.865,0.0,-5.865
1.095,-0.958,9.676,1.198,-0.0,2.012,9.532,-0.814,0.0,-0.719,9.635,-1.15,5.865,0.0,0.0
1.1,-1.006,9.724,1.341,-0.0,2.156,9.532,-0.958,0.0,-0.863,9.778,-1.15,5.865,0.0,0.0
1.105,-1.102,9.676,1.389,-0.0,2.251,9.532,-1.006,0.0,-0.863,9.922,-1.15,5.865,0.0,0.0
1.11,-1.102,9.676,1.485,-0.0,2.203,9.58,-1.054,0.0,-0.863,9.922,-1.294,0.0,0.0,0.0
1.115,-1.102,9.724,1.533,5.865,2.203,9.58,-1.102,5.865,-1.007,9.922,-1.438,0.0,0.0,0.0
1.12,-1.102,9.724,1.533,-0.0,2.156,9.628,-1.102,5.865,-1.007,9.922,-1.438,0.0,0.0,0.0
1.125,-1.054,9.724,1.533,5.865,2.156,9.772,-1.15,5.865,-1.007,9.922,-1.438,0.0,0.0,0.0
1.1300000000000001,-1.054,9.82,1.581,5.865,2.203,9.915,-1.198,5.865,-1.007,9.922,-1.438,0.0,0.0,0.0
1.135,-1.102,9.915,1.533,5.865,2.251,9.963,-1.102,0.0,-1.007,9.778,-1.582,0.0,0.0,0.0
1.1400000000000001,-1.054,9.915,1.485,5.865,2.108,9.915,-1.054,5.865,-1.007,9.922,-1.582,0.0,0.0,0.0
1.145,-1.054,9.82,1.437,5.865,2.108,9.772,-1.054,5.865,-1.007,9.922,-1.582,0.0,0.0,0.0
1.1500000000000001,-0.958,9.724,1.533,5.865,2.012,9.58,-1.102,5.865,-1.007,10.066,-1.438,0.0,5.865,0.0
1.155,-0.958,9.628,1.533,5.865,2.012,9.484,-1.102,5.865,-1.007,9.922,-1.438,0.0,5.865,-5.865
1.16,-1.006,9.484,1.485,5.865,2.06,9.341,-1.054,5.865,-0.863,9.922,-1.438,0.0,5.865,0.0
1.165,-0.958,9.58,1.437,5.865,2.012,9.388,-1.054,5.865,-1.007,9.778,-1.438,0.0,0.0,0.0
1.17,-1.102,9.484,1.389,-0.0,2.108,9.388,-0.958,5.865,-1.007,9.635,-1.438,0.0,5.865,0.0
1.175,-1.054,9.58,1.341,-0.0,2.108,9.484,-0.91,0.0,-0.863,9.778,-1.438,0.0,5.865,0.0
1.18,-1.102,9.676,1.389,-0.0,2.251,9.628,-0.958,0.0,-1.15,9.635,-1.438,0.0,5.865,0.0
1.185,-1.198,9.772,1.389,-0.0,2.347,9.676,-1.006,0.0,-1.007,9.778,-1.294,0.0,5.865,0.0
1.19,-1.15,9.867,1.389,-0.0,2.299,9.724,-0.958,0.0,-1.007,9.922,-1.294,0.0,5.865,0.0
1.195,-1.102,9.963,1.293,-0.0,2.203,9.724,-0.862,0.0,-1.15,9.922,-1.438,0.0,5.865,0.0
1.2,-1.102,10.107,1.245,-0.0,2.156,9.82,-0.814,5.865,-1.007,10.066,-1.294,0.0,5.865,0.0
1.205,-1.245,10.442,1.341,5.865,2.108,9.963,-0.958,5.865,-1.15,10.21,-1.294,0.0,5.865,0.0
1.21,-1.15,10.73,1.245,5.865,2.203,10.299,-0.814,5.865,-1.15,10.497,-1.294,0.0,5.865,0.0
1.215,-1.15,11.065,1.054,11.73,2.156,10.634,-0.671,11.73,-1.294,10.929,-1.294,-5.865,5.865,-5.865
1.22,-1.15,11.209,1.006,11.73,2.156,10.682,-0.575,11.73,-1.294,11.36,-1.294,-5.865,5.865,-5.865
1.225,-1.245,11.257,0.862,17.595,2.156,10.778,-0.431,17.595,-1.15,11.504,-1.15,-17.595,5.865,-5.865
1.23,-1.293,11.257,0.671,23.46,2.108,10.921,-0.24,23.46,-1.294,11.792,-1.007,-17.595,0.0,-5.865
1.235,-1.293,11.161,0.431,29.326,2.012,11.017,0.0,29.326,-1.582,11.792,-0.863,-23.46,0.0,-11.73
1.24,-1.293,10.873,0.335,35.191,2.108,11.161,0.144,35.191,-1.582,11.648,-0.719,-29.326,0.0,-17.595
1.245,-1.437,10.538,-0.719,41.056,2.299,12.023,1.293,41.056,-1.726,11.36,-0.431,-35.191,-5.865,-23.46
1.25,-0.958,10.394,-1.198,46.921,1.82,12.119,1.677,46.921,-1.726,10.785,-0.288,-35.191,-11.73,-35.191
1.2550000000000001,-0.671,10.155,-1.245,52.786,1.437,11.927,1.677,52.786,-1.869,9.491,0.719,-35.191,-17.595,-41.056
1.26,-0.527,9.867,-1.006,52.786,1.245,11.496,1.293,52.786,-1.294,9.059,1.294,-23.46,-23.46,-46.921
1.2650000000000001,-0.335,9.58,-0.335,52.786,1.198,10.73,0.527,52.786,-1.007,8.772,1.438,-5.865,-29.326,-52.786
1.27,-0.527,9.005,0.479,52.786,1.437,9.58,-0.287,52.786,-1.007,8.628,1.15,5.865,-29.326,-52.786
1.2750000000000001,-0.671,8.622,1.198,52.786,1.772,8.718,-0.958,46.921,-0.575,8.484,0.431,35.191,-35.191,-58.651
1.28,-0.862,8.095,1.677,41.056,2.06,7.808,-1.437,41.056,-0.719,8.484,-0.431,52.786,-41.056,-52.786
1.285,-0.91,7.808,2.108,35.191,2.299,7.472,-1.82,29.326,-0.431,8.484,-1.007,64.516,-41.056,-46.921
1.29,-1.198,7.904,2.395,23.46,2.539,7.185,-2.06,17.595,-0.431,8.34,-1.582,70.381,-41.056,-41.056
1.295,-1.437,8.239,2.491,11.73,2.635,7.089,-2.108,11.73,-0.288,8.197,-2.013,70.381,-41.056,-29.326
1.3,-1.629,8.67,2.443,5.865,2.778,7.233,-2.06,5.865,-0.719,8.484,-2.301,70.381,-35.191,-17.595
1.305,-1.677,9.053,2.443,-0.0,2.874,7.568,-2.108,0.0,-1.15,9.203,-2.445,64.516,-29.326,-11.73
1.31,-1.82,9.293,2.443,-0.0,2.874,7.52,-2.108,0.0,-1.294,10.066,-2.445,58.651,-23.46,-5.865
1.315,-1.916,9.245,2.491,-0.0,2.874,7.233,-2.156,0.0,-1.438,10.497,-2.445,41.056,-17.595,0.0
1.32,-1.916,8.862,2.635,-0.0,2.874,6.754,-2.347,0.0,-1.582,10.785,-2.588,29.326,-17.595,0.0
1.325,-1.868,8.622,2.97,-0.0,2.874,6.658,-2.73,0.0,-1.726,10.929,-2.588,5.865,-11.73,0.0
1.33,-1.916,8.574,3.257,-0.0,3.018,6.802,-2.97,0.0,-1.726,10.641,-2.732,-11.73,-11.73,0.0
1.335,-1.964,8.909,3.257,-0.0,3.114,7.808,-2.922,0.0,-1.582,10.354,-3.02,-29.326,-5.865,0.0
1.34,-2.06,9.58,2.826,-0.0,3.353,9.293,-2.395,0.0,-1.582,10.21,-3.307,-52.786,-5.865,0.0
1.345,-2.203,10.299,2.108,-0.0,3.401,10.682,-1.581,0.0,-1.726,10.066,-3.307,-70.381,0.0,0.0
1.35,-2.06,10.634,1.341,5.865,3.066,11.64,-0.766,5.865,-1.869,10.21,-2.876,-87.977,0.0,0.0
1.355,-1.772,10.49,0.671,11.73,2.635,11.975,-0.096,11.73,-2.157,10.21,-2.013,-93.842,5.865,0.0
1.36,-1.485,9.963,0.096,17.595,2.251,11.927,0.479,17.595,-2.301,9.922,-1.294,-99.707,5.865,-5.865
1.365,-1.293,9.197,-0.287,23.46,2.012,11.448,0.766,17.595,-2.157,9.347,-0.575,-87.977,5.865,-11.73
1.37,-1.198,8.43,-0.144,17.595,2.06,10.921,0.575,17.595,-1.869,8.34,-0.0,-76.246,0.0,-17.595
1.375,-1.102,7.904,0.144,11.73,2.156,10.299,0.287,17.595,-1.726,7.334,0.431,-52.786,0.0,-17.595
1.3800000000000001,-1.006,7.712,0.575,11.73,2.108,9.628,-0.24,5.865,-1.438,6.471,0.288,-29.326,-5.865,-17.595
1.385,-0.958,7.425,1.245,-0.0,2.108,8.718,-1.006,0.0,-1.15,5.896,-0.0,0.0,-11.73,-11.73
1.3900000000000001,-1.006,7.281,2.012,-5.865,2.251,7.856,-1.82,-11.73,-0.863,6.04,-0.431,29.326,-11.73,-5.865
1.395,-1.102,7.185,2.874,-17.595,2.347,6.898,-2.73,-23.46,-0.863,6.327,-1.007,52.786,-11.73,0.0
1.4000000000000001,-1.15,7.329,3.593,-29.326,2.443,6.227,-3.353,-35.191,-0.719,6.759,-1.869,76.246,-11.73,11.73
1.405,-1.341,7.52,3.88,-41.056,2.73,5.748,-3.593,-46.921,-0.719,7.334,-2.732,87.977,-11.73,23.46
1.41,-1.677,8.047,3.976,-46.921,2.922,5.652,-3.688,-52.786,-0.575,8.197,-3.595,93.842,-5.865,29.326
1.415,-1.677,8.862,4.024,-52.786,2.73,5.844,-3.736,-58.651,-0.719,8.916,-3.883,87.977,0.0,41.056
1.42,-1.724,9.628,3.976,-52.786,2.635,6.371,-3.688,-58.651,-1.15,10.066,-4.026,76.246,5.865,52.786
1.425,-1.82,10.49,3.832,-52.786,2.778,7.616,-3.545,-52.786,-1.294,11.36,-4.17,52.786,17.595,58.651
1.43,-1.868,11.64,3.545,-41.056,3.114,9.484,-3.209,-46.921,-1.582,12.511,-4.17,23.46,23.46,58.651
1.435,-1.964,12.885,3.018,-35.191,3.209,11.209,-2.635,-35.191,-1.726,13.086,-3.883,-11.73,23.46,52.786
1.44,-1.964,13.604,2.347,-23.46,3.018,12.31,-1.964,-17.595,-1.869,13.805,-3.595,-46.921,23.46,46.921
1.445,-1.868,13.699,1.772,-5.865,2.778,12.981,-1.389,-5.865,-2.013,14.524,-3.02,-76.246,29.326,35.191
1.45,-1.629,13.268,0.958,11.73,2.347,13.268,-0.527,11.73,-2.157,14.811,-2.301,-99.707,29.326,23.46
1.455,-1.293,12.31,0.192,23.46,1.916,13.173,0.287,23.46,-2.301,14.38,-1.726,-123.167,29.326,11.73
1.46,-1.054,10.969,-0.431,35.191,1.677,12.741,0.862,35.191,-2.157,13.373,-1.007,-134.897,23.46,-5.865
1.465,-0.766,9.772,-0.766,41.056,1.533,12.358,1.293,35.191,-2.013,11.648,-0.144,-134.897,17.595,-23.46
1.47,-0.527,8.718,-1.054,35.191,1.485,12.071,1.581,35.191,-1.726,9.635,0.575,-129.032,5.865,-35.191
1.475,-0.24,8.143,-1.054,29.326,1.485,11.927,1.533,29.326,-1.294,7.765,0.863,-111.437,-5.865,-35.191
1.48,-0.287,7.999,-0.671,23.46,1.677,11.496,1.054,17.595,-0.719,6.183,1.294,-87.977,-11.73,-35.191
1.485,-0.335,8.239,-0.048,5.865,1.868,11.161,0.383,5.865,-0.288,5.177,1.294,-52.786,-11.73,-29.326
1.49,-0.527,8.718,0.527,-5.865,2.251,10.921,-0.24,-11.73,-0.144,5.177,1.007,-11.73,-17.595,-17.595
1.495,-0.766,9.293,1.198,-17.595,2.491,10.586,-1.006,-17.595,0.0,5.896,0.288,29.326,-17.595,-5.865
1.5,-0.958,9.82,1.724,-23.46,2.395,10.011,-1.485,-29.326,-0.144,7.046,-0.288,64.516,-11.73,5.865
1.5050000000000001,-1.006,10.394,1.916,-29.326,2.299,9.532,-1.629,-35.191,-0.288,8.197,-1.007,93.842,-5.865,17.595
1.51,-1.198,10.969,1.868,-35.191,2.347,9.341,-1.581,-35.191,-0.575,9.635,-1.582,117.302,0.0,29.326
1.5150000000000001,-1.198,11.448,1.82,-35.191,2.156,9.436,-1.485,-35.191,-0.719,11.073,-1.869,123.167,5.865,29.326
1.52,-1.245,11.879,1.724,-29.326,2.108,9.58,-1.437,-35.191,-1.15,12.367,-1.869,123.167,5.865,35.191
1.5250000000000001,-1.341,12.119,1.724,-23.46,2.251,9.82,-1.437,-23.46,-1.15,13.23,-1.869,111.437,5.865,35.191
1.53,-1.389,12.262,1.82,-17.595,2.347,10.107,-1.485,-17.595,-1.438,13.805,-1.869,87.977,5.865,35.191
1.5350000000000001,-1.437,12.31,1.916,-11.73,2.491,10.442,-1.629,-5.865,-1.438,14.092,-1.869,64.516,5.865,29.326
1.54,-1.437,12.31,1.916,-0.0,2.682,10.825,-1.629,0.0,-1.438,14.236,-1.869,41.056,5.865,23.46
1.545,-1.485,12.31,2.012,11.73,2.826,11.257,-1.677,11.73,-1.438,13.949,-2.013,17.595,0.0,11.73
1.55,-1.533,12.31,2.06,17.595,2.874,11.496,-1.724,17.595,-1.438,13.661,-2.013,-5.865,0.0,0.0
1.555,-1.533,12.262,2.06,29.326,2.826,11.64,-1.677,29.326,-1.438,13.23,-2.013,-23.46,0.0,-5.865
1.56,-1.533,11.927,1.964,41.056,2.826,11.64,-1.533,35.191,-1.438,13.086,-2.013,-41.056,0.0,-17.595
1.565,-1.437,11.496,1.772,46.921,2.682,11.688,-1.389,46.921,-1.582,12.798,-2.013,-46.921,0.0,-23.46
1.57,-1.389,10.921,1.581,52.786,2.587,11.64,-1.15,46.921,-1.582,12.223,-2.013,-52.786,0.0,-35.191
1.575,-1.293,10.394,1.341,52.786,2.491,11.448,-0.814,52.786,-1.438,11.36,-1.869,-58.651,0.0,-41.056
1.58,-1.198,9.82,1.102,52.786,2.347,11.257,-0.623,52.786,-1.438,10.497,-1.582,-58.651,0.0,-46.921
1.585,-1.102,9.341,1.054,52.786,2.156,10.873,-0.575,52.786,-1.294,9.635,-1.294,-52.786,0.0,-52.786
1.59,-1.006,8.957,1.054,46.921,2.108,10.442,-0.623,46.921,-1.15,8.772,-1.15,-41.056,-5.865,-52.786
1.595,-1.054,8.67,1.245,41.056,2.156,9.963,-0.862,41.056,-1.15,8.197,-1.007,-23.46,-5.865,-52.786
1.6,-1.102,8.574,1.533,35.191,2.203,9.532,-1.198,35.191,-1.007,7.765,-1.007,-5.865,-5.865,-46.921
1.605,-1.245,8.766,1.868,29.326,2.443,9.293,-1.533,23.46,-1.007,7.621,-1.15,5.865,-5.865,-41.056
1.61,-1.533,9.005,2.108,17.595,2.73,9.149,-1.772,17.595,-1.007,7.909,-1.438,29.326,-5.865,-35.191
1.615,-1.629,9.293,2.299,11.73,2.874,9.053,-1.916,11.73,-1.15,8.484,-1.869,46.921,0.0,-23.46
1.62,-1.772,9.532,2.299,11.73,2.922,9.005,-1.916,5.865,-1.294,8.916,-2.013,52.786,0.0,-17.595
1.625,-1.82,9.772,2.251,5.865,2.922,9.101,-1.82,5.865,-1.438,9.491,-2.301,58.651,0.0,-11.73
1.6300000000000001,-1.868,10.059,2.06,11.73,2.922,9.293,-1.677,11.73,-1.582,9.922,-2.301,58.651,5.865,-5.865
1.635,-1.916,10.251,1.964,11.73,2.922,9.388,-1.485,11.73,-1.726,10.354,-2.157,58.651,5.865,-5.865
1.6400000000000001,-1.916,10.155,1.772,17.595,2.874,9.341,-1.389,17.595,-1.869,10.785,-2.157,52.786,5.865,-5.865
1.645,-1.868,9.963,1.724,23.46,2.826,9.245,-1.341,29.326,-2.013,10.929,-2.013,46.921,5.865,-11.73
1.6500000000000001,-1.772,9.676,1.724,29.326,2.778,9.149,-1.341,29.326,-2.013,10.929,-1.869,35.191,5.865,-17.595
1.655,-1.724,9.388,1.724,35.191,2.682,9.053,-1.293,35.191,-2.013,10.641,-1.726,29.326,5.865,-23.46
1.6600000000000001,-1.724,9.197,1.629,35.191,2.73,9.053,-1.198,35.191,-1.869,10.21,-1.726,23.46,5.865,-23.46
1.665,-1.677,9.053,1.581,35.191,2.682,9.101,-1.15,35.191,-1.726,9.778,-1.726,17.595,5.865,-35.191
1.67,-1.629,8.909,1.533,35.191,2.635,9.149,-1.054,35.191,-1.726,9.347,-1.582,5.865,5.865,-35.191
1.675,-1.629,8.862,1.389,35.191,2.587,9.149,-0.958,35.191,-1.726,9.203,-1.582,5.865,5.865,-35.191
1.68,-1.581,8.814,1.389,29.326,2.635,9.149,-0.958,29.326,-1.582,8.916,-1.438,5.865,5.865,-35.191
1.685,-1.629,8.766,1.389,29.326,2.587,9.053,-1.006,29.326,-1.726,8.772,-1.438,5.865,5.865,-35.191
1.69,-1.629,8.766,1.389,29.326,2.635,8.957,-0.958,29.326,-1.582,8.484,-1.294,17.595,5.865,-29.326
1.695,-1.629,8.766,1.389,23.46,2.587,8.814,-0.958,23.46,-1.582,8.484,-1.438,23.46,5.865,-23.46
1.7,-1.677,8.622,1.341,23.46,2.682,8.718,-0.91,17.595,-1.582,8.628,-1.438,29.326,5.865,-23.46
1.705,-1.724,8.574,1.341,17.595,2.778,8.67,-0.91,17.595,-1.582,8.772,-1.438,29.326,5.865,-23.46
1.71,-1.772,8.622,1.293,17.595,2.778,8.622,-0.91,17.595,-1.726,8.628,-1.294,35.191,5.865,-17.595
1.715,-1.82,8.766,1.293,11.73,2.826,8.574,-0.862,11.73,-1.726,8.484,-1.294,41.056,5.865,-17.595
1.72,-1.916,8.814,1.245,11.73,2.922,8.574,-0.814,11.73,-1.726,8.772,-1.294,41.056,5.865,-11.73
1.725,-2.012,8.862,1.15,11.73,2.97,8.622,-0.719,11.73,-1.726,8.916,-1.294,41.056,5.865,-11.73
1.73,-1.964,8.957,1.15,11.73,2.922,8.574,-0.719,11.73,-1.869,9.059,-1.15,41.056,5.865,-11.73
1.735,-1.964,8.909,1.102,17.595,2.826,8.478,-0.671,17.595,-2.013,9.203,-1.15,41.056,5.865,-11.73
1.74,-1.916,8.957,1.054,17.595,2.778,8.622,-0.623,17.595,-2.013,9.347,-1.15,41.056,5.865,-11.73
1.745,-1.916,9.197,1.006,17.595,2.874,9.005,-0.575,17.595,-2.013,9.347,-1.15,35.191,5.865,-17.595
1.75,-2.012,9.436,0.862,23.46,3.018,9.149,-0.383,23.46,-2.013,9.347,-1.007,35.191,5.865,-17.595
1.7550000000000001,-2.06,9.436,0.719,29.326,2.97,9.149,-0.335,29.326,-2.013,9.491,-1.007,29.326,5.865,-17.595
1.76,-2.012,9.197,0.719,35.191,2.874,8.909,-0.287,35.191,-2.157,9.635,-0.863,29.326,5.865,-23.46
1.7650000000000001,-1.916,9.005,0.671,41.056,2.826,8.814,-0.24,41.056,-2.157,9.635,-0.719,23.46,5.865,-23.46
1.77,-1.964,8.718,0.671,46.921,2.922,8.67,-0.24,46.921,-2.157,9.491,-0.719,23.46,5.865,-35.191
1.7750000000000001,-1.916,8.478,0.671,46.921,2.97,8.622,-0.287,52.786,-2.013,9.203,-0.719,23.46,0.0,-41.056
1.78,-1.964,8.335,0.719,52.786,3.114,8.574,-0.287,52.786,-2.013,8.772,-0.719,23.46,0.0,-41.056
1.7850000000000001,-2.108,8.143,0.671,58.651,3.257,8.383,-0.24,58.651,-1.869,8.34,-0.719,23.46,0.0,-46.921
1.79,-2.203,7.856,0.671,64.516,3.257,8.191,-0.24,70.381,-1.869,8.197,-0.719,23.46,0.0,-52.786
1.795,-2.06,7.377,0.766,70.381,3.066,7.616,-0.335,76.246,-2.013,7.909,-0.719,29.326,0.0,-58.651
1.8,-1.772,6.706,0.862,82.111,2.635,6.754,-0.479,82.111,-2.157,7.478,-0.575,29.326,0.0,-64.516
1.805,-1.437,5.652,1.15,87.977,1.964,5.413,-0.766,87.977,-2.013,7.046,-0.719,35.191,5.865,-70.381
1.81,-1.245,4.311,1.341,87.977,1.389,3.497,-0.91,87.977,-1.582,6.471,-0.863,41.056,5.865,-82.111
1.815,-1.198,2.395,1.293,87.977,0.862,1.006,-0.719,87.977,-1.438,5.608,-1.007,46.921,11.73,-87.977
1.82,-1.054,0.144,1.006,76.246,0.479,-1.437,-0.479,70.381,-1.294,4.745,-1.294,52.786,11.73,-87.977
1.825,-0.91,-2.012,0.814,58.651,0.24,-3.353,-0.24,52.786,-1.438,3.307,-1.294,52.786,11.73,-87.977
1.83,-0.719,-3.832,0.862,41.056,-0.048,-4.934,-0.24,29.326,-1.294,1.294,-1.007,46.921,11.73,-76.246
1.835,-0.575,-5.461,1.006,17.595,-0.335,-6.658,-0.431,5.865,-1.15,-1.007,-0.863,35.191,5.865,-58.651
1.84,-0.479,-6.802,1.054,-11.73,-0.479,-8.143,-0.527,-17.595,-0.719,-3.02,-0.863,29.326,5.865,-41.056
1.845,-0.287,-7.999,1.341,-41.056,-0.958,-9.58,-0.766,-52.786,-0.431,-4.458,-0.863,17.595,5.865,-11.73
1.85,0.048,-9.245,1.677,-70.381,-1.293,-11.257,-1.245,-82.111,-0.288,-5.752,-1.007,5.865,5.865,11.73
1.855,0.383,-10.778,2.299,-99.707,-1.389,-12.885,-1.82,-117.302,-0.144,-6.759,-1.294,-5.865,5.865,41.056
1.86,0.91,-11.879,3.114,-140.762,-1.964,-13.364,-2.778,-152.493,0.288,-7.621,-1.726,-17.595,5.865,70.381
1.865,1.868,-11.4,3.976,-175.953,-2.635,-12.406,-3.593,-193.548,1.007,-9.059,-2.157,-29.326,5.865,99.707
1.87,2.443,-10.203,4.455,-217.009,-3.066,-11.544,-4.119,-234.604,1.726,-10.354,-3.02,-46.921,11.73,140.762
1.875,3.257,-8.526,5.509,-258.064,-4.072,-8.239,-5.509,-281.525,2.876,-10.21,-3.883,-64.516,23.46,181.818
1.8800000000000001,4.598,-2.97,6.85,-304.985,-4.215,-0.623,-6.467,-322.581,3.595,-8.772,-4.314,-82.111,35.191,222.874
1.885,4.167,3.928,5.988,-334.311,0.623,12.31,-4.119,-346.041,4.17,-7.478,-5.321,-93.842,46.921,263.93
1.8900000000000001,-7.951,22.561,-16.526,-334.311,16.286,-19.4,15.28,-99.707,5.321,-3.307,-6.759,-111.437,64.516,310.85
1.895,-21.507,23.998,-10.586,-181.818,-20.98,23.854,6.993,58.651,5.033,3.307,-5.896,-111.437,70.381,340.176
1.9000000000000001,6.083,23.998,-8.622,-58.651,14.083,24.333,5.221,-17.595,22.433,35.95,22.001,-46.921,82.111,340.176
1.905,11.352,22.082,-6.946,17.595,7.568,24.333,5.94,35.191,-64.854,73.913,6.471,23.46,181.818,105.572
1.9100000000000001,2.491,7.999,-2.299,105.572,4.694,13.891,-0.144,117.302,4.458,38.826,13.517,-199.413,-129.032,-328.446
1.915,-2.491,2.682,6.179,152.493,4.646,2.251,-7.52,146.628,19.413,3.307,8.34,-422.287,-281.525,-181.818
1.92,-0.91,1.293,11.352,117.302,4.551,5.509,-11.64,93.842,8.628,-1.869,3.164,-328.446,-187.683,-123.167
1.925,-1.15,5.988,11.161,29.326,6.035,12.454,-9.963,0.0,-3.307,-0.144,-5.752,-181.818,-87.977,-152.493
1.93,-4.359,13.939,7.281,-64.516,8.047,17.675,-6.275,-87.977,1.438,-1.007,-11.073,-117.302,-46.921,-99.707
1.935,-4.694,18.202,5.413,-117.302,7.137,19.974,-5.077,-129.032,1.438,3.307,-11.36,-87.977,-11.73,5.865
1.94,-3.209,17.436,5.125,-117.302,5.94,18.585,-4.838,-117.302,-3.739,11.935,-7.621,-41.056,23.46,87.977
1.945,-2.587,14.897,4.934,-99.707,5.556,15.663,-4.646,-99.707,-5.752,16.249,-5.464,5.865,41.056,129.032
1.95,-2.587,12.837,4.982,-82.111,5.077,12.694,-4.694,-82.111,-4.17,15.387,-5.177,41.056,46.921,129.032
1.955,-3.161,12.598,5.844,-70.381,5.269,10.73,-5.556,-76.246,-3.595,12.798,-5.033,64.516,46.921,105.572
1.96,-2.826,10.778,5.7,-82.111,3.832,8.67,-5.221,-87.977,-4.026,11.792,-5.033,87.977,46.921,93.842
1.965,-3.066,10.155,4.742,-76.246,4.455,8.478,-4.024,-76.246,-3.595,13.373,-5.752,99.707,46.921,93.842
1.97,-2.97,9.915,3.401,-58.651,4.551,9.484,-2.682,-52.786,-3.451,11.792,-5.608,93.842,46.921,105.572
1.975,-2.443,9.915,2.108,-35.191,3.305,9.245,-1.485,-29.326,-3.883,11.073,-4.745,87.977,46.921,99.707
1.98,-1.293,10.011,1.006,-17.595,1.533,9.341,-0.335,-11.73,-3.164,10.21,-3.307,70.381,46.921,82.111
1.985,0.048,10.251,-0.048,-5.865,0.431,9.053,0.719,0.0,-2.588,10.497,-2.157,64.516,41.056,58.651
1.99,0.144,10.346,-0.766,-0.0,1.581,10.155,1.15,0.0,-2.013,11.073,-1.007,64.516,41.056,29.326
1.995,-0.431,10.921,-0.623,5.865,1.916,10.73,1.054,11.73,-1.007,11.36,-0.0,52.786,35.191,11.73
2.0,-0.144,11.113,-0.623,23.46,1.293,9.963,1.006,29.326,-0.288,11.073,0.863,46.921,29.326,0.0
2.005,0.335,10.059,-0.623,29.326,0.527,8.814,1.102,29.326,-0.863,10.929,0.719,41.056,23.46,-5.865
2.0100000000000002,0.814,9.101,-0.958,29.326,0.048,8.43,1.437,23.46,-0.575,11.935,0.719,35.191,23.46,-23.46
2.015,0.719,8.814,-1.15,23.46,0.24,8.335,1.629,17.595,-0.288,11.36,0.719,29.326,17.595,-35.191
2.02,0.527,8.957,-1.006,17.595,0.527,8.574,1.293,11.73,0.288,9.922,1.007,17.595,17.595,-23.46
2.025,0.24,9.149,-0.383,11.73,0.958,8.622,0.623,5.865,0.288,9.491,1.294,5.865,11.73,-17.595
2.0300000000000002,-0.048,9.197,0.192,5.865,1.389,8.67,0.144,5.865,0.0,9.491,1.007,0.0,5.865,-11.73
2.035,-0.192,8.957,0.431,5.865,1.485,8.718,-0.048,5.865,-0.288,9.778,0.431,-5.865,5.865,-11.73
2.04,-0.287,8.909,0.575,5.865,1.581,8.957,-0.192,0.0,-0.431,9.635,-0.144,-11.73,0.0,-5.865
2.045,-0.431,9.149,0.671,5.865,1.677,9.341,-0.287,5.865,-0.575,9.203,-0.431,-17.595,0.0,0.0
2.05,-0.575,9.388,0.862,5.865,1.868,9.58,-0.527,0.0,-0.575,9.059,-0.575,-23.46,0.0,0.0
2.055,-0.814,9.532,1.198,5.865,2.156,9.772,-0.91,5.865,-0.863,9.059,-0.719,-23.46,0.0,0.0
2.06,-0.862,9.484,1.581,5.865,2.251,9.676,-1.245,5.865,-1.007,9.347,-0.863,-23.46,0.0,0.0
2.065,-0.91,9.436,1.772,5.865,2.299,9.628,-1.389,5.865,-1.294,9.347,-1.15,-17.595,0.0,0.0
2.07,-0.766,9.484,1.868,5.865,2.108,9.724,-1.485,5.865,-1.15,9.347,-1.582,-17.595,0.0,0.0
2.075,-0.575,9.628,1.82,5.865,2.012,9.867,-1.389,11.73,-1.15,9.203,-1.726,-11.73,-5.865,-5.865
2.08,-0.575,9.772,1.724,5.865,2.06,9.915,-1.341,5.865,-1.15,9.347,-1.869,-5.865,-5.865,-5.865
2.085,-0.575,9.867,1.772,5.865,2.012,9.915,-1.389,5.865,-0.863,9.491,-1.869,-5.865,-5.865,-5.865
2.09,-0.527,9.867,1.868,5.865,2.012,9.82,-1.437,5.865,-0.863,9.635,-1.726,0.0,0.0,-5.865
2.095,-0.527,9.915,1.82,5.865,2.06,9.867,-1.437,5.865,-0.863,9.922,-1.726,0.0,0.0,-5.865
2.1,-0.431,9.915,1.82,5.865,1.964,9.82,-1.389,5.865,-0.863,9.922,-1.869,5.865,0.0,-5.865
2.105,-0.479,9.915,1.82,-0.0,1.964,9.724,-1.437,0.0,-0.863,10.066,-1.869,5.865,0.0,-5.865
2.11,-0.527,9.915,1.82,-0.0,2.012,9.676,-1.437,0.0,-0.719,10.066,-1.726,5.865,0.0,-5.865
2.115,-0.575,9.867,1.82,-0.0,2.108,9.676,-1.389,0.0,-0.863,10.066,-1.869,5.865,0.0,0.0
2.12,-0.575,9.82,1.772,-5.865,2.108,9.628,-1.389,-5.865,-0.863,10.21,-1.869,5.865,0.0,0.0
2.125,-0.671,9.772,1.82,-5.865,2.156,9.58,-1.437,-5.865,-0.863,10.066,-1.869,5.865,0.0,5.865
2.13,-0.719,9.724,1.82,-5.865,2.203,9.532,-1.437,-5.865,-0.863,9.922,-1.726,5.865,0.0,5.865
2.1350000000000002,-0.766,9.676,1.82,-5.865,2.203,9.532,-1.389,-5.865,-1.007,9.922,-1.726,0.0,0.0,5.865
2.14,-0.814,9.628,1.724,-5.865,2.203,9.436,-1.293,0.0,-1.007,9.922,-1.869,0.0,0.0,5.865
2.145,-0.814,9.58,1.677,-0.0,2.156,9.341,-1.245,0.0,-1.15,9.778,-1.726,0.0,0.0,5.865
2.15,-0.766,9.484,1.581,-0.0,2.108,9.293,-1.198,0.0,-1.15,9.778,-1.726,0.0,0.0,5.865
2.1550000000000002,-0.671,9.436,1.533,-0.0,2.012,9.245,-1.102,0.0,-1.15,9.778,-1.582,0.0,5.865,5.865
2.16,-0.575,9.484,1.581,5.865,1.964,9.388,-1.198,0.0,-1.15,9.635,-1.582,0.0,5.865,0.0
2.165,-0.527,9.676,1.724,-0.0,1.964,9.676,-1.341,5.865,-1.007,9.635,-1.582,0.0,0.0,0.0
2.17,-0.671,9.772,1.724,5.865,2.203,9.82,-1.341,5.865,-1.007,9.635,-1.582,0.0,0.0,0.0
2.1750000000000003,-0.671,9.82,1.772,5.865,2.251,9.915,-1.389,5.865,-0.863,9.635,-1.726,0.0,0.0,0.0
2.18,-0.719,9.915,1.868,5.865,2.251,9.963,-1.485,5.865,-1.007,9.778,-1.726,0.0,0.0,-5.865
2.185,-0.719,9.915,1.868,5.865,2.251,9.82,-1.485,5.865,-0.863,9.778,-1.726,0.0,0.0,-5.865
2.19,-0.623,9.915,1.868,5.865,2.156,9.867,-1.485,5.865,-1.007,9.922,-1.869,0.0,0.0,0.0
2.195,-0.623,9.915,1.82,5.865,2.108,9.915,-1.389,5.865,-1.007,9.922,-1.869,5.865,5.865,0.0
2.2,-0.671,9.963,1.772,5.865,2.108,9.867,-1.389,5.865,-1.007,9.922,-1.869,5.865,5.865,-5.865
2.205,-0.527,9.963,1.82,5.865,2.06,9.963,-1.389,5.865,-1.007,9.922,-1.869,5.865,5.865,-5.865
2.21,-0.575,9.915,1.82,5.865,2.156,9.915,-1.437,5.865,-1.007,9.922,-1.726,5.865,5.865,-5.865
2.215,-0.719,9.915,1.772,-0.0,2.251,9.915,-1.389,0.0,-0.863,10.066,-1.726,5.865,5.865,-5.865
2.22,-0.719,9.963,1.772,-0.0,2.299,9.867,-1.341,5.865,-0.863,9.922,-1.869,5.865,5.865,0.0
2.225,-0.719,9.915,1.724,5.865,2.203,9.772,-1.341,0.0,-1.007,9.922,-1.726,5.865,5.865,0.0
2.23,-0.671,9.867,1.629,5.865,2.108,9.628,-1.198,0.0,-1.007,10.066,-1.726,5.865,5.865,0.0
2.235,-0.671,9.772,1.485,-0.0,1.964,9.532,-1.006,0.0,-1.007,10.066,-1.726,5.865,5.865,0.0
2.24,-0.575,9.724,1.341,-0.0,1.964,9.532,-0.91,0.0,-1.007,10.066,-1.582,5.865,11.73,0.0
2.245,-0.623,9.772,1.341,-0.0,2.06,9.58,-0.91,0.0,-1.007,10.066,-1.438,5.865,11.73,0.0
2.25,-0.671,9.772,1.341,-0.0,2.108,9.58,-0.862,0.0,-1.007,9.922,-1.294,5.865,5.865,0.0
2.255,-0.719,9.772,1.293,-0.0,2.108,9.484,-0.862,0.0,-1.007,9.922,-1.294,5.865,5.865,0.0
2.2600000000000002,-0.671,9.676,1.293,-0.0,2.012,9.436,-0.862,0.0,-1.007,9.922,-1.294,5.865,5.865,0.0
2.265,-0.623,9.58,1.198,-0.0,1.964,9.341,-0.766,0.0,-1.15,9.922,-1.294,5.865,5.865,0.0
2.27,-0.575,9.532,1.198,-0.0,1.916,9.341,-0.766,0.0,-1.007,9.922,-1.294,5.865,5.865,0.0
2.275,-0.575,9.628,1.198,-0.0,1.916,9.436,-0.766,0.0,-1.007,9.778,-1.15,5.865,5.865,0.0
2.2800000000000002,-0.623,9.628,1.245,-0.0,1.964,9.436,-0.814,0.0,-1.007,9.778,-1.15,0.0,5.865,0.0
2.285,-0.623,9.58,1.293,-0.0,1.964,9.436,-0.862,0.0,-1.007,9.778,-1.15,0.0,5.865,0.0
2.29,-0.623,9.532,1.293,-0.0,1.964,9.388,-0.91,0.0,-1.007,9.778,-1.15,0.0,5.865,0.0
2.295,-0.623,9.484,1.293,-0.0,1.916,9.293,-0.91,0.0,-1.007,9.635,-1.294,0.0,5.865,0.0
2.3000000000000003,-0.575,9.436,1.293,-0.0,1.916,9.245,-0.91,0.0,-1.007,9.635,-1.294,0.0,5.865,0.0
2.305,-0.575,9.436,1.389,5.865,1.916,9.293,-0.958,0.0,-1.007,9.635,-1.294,0.0,5.865,0.0
2.31,-0.575,9.484,1.389,-0.0,1.964,9.388,-0.958,5.865,-1.007,9.635,-1.294,0.0,0.0,0.0
2.315,-0.527,9.58,1.389,5.865,2.012,9.436,-1.006,5.865,-0.863,9.635,-1.294,0.0,0.0,0.0
2.32,-0.479,9.676,1.437,5.865,1.964,9.532,-1.006,0.0,-0.863,9.635,-1.438,-5.865,0.0,0.0
2.325,-0.479,9.724,1.389,5.865,1.964,9.58,-1.006,5.865,-0.863,9.635,-1.438,-5.865,0.0,0.0
2.33,-0.431,9.724,1.341,5.865,1.964,9.628,-0.958,5.865,-0.719,9.778,-1.438,-5.865,0.0,0.0
2.335,-0.479,9.772,1.389,5.865,1.964,9.724,-0.958,5.865,-0.719,9.778,-1.438,-5.865,0.0,0.0
2.34,-0.479,9.963,1.341,5.865,2.012,9.915,-0.958,5.865,-0.719,9.778,-1.294,-5.865,5.865,0.0
2.345,-0.479,10.107,1.341,5.865,2.06,10.059,-0.958,5.865,-0.719,9.922,-1.294,-5.865,5.865,0.0
2.35,-0.575,10.203,1.341,5.865,2.108,10.059,-0.91,5.865,-0.719,10.066,-1.294,-5.865,5.865,0.0
2.355,-0.623,10.251,1.245,5.865,2.06,10.059,-0.814,5.865,-0.863,10.21,-1.294,-5.865,5.865,0.0
2.36,-0.671,10.299,1.198,5.865,2.012,10.059,-0.814,5.865,-0.863,10.354,-1.294,-5.865,5.865,0.0
2.365,-0.719,10.586,1.341,11.73,1.964,10.155,-0.862,5.865,-1.007,10.354,-1.294,-5.865,5.865,0.0
2.37,-0.719,10.73,1.15,11.73,2.108,10.49,-0.719,11.73,-1.15,10.497,-1.15,-5.865,5.865,-5.865
2.375,-0.766,10.873,1.102,11.73,2.06,10.538,-0.719,17.595,-1.438,11.073,-1.438,-5.865,5.865,-5.865
2.38,-0.814,10.969,1.102,17.595,2.06,10.538,-0.719,17.595,-1.15,11.073,-1.15,-11.73,5.865,-11.73
2.3850000000000002,-0.814,10.969,1.245,23.46,1.964,10.49,-0.862,23.46,-1.438,11.073,-1.007,-17.595,0.0,-11.73
2.39,-0.671,10.921,1.389,29.326,1.916,10.346,-1.054,29.326,-1.438,11.36,-1.15,-17.595,0.0,-17.595
2.395,-0.766,10.73,1.533,35.191,2.108,10.155,-1.15,35.191,-1.438,11.36,-1.15,-23.46,-5.865,-23.46
2.4,-0.91,10.586,1.629,41.056,2.203,10.059,-1.293,41.056,-1.438,11.36,-1.294,-23.46,-5.865,-29.326
2.4050000000000002,-0.862,10.49,1.724,46.921,2.156,10.011,-1.341,46.921,-1.438,11.216,-1.438,-29.326,-11.73,-35.191
2.41,-0.862,10.394,1.677,52.786,2.108,9.963,-1.293,52.786,-1.438,11.073,-1.582,-35.191,-17.595,-41.056
2.415,-0.862,10.155,1.629,52.786,2.108,9.867,-1.245,52.786,-1.438,10.929,-1.726,-41.056,-17.595,-46.921
2.42,-0.91,9.772,1.629,58.651,2.156,9.676,-1.245,52.786,-1.438,10.785,-1.582,-41.056,-23.46,-46.921
2.4250000000000003,-1.054,9.388,1.293,58.651,2.347,9.915,-0.958,52.786,-1.438,10.354,-1.582,-46.921,-23.46,-52.786
2.43,-0.91,9.149,1.341,58.651,2.347,9.915,-0.91,52.786,-1.438,9.922,-1.582,-46.921,-29.326,-52.786
2.435,-0.958,8.909,1.341,52.786,2.443,9.82,-0.958,52.786,-1.582,8.916,-1.294,-46.921,-29.326,-58.651
2.44,-0.958,8.622,1.533,52.786,2.443,9.58,-1.198,46.921,-1.294,8.484,-1.294,-41.056,-29.326,-58.651
2.445,-1.006,8.383,1.772,46.921,2.539,9.341,-1.437,46.921,-1.294,8.053,-1.294,-35.191,-29.326,-52.786
2.45,-0.958,8.239,1.916,41.056,2.635,9.005,-1.533,41.056,-1.15,7.765,-1.438,-23.46,-29.326,-46.921
2.455,-0.91,8.095,2.06,35.191,2.539,8.67,-1.724,29.326,-1.15,7.621,-1.726,-11.73,-29.326,-46.921
2.46,-0.862,8.047,2.203,29.326,2.347,8.335,-1.82,23.46,-1.007,7.478,-1.869,0.0,-29.326,-41.056
2.465,-0.862,8.047,2.299,23.46,2.251,8.095,-1.916,17.595,-0.863,7.478,-2.013,5.865,-23.46,-35.191
2.47,-0.862,7.999,2.395,11.73,2.299,7.904,-1.964,11.73,-1.007,7.765,-2.157,23.46,-23.46,-23.46
2.475,-0.862,7.999,2.395,5.865,2.443,7.904,-1.964,0.0,-1.007,7.909,-2.301,35.191,-17.595,-17.595
2.48,-0.958,8.143,2.299,-0.0,2.587,7.999,-1.868,-5.865,-1.007,8.053,-2.301,41.056,-17.595,-11.73
2.485,-1.006,8.383,2.203,-5.865,2.539,8.191,-1.772,-11.73,-0.863,8.053,-2.445,41.056,-11.73,-5.865
2.49,-0.958,8.622,2.108,-11.73,2.443,8.191,-1.724,-17.595,-0.863,8.197,-2.301,41.056,-5.865,5.865
2.495,-1.006,8.67,2.203,-17.595,2.251,7.904,-1.868,-17.595,-1.007,8.628,-2.157,41.056,-5.865,11.73
2.5,-0.958,8.622,2.443,-17.595,2.251,7.52,-2.06,-23.46,-1.007,8.916,-2.013,41.056,0.0,11.73
2.505,-1.102,8.478,2.587,-23.46,2.491,7.233,-2.203,-23.46,-1.294,9.203,-2.157,41.056,5.865,17.595
2.5100000000000002,-1.293,8.239,2.73,-29.326,2.73,6.993,-2.299,-29.326,-1.294,9.491,-2.445,35.191,5.865,23.46
2.515,-1.341,8.095,2.73,-29.326,2.682,6.754,-2.299,-35.191,-1.294,9.347,-2.588,23.46,5.865,23.46
2.52,-1.245,8.287,2.682,-35.191,2.443,6.946,-2.299,-35.191,-1.294,9.203,-2.732,5.865,5.865,29.326
2.525,-1.102,8.814,2.682,-35.191,2.251,7.856,-2.299,-35.191,-1.438,9.203,-2.732,5.865,11.73,35.191
2.5300000000000002,-1.006,9.867,2.635,-35.191,2.395,9.388,-2.156,-35.191,-1.438,9.347,-2.732,-5.865,17.595,35.191
2.535,-1.198,11.209,2.108,-29.326,2.682,10.778,-1.581,-35.191,-1.438,9.778,-2.732,-23.46,17.595,35.191
2.54,-1.485,12.215,1.437,-23.46,2.778,11.736,-0.91,-23.46,-1.294,10.497,-2.588,-35.191,17.595,35.191
2.545,-1.437,12.694,0.91,-11.73,2.587,12.31,-0.479,-11.73,-1.726,11.648,-2.157,-41.056,23.46,35.191
2.5500000000000003,-1.293,12.598,0.623,-0.0,2.395,12.31,-0.192,0.0,-2.301,12.654,-1.438,-52.786,17.595,29.326
2.555,-1.102,12.023,0.527,11.73,2.156,11.879,-0.144,17.595,-2.445,12.942,-1.007,-52.786,17.595,17.595
2.56,-0.91,11.257,0.479,29.326,1.82,11.209,-0.144,29.326,-2.301,12.654,-0.575,-58.651,5.865,0.0
2.565,-0.623,10.538,0.575,35.191,1.533,10.73,-0.24,35.191,-2.157,11.935,-0.575,-64.516,0.0,-11.73
2.57,-0.383,9.82,0.862,35.191,1.581,10.394,-0.575,35.191,-1.869,11.216,-0.431,-64.516,-5.865,-23.46
2.575,-0.24,9.053,1.389,35.191,1.677,9.772,-1.198,35.191,-1.582,10.354,-0.575,-64.516,-17.595,-35.191
2.58,-0.287,8.335,2.156,29.326,2.06,9.293,-1.964,23.46,-1.15,9.347,-0.863,-58.651,-23.46,-35.191
2.585,-0.527,7.904,2.826,17.595,2.539,8.862,-2.587,17.595,-0.719,8.484,-1.438,-52.786,-29.326,-35.191
2.59,-0.719,7.808,3.305,5.865,2.922,8.526,-3.018,0.0,-0.288,7.621,-2.157,-41.056,-29.326,-29.326
2.595,-1.054,7.904,3.593,-5.865,3.161,8.287,-3.209,-11.73,-0.288,7.046,-2.732,-29.326,-29.326,-17.595
2.6,-1.293,8.191,3.593,-23.46,3.305,8.383,-3.209,-23.46,-0.288,7.19,-3.307,-17.595,-23.46,-5.865
2.605,-1.389,8.574,3.497,-29.326,3.209,8.478,-3.066,-35.191,-0.575,7.478,-3.595,-5.865,-17.595,11.73
2.61,-1.389,9.149,3.401,-35.191,3.114,8.67,-2.97,-41.056,-1.007,7.909,-3.595,5.865,-5.865,23.46
2.615,-1.389,9.82,3.401,-41.056,3.066,9.053,-3.018,-41.056,-1.15,8.484,-3.451,5.865,5.865,35.191
2.62,-1.485,10.634,3.305,-41.056,3.114,9.676,-2.874,-41.056,-1.438,9.491,-3.307,5.865,11.73,41.056
2.625,-1.629,11.448,3.066,-35.191,3.305,10.394,-2.635,-41.056,-1.438,10.354,-3.307,5.865,17.595,41.056
2.63,-1.772,12.023,2.826,-29.326,3.401,10.873,-2.443,-29.326,-1.726,11.36,-3.307,5.865,23.46,41.056
2.6350000000000002,-1.82,12.167,2.682,-17.595,3.401,11.065,-2.251,-17.595,-2.013,12.223,-3.02,-5.865,23.46,41.056
2.64,-1.677,11.975,2.539,-5.865,3.209,10.969,-2.108,0.0,-2.301,12.798,-2.876,-17.595,23.46,29.326
2.645,-1.533,11.592,2.251,11.73,2.778,10.73,-1.772,11.73,-2.301,12.942,-2.732,-23.46,23.46,23.46
2.65,-1.293,11.113,1.772,23.46,2.299,10.538,-1.293,23.46,-2.301,12.511,-2.588,-35.191,23.46,5.865
2.6550000000000002,-1.054,10.49,1.341,29.326,2.012,10.49,-0.91,29.326,-2.157,12.079,-2.301,-46.921,23.46,-5.865
2.66,-0.91,9.82,1.198,35.191,2.108,10.49,-0.766,35.191,-2.157,11.504,-1.869,-52.786,17.595,-17.595
2.665,-0.766,9.053,1.15,35.191,2.203,10.394,-0.719,35.191,-1.869,10.497,-1.438,-58.651,17.595,-23.46
2.67,-0.671,8.383,1.245,35.191,2.156,9.963,-0.862,29.326,-1.582,9.347,-1.15,-58.651,5.865,-35.191
2.6750000000000003,-0.527,7.712,1.581,29.326,2.156,9.293,-1.341,23.46,-1.15,8.053,-1.15,-52.786,0.0,-35.191
2.68,-0.575,7.281,2.108,17.595,2.203,8.574,-1.82,17.595,-0.863,7.046,-1.294,-41.056,0.0,-35.191
2.685,-0.719,7.137,2.491,5.865,2.347,8.143,-2.156,0.0,-0.575,6.327,-1.582,-17.595,0.0,-23.46
2.69,-0.958,7.281,2.682,-5.865,2.587,8.095,-2.347,-11.73,-0.575,6.04,-2.157,0.0,0.0,-17.595
2.695,-1.102,7.664,2.778,-17.595,2.682,8.143,-2.395,-23.46,-0.719,6.327,-2.445,23.46,5.865,-5.865
2.7,-1.15,8.239,2.682,-29.326,2.635,8.287,-2.299,-35.191,-0.863,6.615,-2.732,35.191,11.73,5.865
2.705,-1.198,8.862,2.778,-35.191,2.635,8.526,-2.443,-35.191,-1.007,7.19,-2.732,46.921,17.595,23.46
2.71,-1.245,9.58,2.922,-41.056,2.73,8.862,-2.587,-41.056,-1.294,8.197,-2.732,58.651,23.46,29.326
2.715,-1.341,10.251,2.97,-41.056,2.874,9.388,-2.635,-41.056,-1.438,9.203,-2.732,64.516,29.326,41.056
2.72,-1.437,10.921,2.97,-35.191,3.018,9.963,-2.587,-35.191,-1.582,10.066,-2.876,64.516,29.326,41.056
2.725,-1.485,11.448,2.874,-29.326,3.066,10.346,-2.491,-29.326,-1.582,10.929,-2.876,58.651,29.326,41.056
2.73,-1.485,11.783,2.874,-17.595,2.97,10.586,-2.491,-17.595,-1.726,11.792,-3.02,52.786,29.326,35.191
2.735,-1.389,11.831,2.826,-11.73,2.922,10.682,-2.395,-5.865,-2.013,12.367,-2.876,41.056,29.326,29.326
2.74,-1.341,11.736,2.635,-0.0,2.778,10.682,-2.203,0.0,-2.013,12.654,-2.876,29.326,29.326,23.46
2.745,-1.198,11.496,2.443,11.73,2.491,10.634,-2.012,11.73,-1.869,12.654,-2.876,17.595,29.326,11.73
2.75,-1.006,11.209,2.251,17.595,2.395,10.634,-1.82,17.595,-1.869,12.511,-2.732,5.865,29.326,0.0
2.755,-0.862,10.921,2.012,23.46,2.251,10.634,-1.581,23.46,-1.869,12.223,-2.445,-5.865,29.326,-5.865
2.7600000000000002,-0.766,10.682,1.82,29.326,2.108,10.634,-1.389,29.326,-1.582,11.648,-2.301,-11.73,23.46,-17.595
2.765,-0.671,10.442,1.677,29.326,2.06,10.682,-1.245,29.326,-1.438,11.216,-2.013,-17.595,23.46,-23.46
2.77,-0.623,10.203,1.677,29.326,2.06,10.73,-1.245,29.326,-1.294,10.785,-1.869,-23.46,17.595,-23.46
2.775,-0.623,10.011,1.677,29.326,2.156,10.682,-1.293,29.326,-1.15,10.21,-1.726,-23.46,17.595,-29.326
2.7800000000000002,-0.719,9.867,1.772,23.46,2.347,10.634,-1.389,23.46,-1.15,9.922,-1.582,-17.595,17.595,-23.46
2.785,-0.814,9.82,1.82,17.595,2.443,10.586,-1.485,17.595,-1.007,9.491,-1.726,-17.595,17.595,-23.46
2.79,-0.862,9.915,1.916,11.73,2.539,10.538,-1.533,11.73,-1.007,9.203,-1.726,-5.865,17.595,-23.46
2.795,-0.91,10.155,1.964,11.73,2.587,10.586,-1.629,11.73,-1.007,9.203,-1.869,0.0,17.595,-17.595
2.8000000000000003,-1.006,10.442,1.964,5.865,2.587,10.634,-1.581,5.865,-1.15,9.347,-1.869,5.865,17.595,-11.73
2.805,-1.102,10.778,1.916,5.865,2.682,10.778,-1.533,5.865,-1.15,9.778,-2.013,23.46,17.595,-5.865
2.81,-1.15,11.017,1.916,5.865,2.682,10.969,-1.581,5.865,-1.438,10.354,-2.013,29.326,17.595,-5.865
2.815,-1.198,11.304,1.964,5.865,2.778,11.017,-1.629,5.865,-1.582,10.785,-1.869,35.191,17.595,-5.865
2.82,-1.245,11.4,2.06,11.73,2.778,10.969,-1.677,11.73,-1.582,11.073,-1.869,41.056,17.595,-5.865
2.825,-1.293,11.4,2.156,11.73,2.778,10.921,-1.82,11.73,-1.726,11.36,-2.013,41.056,17.595,-5.865
2.83,-1.293,11.352,2.251,17.595,2.826,10.825,-1.868,17.595,-1.726,11.648,-2.013,41.056,17.595,-5.865
2.835,-1.293,11.161,2.299,23.46,2.826,10.682,-1.964,23.46,-1.869,11.792,-2.157,35.191,17.595,-11.73
2.84,-1.245,10.921,2.395,23.46,2.73,10.49,-2.012,23.46,-1.726,11.648,-2.157,35.191,17.595,-11.73
2.845,-1.198,10.73,2.491,29.326,2.635,10.394,-2.108,29.326,-1.726,11.504,-2.301,29.326,11.73,-17.595
2.85,-1.15,10.538,2.491,29.326,2.73,10.299,-2.156,29.326,-1.726,11.216,-2.445,29.326,11.73,-23.46
2.855,-1.198,10.299,2.539,35.191,2.682,10.155,-2.108,29.326,-1.726,10.929,-2.445,23.46,11.73,-23.46
2.86,-1.245,10.107,2.443,29.326,2.73,10.059,-2.012,29.326,-1.582,10.641,-2.588,23.46,11.73,-29.326
2.865,-1.293,9.963,2.395,29.326,2.73,9.963,-2.012,29.326,-1.582,10.354,-2.588,23.46,5.865,-29.326
2.87,-1.293,9.867,2.395,29.326,2.73,9.867,-2.012,29.326,-1.726,10.066,-2.445,23.46,5.865,-29.326
2.875,-1.389,9.772,2.395,29.326,2.826,9.82,-2.012,29.326,-1.726,9.922,-2.445,23.46,5.865,-29.326
2.88,-1.437,9.724,2.395,29.326,2.874,9.772,-2.06,29.326,-1.726,9.778,-2.445,23.46,5.865,-29.326
2.8850000000000002,-1.485,9.676,2.443,29.326,2.922,9.772,-2.012,23.46,-1.869,9.635,-2.445,29.326,5.865,-23.46
2.89,-1.629,9.628,2.395,23.46,3.114,9.724,-2.012,23.46,-1.726,9.635,-2.445,29.326,5.865,-23.46
2.895,-1.677,9.676,2.443,23.46,3.161,9.82,-2.108,23.46,-1.869,9.491,-2.445,29.326,5.865,-23.46
2.9,-1.677,9.724,2.539,23.46,3.209,9.772,-2.156,23.46,-2.013,9.491,-2.445,35.191,5.865,-23.46
2.9050000000000002,-1.724,9.724,2.587,23.46,3.209,9.676,-2.203,23.46,-2.013,9.491,-2.445,41.056,5.865,-17.595
2.91,-1.724,9.676,2.587,23.46,3.209,9.484,-2.203,23.46,-2.013,9.491,-2.588,41.056,5.865,-23.46
2.915,-1.724,9.58,2.635,23.46,3.161,9.388,-2.299,23.46,-2.013,9.635,-2.588,46.921,5.865,-23.46
2.92,-1.724,9.532,2.73,23.46,3.114,9.293,-2.395,23.46,-2.157,9.635,-2.588,46.921,5.865,-17.595
2.9250000000000003,-1.724,9.532,2.778,23.46,3.161,9.197,-2.395,23.46,-2.157,9.635,-2.732,52.786,5.865,-17.595
2.93,-1.82,9.484,2.73,23.46,3.161,9.053,-2.347,23.46,-2.157,9.635,-2.732,52.786,5.865,-17.595
2.935,-1.82,9.388,2.73,23.46,3.114,8.862,-2.395,23.46,-2.157,9.635,-2.732,52.786,11.73,-17.595
2.94,-1.772,9.245,2.778,23.46,3.066,8.67,-2.395,23.46,-2.157,9.778,-2.732,52.786,5.865,-17.595
2.945,-1.82,9.053,2.778,23.46,3.066,8.43,-2.347,23.46,-2.157,9.635,-2.732,46.921,11.73,-23.46
2.95,-1.82,8.862,2.682,23.46,2.97,8.239,-2.251,23.46,-2.157,9.491,-2.732,46.921,11.73,-23.46
2.955,-1.772,8.67,2.587,29.326,2.97,8.143,-2.203,23.46,-2.157,9.347,-2.732,46.921,5.865,-23.46
2.96,-1.82,8.622,2.539,29.326,3.018,8.143,-2.108,23.46,-2.157,9.203,-2.732,41.056,5.865,-23.46
2.965,-1.82,8.574,2.491,23.46,3.018,8.191,-2.06,23.46,-2.157,9.059,-2.588,35.191,5.865,-23.46
2.97,-1.82,8.526,2.443,23.46,3.018,8.143,-2.012,23.46,-2.157,8.916,-2.588,35.191,5.865,-23.46
2.975,-1.868,8.335,2.395,23.46,2.97,8.047,-1.964,23.46,-2.301,8.772,-2.445,29.326,5.865,-23.46
2.98,-1.772,8.143,2.347,23.46,2.874,7.808,-1.916,23.46,-2.301,8.628,-2.445,29.326,5.865,-23.46
2.985,-1.772,7.856,2.299,23.46,2.826,7.712,-1.868,17.595,-2.301,8.484,-2.445,29.326,5.865,-17.595
2.99,-1.772,7.76,2.203,17.595,2.874,7.76,-1.772,17.595,-2.157,8.197,-2.301,23.46,5.865,-17.595
2.995,-1.868,7.76,2.156,11.73,3.018,7.808,-1.677,11.73,-2.157,7.909,-2.301,29.326,0.0,-17.595
3.0,-1.868,7.76,2.156,11.73,2.922,7.856,-1.772,11.73,-2.157,7.765,-2.301,23.46,0.0,-17.595
3.005,-1.868,7.856,2.251,5.865,2.97,7.951,-1.82,5.865,-2.157,7.621,-2.157,29.326,0.0,-11.73
3.0100000000000002,-1.916,7.999,2.251,5.865,3.114,7.999,-1.82,5.865,-2.301,7.621,-2.157,29.326,0.0,-11.73
3.015,-2.012,8.095,2.203,5.865,3.161,8.047,-1.82,5.865,-2.301,7.765,-2.157,29.326,0.0,-5.865
3.02,-2.012,8.191,2.203,-0.0,3.114,7.999,-1.772,0.0,-2.301,7.909,-2.301,35.191,0.0,-5.865
3.025,-1.964,8.239,2.156,-0.0,3.018,8.047,-1.772,0.0,-2.301,8.053,-2.157,41.056,0.0,0.0
3.0300000000000002,-1.916,8.335,2.156,5.865,3.018,8.047,-1.724,5.865,-2.445,8.197,-2.157,41.056,0.0,0.0
3.035,-1.916,8.383,2.06,5.865,3.018,8.047,-1.677,5.865,-2.445,8.34,-2.157,41.056,0.0,0.0
3.04,-1.916,8.43,2.06,5.865,2.922,8.047,-1.581,5.865,-2.301,8.34,-2.157,41.056,-5.865,0.0
3.045,-1.868,8.478,1.964,11.73,2.874,8.047,-1.533,11.73,-2.445,8.484,-2.013,41.056,-5.865,0.0
3.0500000000000003,-1.82,8.478,1.964,11.73,2.778,7.999,-1.533,11.73,-2.301,8.628,-2.013,41.056,-5.865,-5.865
3.055,-1.772,8.383,1.916,17.595,2.682,7.904,-1.485,17.595,-2.445,8.628,-2.013,41.056,-5.865,-5.865
3.06,-1.724,8.335,1.868,23.46,2.587,7.856,-1.437,23.46,-2.301,8.628,-2.013,35.191,-11.73,-11.73
3.065,-1.677,8.143,1.82,29.326,2.491,7.616,-1.341,29.326,-2.301,8.628,-1.869,35.191,-11.73,-17.595
3.0700000000000003,-1.581,7.808,1.772,35.191,2.347,7.233,-1.389,35.191,-2.301,8.484,-1.869,35.191,-17.595,-23.46
3.075,-1.533,7.329,1.772,41.056,2.251,6.658,-1.389,41.056,-2.301,8.34,-1.869,29.326,-17.595,-23.46
3.08,-1.437,6.562,1.964,46.921,2.108,5.796,-1.629,46.921,-2.157,8.053,-1.726,29.326,-23.46,-35.191
3.085,-1.341,5.461,2.347,52.786,1.916,4.503,-2.012,52.786,-2.013,7.621,-1.869,23.46,-23.46,-41.056
3.09,-1.389,4.167,2.635,58.651,1.916,3.114,-2.251,52.786,-1.869,6.902,-2.013,23.46,-29.326,-46.921
3.095,-1.485,2.635,2.826,58.651,1.82,1.389,-2.347,52.786,-1.726,5.896,-2.301,17.595,-29.326,-52.786
3.1,-1.485,0.814,2.922,52.786,1.629,-0.671,-2.443,46.921,-1.582,4.745,-2.588,5.865,-35.191,-52.786
3.105,-1.533,-1.389,2.97,46.921,1.245,-3.066,-2.491,41.056,-1.582,3.307,-2.732,5.865,-35.191,-52.786
3.11,-1.245,-3.64,3.066,35.191,0.671,-5.365,-2.539,29.326,-1.438,1.582,-2.876,0.0,-35.191,-52.786
3.115,-0.91,-5.796,3.209,23.46,0.0,-7.52,-2.682,11.73,-1.438,-0.431,-3.02,-5.865,-35.191,-46.921
3.12,-0.431,-7.951,3.449,-0.0,-0.814,-9.676,-2.922,-5.865,-1.007,-2.588,-3.02,-17.595,-29.326,-35.191
3.125,-0.096,-9.772,3.593,-29.326,-0.814,-11.257,-2.97,-41.056,-0.431,-4.745,-3.164,-23.46,-29.326,-17.595
3.13,-0.527,-11.209,3.449,-64.516,-0.335,-12.215,-2.826,-76.246,0.0,-6.759,-3.307,-41.056,-23.46,0.0
3.1350000000000002,-0.144,-12.167,3.736,-99.707,-0.862,-12.215,-3.305,-111.437,0.719,-8.628,-3.451,-52.786,-23.46,29.326
3.14,1.054,-11.496,4.407,-140.762,-2.06,-10.634,-3.928,-152.493,0.575,-10.354,-3.307,-64.516,-17.595,64.516
3.145,1.677,-9.053,4.551,-175.953,-2.539,-8.191,-3.976,-193.548,1.15,-11.792,-3.595,-70.381,-5.865,99.707
3.15,1.82,-6.275,4.503,-211.144,-2.682,-5.748,-4.119,-228.739,2.301,-11.648,-4.314,-76.246,5.865,140.762
3.1550000000000002,2.443,-3.497,5.365,-246.334,-2.826,-2.251,-5.317,-263.93,2.588,-9.203,-4.458,-76.246,23.46,175.953
3.16,3.066,0.575,6.61,-275.66,-2.395,2.682,-6.467,-287.39,2.301,-6.04,-4.458,-70.381,35.191,217.009
3.165,14.849,19.687,-2.251,-287.39,19.687,23.663,10.107,-275.66,2.732,-3.451,-5.321,-70.381,41.056,252.199
3.17,-11.448,23.998,-18.202,-199.413,-15.855,18.01,16.382,111.437,3.451,-0.144,-6.615,-70.381,46.921,281.525
3.1750000000000003,-4.742,23.998,-11.352,217.009,2.06,24.285,7.999,82.111,0.144,-18.694,-3.739,-58.651,52.786,293.255
3.18,8.67,16.621,-2.108,287.39,1.629,24.333,-1.533,46.921,-10.21,72.188,24.158,158.358,46.921,217.009
3.185,10.011,5.221,1.198,164.223,6.658,12.885,-0.958,105.572,-41.846,74.057,10.21,-46.921,70.381,-211.144
3.19,-3.114,-3.209,5.365,164.223,5.7,-1.341,-6.802,158.358,20.42,14.811,5.321,-316.715,-281.525,-299.12
3.1950000000000003,-3.114,-1.198,11.448,140.762,5.221,1.533,-11.927,117.302,21.714,-9.347,-0.288,-351.906,-269.795,-158.358
3.2,-0.479,4.455,12.167,52.786,4.359,10.682,-11.161,23.46,-0.431,-6.327,-4.889,-187.683,-164.223,-164.223
3.205,-2.012,13.268,8.43,-46.921,5.988,17.627,-7.041,-70.381,-0.863,-1.726,-11.073,-93.842,-93.842,-140.762
3.21,-4.646,17.579,5.173,-105.572,6.658,19.687,-4.598,-111.437,1.438,1.007,-12.223,-58.651,-52.786,-52.786
3.215,-4.742,17.723,4.742,-105.572,5.796,18.154,-4.598,-105.572,-1.007,10.066,-8.628,-23.46,-17.595,46.921
3.22,-2.874,15.759,5.988,-93.842,4.646,16.382,-5.748,-93.842,-5.896,15.387,-5.321,23.46,5.865,105.572
3.225,-3.353,13.747,5.844,-87.977,5.269,13.699,-5.509,-87.977,-6.327,16.393,-4.889,52.786,5.865,111.437
3.23,-3.449,12.167,5.892,-87.977,3.545,11.304,-5.7,-87.977,-3.739,14.811,-6.04,76.246,0.0,99.707
3.235,-3.353,10.73,5.796,-76.246,4.886,8.622,-5.509,-70.381,-4.026,12.942,-5.896,87.977,-5.865,87.977
3.24,-4.167,10.394,6.754,-52.786,5.556,8.814,-6.754,-46.921,-4.17,12.079,-5.896,99.707,-11.73,87.977
3.245,-3.688,9.963,7.137,-35.191,5.077,7.999,-6.754,-35.191,-4.602,11.504,-5.896,105.572,-17.595,76.246
3.25,-2.922,9.149,6.419,-29.326,4.024,7.472,-5.7,-29.326,-4.314,11.216,-6.615,99.707,-23.46,52.786
3.255,-2.299,8.718,4.694,-23.46,3.736,8.67,-3.88,-17.595,-3.883,11.216,-7.19,87.977,-23.46,35.191
3.2600000000000002,-1.964,8.814,3.257,-5.865,3.353,9.436,-2.682,0.0,-3.164,10.354,-6.471,70.381,-23.46,29.326
3.265,-1.054,9.005,2.347,5.865,1.916,9.149,-1.772,5.865,-2.445,8.916,-4.745,58.651,-23.46,23.46
3.27,-0.91,8.957,2.06,11.73,1.629,8.574,-1.677,5.865,-2.013,8.053,-3.307,46.921,-17.595,11.73
3.275,-0.766,8.814,1.772,-0.0,1.724,8.622,-1.341,0.0,-1.869,8.916,-2.445,52.786,-17.595,-5.865
3.2800000000000002,-0.623,8.718,1.533,-5.865,1.581,8.67,-1.15,-5.865,-1.438,9.347,-2.013,58.651,-17.595,-5.865
3.285,-0.719,9.005,1.341,-0.0,1.677,8.526,-0.91,-5.865,-1.438,9.059,-1.869,52.786,-17.595,0.0
3.29,-0.431,9.341,1.102,-5.865,1.293,8.67,-0.671,-5.865,-1.007,8.772,-1.582,52.786,-23.46,5.865
3.295,-0.24,9.388,0.814,-11.73,1.15,8.718,-0.383,-11.73,-1.15,9.347,-1.294,52.786,-23.46,5.865
3.3000000000000003,0.0,9.245,0.766,-11.73,1.006,8.718,-0.335,-17.595,-1.007,10.066,-1.007,52.786,-23.46,5.865
3.305,-0.048,9.197,0.814,-17.595,1.102,8.718,-0.479,-17.595,-0.719,10.066,-0.863,46.921,-23.46,11.73
3.31,-0.048,9.197,1.15,-17.595,1.102,8.718,-0.862,-23.46,-0.431,9.778,-0.719,41.056,-29.326,17.595
3.315,-0.144,9.341,1.533,-23.46,1.245,8.957,-1.245,-23.46,-0.431,9.778,-0.863,35.191,-29.326,17.595
3.3200000000000003,-0.431,9.484,1.82,-23.46,1.581,9.341,-1.533,-29.326,-0.431,9.778,-1.15,29.326,-29.326,17.595
3.325,-0.575,9.58,2.156,-23.46,1.772,9.532,-1.868,-23.46,-0.575,9.778,-1.438,23.46,-35.191,23.46
3.33,-0.671,9.532,2.491,-23.46,1.724,9.484,-2.203,-23.46,-0.863,9.778,-1.869,17.595,-35.191,23.46
3.335,-0.671,9.436,2.682,-17.595,1.629,9.532,-2.347,-17.595,-1.007,9.635,-2.157,5.865,-35.191,23.46
3.34,-0.623,9.388,2.826,-11.73,1.724,9.724,-2.539,-17.595,-1.15,9.491,-2.445,5.865,-35.191,23.46
3.345,-0.719,9.484,3.161,-11.73,1.916,9.915,-2.922,-11.73,-1.15,9.491,-2.732,5.865,-35.191,17.595
3.35,-0.814,9.724,3.497,-5.865,2.06,10.011,-3.209,-5.865,-1.15,9.203,-2.876,5.865,-41.056,17.595
3.355,-0.91,10.059,3.688,-5.865,2.203,10.203,-3.353,-5.865,-1.15,9.203,-3.164,17.595,-41.056,11.73
3.36,-0.814,10.299,3.784,-0.0,2.108,10.394,-3.449,0.0,-1.15,9.491,-3.451,23.46,-46.921,5.865
3.365,-0.766,10.49,3.736,5.865,2.06,10.442,-3.401,5.865,-1.294,9.922,-3.739,29.326,-46.921,5.865
3.37,-0.671,10.442,3.593,11.73,1.868,10.346,-3.209,5.865,-1.294,10.21,-3.739,29.326,-46.921,0.0
3.375,-0.383,10.346,3.353,11.73,1.581,10.251,-2.97,11.73,-1.15,10.497,-3.739,29.326,-46.921,-5.865
3.38,-0.24,10.251,3.161,11.73,1.437,10.155,-2.826,11.73,-1.15,10.497,-3.595,35.191,-46.921,-5.865
3.3850000000000002,-0.144,10.251,3.161,5.865,1.389,10.107,-2.826,5.865,-0.863,10.497,-3.307,35.191,-46.921,-11.73
3.39,-0.096,10.203,3.161,5.865,1.245,10.011,-2.826,5.865,-0.719,10.497,-3.164,35.191,-52.786,-11.73
3.395,-0.096,10.107,3.209,5.865,1.437,9.963,-2.922,0.0,-0.575,10.497,-3.164,35.191,-52.786,-5.865
3.4,-0.144,10.011,3.305,-0.0,1.581,9.963,-2.97,-5.865,-0.575,10.497,-3.164,29.326,-52.786,-5.865
3.4050000000000002,-0.287,10.107,3.401,-5.865,1.82,10.059,-3.066,-5.865,-0.288,10.354,-3.307,29.326,-52.786,0.0
3.41,-0.431,10.155,3.305,-5.865,1.964,10.155,-2.922,-11.73,-0.431,10.21,-3.307,29.326,-52.786,0.0
3.415,-0.383,10.299,3.305,-5.865,1.916,10.442,-2.97,-11.73,-0.431,10.21,-3.451,29.326,-52.786,5.865
3.42,-0.431,10.394,3.305,-5.865,1.868,10.394,-2.97,-5.865,-0.719,10.21,-3.307,29.326,-52.786,5.865
3.4250000000000003,-0.383,10.394,3.257,-0.0,1.724,10.299,-2.874,-5.865,-0.575,10.21,-3.307,29.326,-46.921,11.73
3.43,-0.24,10.394,3.066,-0.0,1.533,10.299,-2.682,0.0,-0.719,10.354,-3.307,35.191,-46.921,5.865
3.435,-0.192,10.442,3.018,-0.0,1.533,10.299,-2.635,0.0,-0.863,10.497,-3.307,35.191,-46.921,5.865
3.44,-0.144,10.49,2.97,-0.0,1.485,10.155,-2.587,0.0,-0.719,10.497,-3.02,35.191,-46.921,5.865
3.4450000000000003,-0.192,10.394,2.635,5.865,1.389,10.011,-2.203,5.865,-0.575,10.497,-3.02,35.191,-46.921,0.0
3.45,0.048,10.299,2.491,5.865,1.102,9.82,-2.108,5.865,-0.431,10.785,-3.02,35.191,-46.921,0.0
3.455,0.192,10.107,2.299,11.73,0.862,9.532,-1.916,11.73,-0.719,10.785,-2.588,29.326,-46.921,0.0
3.46,0.24,9.915,2.108,11.73,0.814,9.245,-1.677,11.73,-0.431,10.785,-2.445,29.326,-46.921,-5.865
3.465,0.24,9.724,1.868,11.73,0.766,9.101,-1.437,17.595,-0.288,10.641,-2.301,29.326,-46.921,-5.865
3.47,0.335,9.58,1.724,17.595,0.671,8.814,-1.293,17.595,-0.288,10.497,-2.157,17.595,-46.921,-11.73
3.475,0.431,9.436,1.485,23.46,0.479,8.622,-1.054,17.595,-0.144,10.354,-1.869,5.865,-52.786,-11.73
3.48,0.431,9.341,1.198,23.46,0.335,8.526,-0.766,17.595,0.0,10.21,-1.726,5.865,-52.786,-17.595
3.485,0.479,9.388,0.958,23.46,0.383,8.814,-0.383,23.46,0.0,10.21,-1.438,0.0,-52.786,-17.595
3.49,0.479,9.532,0.144,29.326,0.383,9.388,0.335,23.46,-0.144,10.21,-1.15,-5.865,-58.651,-23.46
3.495,0.575,9.436,-0.335,29.326,0.0,9.341,0.766,29.326,-0.144,10.066,-1.007,-17.595,-58.651,-23.46
3.5,0.766,9.436,-0.671,35.191,-0.144,9.341,1.15,29.326,-0.144,9.778,-0.144,-23.46,-64.516,-23.46
3.505,0.766,9.245,-0.958,35.191,-0.144,9.245,1.341,35.191,-0.144,9.778,0.431,-29.326,-64.516,-23.46
3.5100000000000002,0.814,9.053,-1.006,35.191,-0.192,9.245,1.341,35.191,0.0,9.635,0.719,-29.326,-70.381,-29.326
3.515,0.862,8.862,-0.958,41.056,-0.192,9.101,1.293,35.191,0.0,9.347,1.007,-29.326,-76.246,-35.191
3.52,0.91,8.622,-0.814,41.056,-0.192,8.909,1.054,35.191,0.144,9.059,1.15,-29.326,-82.111,-35.191
3.525,0.862,8.478,-0.575,41.056,-0.048,8.766,0.862,41.056,0.288,8.772,1.15,-29.326,-87.977,-41.056
3.5300000000000002,0.814,8.383,-0.335,41.056,0.096,8.67,0.575,41.056,0.288,8.484,0.863,-29.326,-93.842,-41.056
3.535,0.671,8.383,-0.048,41.056,0.287,8.622,0.335,35.191,0.431,8.484,0.719,-23.46,-99.707,-41.056
3.54,0.527,8.574,0.144,35.191,0.527,8.718,0.144,29.326,0.431,8.34,0.431,-23.46,-105.572,-41.056
3.545,0.287,8.862,0.287,29.326,0.766,8.862,0.048,29.326,0.288,8.34,0.144,-17.595,-105.572,-41.056
3.5500000000000003,0.048,9.101,0.335,29.326,0.91,8.957,-0.048,29.326,0.288,8.628,-0.0,-17.595,-105.572,-35.191
3.555,-0.048,9.197,0.431,29.326,0.862,8.862,-0.096,29.326,-0.144,8.916,-0.144,-11.73,-111.437,-35.191
3.56,-0.096,9.149,0.479,29.326,0.958,8.814,-0.192,29.326,-0.431,9.347,-0.288,-11.73,-111.437,-23.46
3.565,-0.144,9.197,0.575,29.326,1.15,8.909,-0.287,23.46,-0.575,9.491,-0.288,-11.73,-111.437,-23.46
3.5700000000000003,-0.287,9.149,0.719,23.46,1.389,8.957,-0.431,23.46,-0.719,9.635,-0.288,-17.595,-117.302,-23.46
3.575,-0.383,9.053,0.814,23.46,1.533,8.957,-0.527,23.46,-0.575,9.491,-0.431,-17.595,-117.302,-23.46
3.58,-0.479,9.053,0.862,23.46,1.677,8.957,-0.575,17.595,-0.719,9.347,-0.575,-23.46,-123.167,-23.46
3.585,-0.527,9.053,0.862,23.46,1.772,9.101,-0.575,17.595,-0.719,9.203,-0.719,-23.46,-123.167,-23.46
3.59,-0.575,9.149,0.814,23.46,1.916,9.197,-0.479,11.73,-0.863,9.203,-0.719,-23.46,-123.167,-23.46
3.595,-0.719,9.245,0.671,17.595,2.012,9.293,-0.335,11.73,-0.863,9.203,-0.719,-23.46,-123.167,-17.595
3.6,-0.814,9.293,0.527,11.73,2.156,9.388,-0.192,11.73,-0.863,9.203,-0.719,-23.46,-123.167,-17.595
3.605,-0.91,9.341,0.383,11.73,2.251,9.388,-0.048,11.73,-1.007,9.203,-0.575,-23.46,-123.167,-11.73
3.61,-1.054,9.341,0.335,11.73,2.299,9.245,0.048,5.865,-1.007,9.203,-0.431,-23.46,-123.167,-11.73
3.615,-1.15,9.293,0.192,5.865,2.347,9.197,0.144,5.865,-1.15,9.347,-0.288,-17.595,-123.167,-11.73
3.62,-1.198,9.197,0.192,5.865,2.395,9.101,0.144,5.865,-1.294,9.347,-0.144,-17.595,-117.302,-11.73
3.625,-1.245,9.245,0.192,5.865,2.395,9.245,0.096,0.0,-1.438,9.347,-0.144,-17.595,-117.302,-5.865
3.63,-1.245,9.341,0.192,-0.0,2.491,9.436,0.144,0.0,-1.582,9.347,-0.144,-17.595,-117.302,-5.865
3.6350000000000002,-1.389,9.484,0.24,-0.0,2.73,9.724,0.096,-5.865,-1.582,9.347,-0.144,-17.595,-117.302,-5.865
3.64,-1.485,9.676,0.287,-0.0,2.874,9.915,0.0,-5.865,-1.582,9.347,-0.144,-17.595,-117.302,0.0
3.645,-1.533,9.82,0.431,-0.0,2.874,9.963,-0.192,-5.865,-1.726,9.347,-0.144,-17.595,-117.302,0.0
3.65,-1.485,9.867,0.575,-0.0,2.826,9.963,-0.287,0.0,-1.869,9.491,-0.144,-11.73,-117.302,5.865
3.6550000000000002,-1.533,9.82,0.575,-0.0,2.778,9.82,-0.287,-5.865,-1.869,9.635,-0.288,-5.865,-117.302,0.0
3.66,-1.533,9.724,0.671,-0.0,2.826,9.82,-0.335,-5.865,-1.869,9.778,-0.431,-5.865,-117.302,0.0
3.665,-1.533,9.676,0.719,-5.865,2.874,9.772,-0.431,-5.865,-1.869,9.778,-0.431,0.0,-117.302,5.865
3.67,-1.533,9.628,0.814,-5.865,2.874,9.82,-0.527,-5.865,-1.869,9.635,-0.575,0.0,-117.302,5.865
3.6750000000000003,-1.485,9.628,0.91,-5.865,2.778,9.867,-0.575,-5.865,-1.869,9.635,-0.575,0.0,-117.302,5.865
3.68,-1.437,9.676,0.958,-5.865,2.73,9.915,-0.623,-5.865,-1.869,9.491,-0.719,5.865,-117.302,5.865
3.685,-1.389,9.628,1.006,-5.865,2.73,9.82,-0.719,-5.865,-1.726,9.491,-0.719,5.865,-117.302,5.865
3.69,-1.341,9.436,1.102,-5.865,2.73,9.628,-0.862,-5.865,-1.726,9.491,-0.863,5.865,-111.437,5.865
3.6950000000000003,-1.245,9.149,1.293,-5.865,2.587,9.293,-1.006,-11.73,-1.726,9.347,-0.863,17.595,-111.437,5.865
3.7,-1.15,8.862,1.389,-5.865,2.539,9.053,-1.054,-11.73,-1.582,9.203,-1.007,23.46,-111.437,5.865
3.705,-1.054,8.622,1.389,-11.73,2.491,8.957,-1.054,-11.73,-1.438,9.059,-1.15,23.46,-111.437,5.865
3.71,-0.91,8.478,1.389,-11.73,2.395,8.957,-1.006,-17.595,-1.294,8.628,-1.294,29.326,-111.437,11.73
3.715,-0.814,8.43,1.293,-17.595,2.251,8.909,-0.91,-17.595,-1.15,8.34,-1.294,29.326,-105.572,11.73
3.72,-0.671,8.478,1.245,-17.595,2.06,9.005,-0.91,-23.46,-0.863,8.053,-1.294,35.191,-105.572,11.73
3.725,-0.527,8.718,1.245,-23.46,1.916,9.101,-0.91,-29.326,-0.863,8.053,-1.15,41.056,-99.707,17.595
3.73,-0.479,8.909,1.293,-29.326,1.772,9.149,-1.006,-35.191,-0.719,8.053,-1.15,52.786,-93.842,23.46
3.735,-0.287,9.197,1.437,-29.326,1.581,9.388,-1.102,-35.191,-0.719,8.484,-1.15,58.651,-93.842,23.46
3.74,-0.192,9.58,1.581,-35.191,1.533,9.772,-1.245,-41.056,-0.719,8.772,-1.15,64.516,-87.977,29.326
3.745,-0.144,9.963,1.581,-35.191,1.677,10.155,-1.293,-41.056,-0.575,9.203,-1.294,64.516,-87.977,35.191
3.75,-0.096,10.299,1.677,-41.056,1.724,10.49,-1.389,-41.056,-0.431,9.491,-1.438,70.381,-82.111,35.191
3.755,-0.048,10.49,1.82,-35.191,1.677,10.586,-1.581,-41.056,-0.288,9.922,-1.438,70.381,-82.111,35.191
3.7600000000000002,0.048,10.538,2.06,-35.191,1.533,10.299,-1.772,-35.191,-0.288,10.21,-1.582,70.381,-82.111,41.056
3.765,0.192,10.442,2.203,-29.326,1.293,10.011,-1.868,-35.191,-0.144,10.497,-1.726,70.381,-82.111,35.191
3.77,0.431,10.299,2.203,-29.326,1.054,9.82,-1.868,-29.326,-0.144,10.785,-2.013,76.246,-76.246,35.191
3.775,0.575,10.107,2.06,-23.46,0.91,9.628,-1.677,-29.326,0.0,10.929,-2.013,70.381,-76.246,35.191
3.7800000000000002,0.671,9.867,1.868,-23.46,0.719,9.388,-1.437,-29.326,0.288,10.785,-2.157,70.381,-70.381,29.326
3.785,0.91,9.628,1.581,-23.46,0.383,9.197,-1.15,-23.46,0.575,10.641,-2.013,64.516,-70.381,29.326
3.79,1.006,9.532,1.293,-23.46,0.192,9.053,-0.862,-23.46,0.575,10.354,-1.726,64.516,-64.516,29.326
3.795,1.245,9.484,1.054,-23.46,-0.048,9.149,-0.623,-23.46,0.863,10.21,-1.438,52.786,-64.516,23.46
3.8000000000000003,1.389,9.436,0.814,-23.46,-0.192,9.341,-0.383,-23.46,0.863,10.066,-1.294,52.786,-58.651,23.46
3.805,1.533,9.484,0.527,-17.595,-0.383,9.484,-0.144,-23.46,1.007,9.922,-1.007,46.921,-58.651,23.46
3.81,1.677,9.58,0.383,-17.595,-0.575,9.628,0.048,-23.46,1.15,9.778,-0.719,41.056,-58.651,23.46
3.815,1.868,9.676,0.287,-17.595,-0.862,9.82,0.144,-23.46,1.294,9.635,-0.431,41.056,-58.651,23.46
3.8200000000000003,1.916,9.867,0.144,-23.46,-0.766,10.107,0.287,-23.46,1.438,9.922,-0.288,35.191,-58.651,23.46
3.825,1.916,10.011,0.0,-17.595,-0.766,10.346,0.383,-23.46,1.438,9.922,-0.144,35.191,-58.651,23.46
3.83,1.964,10.107,-0.048,-17.595,-0.862,10.442,0.383,-17.595,1.582,10.066,-0.144,35.191,-58.651,23.46
3.835,2.108,10.155,-0.048,-17.595,-1.006,10.49,0.383,-17.595,1.582,10.066,0.144,35.191,-64.516,23.46
3.84,2.156,10.155,-0.048,-11.73,-1.102,10.586,0.431,-11.73,1.582,10.066,0.144,35.191,-64.516,17.595
3.845,2.203,10.155,-0.144,-11.73,-1.102,10.538,0.479,-11.73,1.726,10.21,0.144,41.056,-64.516,17.595
3.85,2.347,10.107,-0.096,-11.73,-1.245,10.442,0.383,-11.73,1.726,10.21,0.144,41.056,-64.516,11.73
3.855,2.443,10.059,0.0,-11.73,-1.293,10.346,0.287,-11.73,1.869,10.21,0.144,41.056,-70.381,11.73
3.86,2.443,9.963,0.144,-5.865,-1.245,10.155,0.144,-11.73,2.013,10.066,0.144,41.056,-70.381,11.73
3.865,2.395,9.915,0.335,-5.865,-1.245,9.963,0.0,-11.73,2.157,10.066,0.144,46.921,-70.381,11.73
3.87,2.395,9.915,0.479,-5.865,-1.293,9.82,-0.192,-5.865,2.157,10.066,-0.0,46.921,-70.381,11.73
3.875,2.395,9.963,0.575,-5.865,-1.293,9.676,-0.287,-5.865,2.157,10.21,-0.288,52.786,-70.381,5.865
3.88,2.395,9.915,0.719,-5.865,-1.341,9.532,-0.383,-5.865,2.157,10.354,-0.431,52.786,-70.381,11.73
3.8850000000000002,2.299,9.915,0.766,-0.0,-1.245,9.436,-0.431,0.0,2.157,10.497,-0.575,46.921,-76.246,5.865
3.89,2.299,9.867,0.814,-0.0,-1.245,9.341,-0.527,0.0,2.157,10.641,-0.575,46.921,-76.246,5.865
3.895,2.299,9.772,0.958,5.865,-1.198,9.197,-0.575,5.865,2.013,10.641,-0.719,41.056,-76.246,0.0
3.9,2.203,9.628,0.958,5.865,-1.198,9.005,-0.575,5.865,2.013,10.641,-0.719,35.191,-76.246,0.0
3.9050000000000002,2.156,9.484,0.91,11.73,-1.15,8.909,-0.575,11.73,2.013,10.497,-0.863,23.46,-76.246,0.0
3.91,2.108,9.436,1.006,11.73,-1.054,8.909,-0.671,11.73,2.013,10.497,-0.863,17.595,-76.246,-5.865
3.915,2.108,9.388,1.054,17.595,-1.054,9.005,-0.719,17.595,1.869,10.354,-0.863,5.865,-82.111,-11.73
3.92,2.108,9.436,1.15,23.46,-1.006,9.005,-0.862,23.46,1.869,10.21,-0.863,0.0,-82.111,-11.73
3.9250000000000003,2.156,9.388,1.341,29.326,-1.006,9.005,-1.054,23.46,1.869,10.066,-1.007,-5.865,-82.111,-17.595
3.93,2.108,9.293,1.533,29.326,-0.958,9.053,-1.245,29.326,1.869,10.066,-1.007,-11.73,-82.111,-23.46
3.935,2.108,9.197,1.581,29.326,-0.91,8.957,-1.245,29.326,1.869,9.922,-1.294,-17.595,-82.111,-23.46
3.94,2.06,9.053,1.581,35.191,-0.91,8.814,-1.293,29.326,2.013,9.778,-1.438,-23.46,-82.111,-23.46
3.9450000000000003,2.108,8.909,1.629,35.191,-1.006,8.67,-1.245,35.191,2.013,9.635,-1.438,-29.326,-82.111,-29.326
3.95,2.156,8.718,1.581,35.191,-1.15,8.622,-1.245,35.191,2.013,9.491,-1.582,-29.326,-82.111,-35.191
3.955,2.251,8.478,1.533,41.056,-1.293,8.478,-1.102,35.191,1.869,9.347,-1.582,-35.191,-82.111,-35.191
3.96,2.347,8.239,1.293,35.191,-1.485,8.335,-0.862,35.191,2.013,9.059,-1.582,-41.056,-82.111,-35.191
3.9650000000000003,2.395,8.047,1.054,35.191,-1.677,8.191,-0.623,35.191,2.157,8.772,-1.438,-41.056,-82.111,-35.191
3.97,2.491,7.808,0.862,35.191,-1.82,7.999,-0.479,35.191,2.157,8.484,-1.294,-41.056,-82.111,-35.191
3.975,2.539,7.616,0.766,35.191,-1.868,7.904,-0.431,29.326,2.157,8.197,-1.007,-41.056,-82.111,-35.191
3.98,2.443,7.568,0.719,29.326,-1.724,7.808,-0.383,29.326,2.157,8.053,-0.863,-41.056,-82.111,-35.191
3.985,2.299,7.568,0.719,29.326,-1.629,7.76,-0.335,23.46,2.157,7.765,-0.719,-41.056,-87.977,-35.191
3.99,2.251,7.712,0.719,29.326,-1.581,7.808,-0.383,23.46,2.157,7.621,-0.719,-41.056,-87.977,-29.326
3.995,2.108,7.856,0.766,29.326,-1.341,7.951,-0.431,23.46,2.013,7.765,-0.575,-41.056,-87.977,-23.46
4.0,1.964,8.047,0.862,23.46,-1.15,8.191,-0.527,23.46,1.869,7.909,-0.719,-35.191,-93.842,-23.46
4.005,1.82,8.335,1.006,23.46,-0.958,8.43,-0.671,23.46,1.726,8.053,-0.719,-41.056,-93.842,-23.46
4.01,1.629,8.574,1.15,23.46,-0.766,8.622,-0.862,23.46,1.582,8.34,-0.719,-41.056,-99.707,-23.46
4.015,1.533,8.814,1.341,23.46,-0.575,8.67,-1.102,23.46,1.438,8.484,-0.863,-41.056,-105.572,-23.46
4.0200000000000005,1.389,8.909,1.533,29.326,-0.335,8.766,-1.245,23.46,1.294,8.772,-1.007,-41.056,-105.572,-23.46
4.025,1.198,8.909,1.677,29.326,-0.048,8.814,-1.389,29.326,1.15,9.059,-1.294,-41.056,-105.572,-23.46
4.03,1.15,8.909,1.724,35.191,0.048,8.766,-1.437,29.326,1.15,9.203,-1.438,-41.056,-111.437,-23.46
4.035,1.102,8.862,1.772,35.191,0.096,8.67,-1.533,35.191,1.007,9.203,-1.582,-41.056,-111.437,-29.326
4.04,1.054,8.814,1.868,35.191,0.144,8.622,-1.581,35.191,1.007,9.203,-1.582,-46.921,-111.437,-35.191
4.045,1.054,8.766,1.916,41.056,0.192,8.574,-1.629,35.191,1.007,9.203,-1.726,-46.921,-111.437,-35.191
4.05,1.054,8.67,1.868,41.056,0.24,8.622,-1.533,35.191,1.007,9.059,-1.726,-46.921,-111.437,-35.191
4.055,1.054,8.574,1.629,41.056,0.096,8.574,-1.245,41.056,1.007,9.059,-1.726,-52.786,-111.437,-41.056
4.0600000000000005,1.102,8.335,1.198,41.056,-0.287,8.383,-0.766,41.056,1.007,8.916,-1.726,-52.786,-105.572,-41.056
4.065,1.293,8.047,0.671,46.921,-0.862,8.191,-0.192,41.056,1.007,8.772,-1.582,-52.786,-105.572,-41.056
4.07,1.533,7.808,0.144,46.921,-1.245,8.047,0.287,41.056,0.863,8.484,-1.15,-52.786,-105.572,-41.056
4.075,1.629,7.616,-0.24,46.921,-1.293,8.095,0.623,41.056,0.719,8.197,-0.575,-52.786,-105.572,-41.056
4.08,1.677,7.52,-0.431,41.056,-1.198,8.191,0.719,35.191,0.863,7.909,-0.144,-52.786,-105.572,-46.921
4.085,1.724,7.616,-0.287,41.056,-1.102,8.43,0.479,35.191,1.007,7.621,0.288,-52.786,-111.437,-46.921
4.09,1.724,7.76,0.192,41.056,-0.91,8.574,0.0,35.191,1.007,7.334,0.575,-46.921,-123.167,-41.056
4.095,1.772,8.047,0.671,35.191,-0.766,8.622,-0.527,35.191,1.15,7.19,0.431,-41.056,-129.032,-41.056
4.1,1.581,8.287,1.15,35.191,-0.431,8.67,-0.958,35.191,1.294,7.334,-0.144,-35.191,-129.032,-35.191
4.105,1.437,8.526,1.485,35.191,-0.048,8.862,-1.293,35.191,1.582,7.765,-0.575,-29.326,-134.897,-35.191
4.11,1.341,8.766,1.724,35.191,0.24,9.053,-1.437,29.326,1.438,8.197,-1.007,-23.46,-134.897,-35.191
4.115,1.198,9.101,1.724,35.191,0.383,9.436,-1.389,29.326,1.438,8.484,-1.294,-17.595,-140.762,-35.191
4.12,1.102,9.436,1.581,29.326,0.479,9.82,-1.245,29.326,1.438,8.772,-1.582,-11.73,-134.897,-35.191
4.125,1.054,9.724,1.245,29.326,0.479,10.107,-0.91,29.326,1.294,9.059,-1.582,-11.73,-129.032,-35.191
4.13,1.15,10.107,1.006,29.326,0.383,10.586,-0.623,23.46,1.15,9.347,-1.438,-5.865,-129.032,-29.326
4.135,1.102,10.442,0.766,29.326,0.479,10.921,-0.431,23.46,1.15,9.635,-1.15,-5.865,-123.167,-29.326
4.14,1.006,10.73,0.671,29.326,0.479,11.304,-0.335,23.46,1.15,10.066,-0.863,0.0,-117.302,-23.46
4.1450000000000005,1.006,11.113,0.527,29.326,0.527,11.64,-0.192,23.46,1.007,10.21,-0.719,0.0,-117.302,-23.46
4.15,0.862,11.352,0.287,29.326,0.671,11.831,0.048,29.326,0.863,10.497,-0.575,5.865,-111.437,-23.46
4.155,0.814,11.544,0.096,29.326,0.623,11.927,0.287,29.326,0.863,10.929,-0.431,5.865,-111.437,-23.46
4.16,0.862,11.496,-0.192,29.326,0.24,11.927,0.527,29.326,0.575,11.073,-0.144,17.595,-111.437,-23.46
4.165,1.006,11.448,-0.479,35.191,0.0,11.783,0.862,35.191,0.431,11.36,-0.0,23.46,-111.437,-23.46
4.17,1.102,11.304,-0.814,41.056,-0.192,11.592,1.15,35.191,0.288,11.36,0.288,29.326,-111.437,-29.326
4.175,1.15,11.161,-1.006,41.056,-0.431,11.496,1.245,35.191,0.431,11.36,0.575,29.326,-111.437,-35.191
4.18,1.677,12.119,-1.15,41.056,-0.335,12.646,1.293,35.191,0.288,11.36,0.863,35.191,-117.302,-35.191
4.1850000000000005,1.581,11.257,-1.198,29.326,-0.048,11.736,1.245,23.46,0.288,11.216,1.15,41.056,-123.167,-41.056
4.19,0.766,11.017,-0.479,29.326,0.527,11.017,0.527,23.46,0.575,10.785,1.438,41.056,-129.032,-41.056
4.195,0.766,11.304,0.192,35.191,0.192,10.682,-0.144,35.191,1.294,11.216,1.294,52.786,-134.897,-23.46
4.2,0.958,11.592,0.766,41.056,0.048,10.586,-0.671,41.056,0.431,10.929,0.719,52.786,-134.897,-23.46
4.205,0.814,11.688,1.102,46.921,0.575,10.682,-0.91,41.056,0.144,11.935,-0.0,58.651,-134.897,-35.191
4.21,0.479,11.496,1.054,46.921,1.102,10.634,-0.766,41.056,0.288,12.654,-0.575,52.786,-140.762,-41.056
4.215,0.287,11.304,0.814,46.921,1.293,10.682,-0.527,41.056,0.431,12.798,-1.007,46.921,-140.762,-46.921
4.22,0.192,11.161,0.623,46.921,1.341,10.825,-0.335,46.921,0.288,12.367,-0.863,35.191,-146.628,-46.921
4.225,0.24,11.065,0.383,52.786,1.341,10.969,-0.048,52.786,0.0,11.935,-0.719,23.46,-146.628,-46.921
4.23,0.287,10.873,0.192,58.651,1.293,10.921,0.144,52.786,0.0,11.648,-0.431,17.595,-146.628,-46.921
4.235,0.287,10.634,0.048,58.651,1.198,10.73,0.24,52.786,0.0,11.36,-0.288,5.865,-140.762,-52.786
4.24,0.287,10.394,-0.048,58.651,1.102,10.586,0.335,52.786,0.144,11.073,-0.0,5.865,-140.762,-58.651
4.245,0.24,10.299,-0.144,58.651,1.102,10.49,0.431,52.786,0.0,10.641,0.144,5.865,-140.762,-58.651
4.25,0.192,10.203,-0.144,58.651,1.102,10.442,0.383,52.786,0.0,10.497,0.288,5.865,-134.897,-58.651
4.255,0.144,10.059,-0.096,52.786,1.15,10.299,0.335,52.786,-0.144,10.21,0.288,5.865,-134.897,-58.651
4.26,0.096,9.82,0.048,52.786,1.198,10.203,0.24,46.921,-0.144,10.21,0.288,17.595,-134.897,-58.651
4.265,0.0,9.58,0.192,46.921,1.389,10.059,0.048,46.921,-0.144,9.922,0.288,23.46,-134.897,-52.786
4.2700000000000005,-0.048,9.341,0.383,46.921,1.485,9.82,-0.192,41.056,-0.288,9.635,0.144,23.46,-134.897,-52.786
4.275,-0.096,9.101,0.671,41.056,1.485,9.532,-0.527,35.191,-0.288,9.347,-0.0,29.326,-134.897,-46.921
4.28,-0.096,8.957,1.054,35.191,1.533,9.388,-0.862,29.326,-0.288,9.059,-0.288,35.191,-134.897,-46.921
4.285,-0.144,8.862,1.437,29.326,1.724,9.436,-1.198,29.326,-0.288,8.772,-0.575,41.056,-134.897,-41.056
4.29,-0.24,8.957,1.724,29.326,1.964,9.628,-1.485,23.46,-0.144,8.628,-0.863,46.921,-129.032,-35.191
4.295,-0.335,9.293,1.82,17.595,2.108,9.867,-1.581,17.595,-0.288,8.484,-1.294,52.786,-129.032,-35.191
4.3,-0.575,9.484,1.772,11.73,2.251,9.963,-1.437,11.73,-0.144,8.484,-1.582,58.651,-123.167,-23.46
4.305,-0.719,9.628,1.629,5.865,2.251,10.011,-1.341,5.865,-0.288,8.916,-1.726,70.381,-117.302,-17.595
4.3100000000000005,-0.623,9.915,1.724,-0.0,1.916,9.915,-1.533,0.0,-0.719,9.203,-1.582,76.246,-111.437,-11.73
4.315,-0.814,10.251,1.868,-0.0,2.108,9.963,-1.485,-5.865,-0.863,9.491,-1.582,82.111,-105.572,-5.865
4.32,-1.006,10.442,1.724,-5.865,2.06,9.628,-1.389,-5.865,-0.863,9.922,-1.582,87.977,-105.572,0.0
4.325,-1.054,10.538,1.533,-5.865,2.06,9.436,-1.198,-5.865,-1.294,10.497,-1.869,93.842,-105.572,0.0
4.33,-0.91,10.586,1.341,-5.865,2.012,9.484,-1.054,-5.865,-1.438,11.073,-1.582,87.977,-105.572,5.865
4.335,-0.862,10.538,1.293,-5.865,1.964,9.484,-1.006,-5.865,-1.582,11.504,-1.438,87.977,-105.572,5.865
4.34,-0.862,10.49,1.198,-5.865,1.964,9.676,-0.862,-5.865,-1.438,11.504,-1.294,76.246,-105.572,5.865
4.345,-0.814,10.394,1.054,-0.0,2.108,9.915,-0.766,0.0,-1.438,11.504,-1.15,64.516,-111.437,5.865
4.3500000000000005,-0.719,10.346,1.102,-0.0,2.108,10.203,-0.814,0.0,-1.438,11.216,-1.15,52.786,-111.437,5.865
4.355,-0.671,10.49,1.198,-0.0,2.06,10.442,-0.958,0.0,-1.294,10.929,-1.007,41.056,-111.437,0.0
4.36,-0.527,10.586,1.437,-0.0,1.82,10.394,-1.198,0.0,-1.007,10.641,-1.007,41.056,-111.437,0.0
4.365,-0.383,10.682,1.724,-0.0,1.533,10.251,-1.485,0.0,-1.007,10.641,-1.007,35.191,-111.437,0.0
4.37,-0.383,10.73,1.868,-0.0,1.677,10.011,-1.581,0.0,-0.863,10.785,-1.294,35.191,-111.437,0.0
4.375,-0.383,10.682,1.964,-0.0,1.629,9.867,-1.677,-5.865,-0.863,11.073,-1.582,29.326,-111.437,0.0
4.38,-0.287,10.634,2.06,-5.865,1.485,9.724,-1.724,-5.865,-0.719,11.36,-1.726,29.326,-111.437,0.0
4.385,-0.24,10.49,2.012,-11.73,1.389,9.724,-1.677,-17.595,-0.719,11.504,-1.869,23.46,-111.437,0.0
4.39,-0.671,9.963,1.772,-17.595,1.054,10.251,-1.437,-23.46,-0.719,11.504,-1.869,5.865,-111.437,5.865
4.3950000000000005,-1.198,9.58,1.485,-17.595,1.102,10.155,-1.054,-46.921,-0.719,11.36,-1.869,5.865,-117.302,11.73
4.4,-0.91,9.772,1.054,-5.865,1.485,10.346,-0.623,-64.516,-0.863,11.216,-1.582,-5.865,-117.302,23.46
4.405,-0.623,9.484,0.623,5.865,1.868,10.394,-0.24,-64.516,-1.582,10.641,-1.294,-17.595,-111.437,23.46
4.41,-0.383,9.724,0.383,11.73,1.916,10.49,-0.096,-64.516,-1.438,9.922,-1.007,-29.326,-111.437,5.865
4.415,0.0,9.772,0.671,11.73,1.868,10.586,-0.383,-64.516,-0.719,9.203,-0.575,-35.191,-117.302,-5.865
4.42,-0.048,10.107,0.91,5.865,1.772,11.592,-0.671,-58.651,-0.575,8.916,-0.288,-29.326,-117.302,-11.73
4.425,0.048,11.688,0.958,-5.865,1.916,12.502,-0.719,-58.651,-0.431,8.916,-0.575,-17.595,-111.437,-11.73
4.43,-0.335,12.31,0.527,-11.73,1.389,14.035,-0.335,-46.921,-0.288,8.916,-0.863,-5.865,-111.437,0.0
4.4350000000000005,-0.24,12.694,0.575,-5.865,-0.479,14.466,-0.335,-41.056,-0.288,10.497,-0.863,5.865,-111.437,5.865
4.44,0.623,12.789,0.814,5.865,0.383,12.646,-0.958,-35.191,-0.431,11.504,-0.431,29.326,-105.572,11.73
4.445,0.192,12.598,1.437,29.326,1.533,11.879,-1.389,-29.326,-1.438,11.792,-0.431,46.921,-105.572,5.865
4.45,-0.24,12.406,1.916,35.191,1.15,11.592,-1.724,-23.46,-0.575,12.511,-0.719,52.786,-111.437,-11.73
4.455,0.144,12.55,2.203,35.191,0.814,11.352,-2.108,-23.46,0.0,13.086,-1.294,58.651,-117.302,-23.46
4.46,0.144,11.879,2.299,29.326,0.766,10.682,-2.06,-17.595,-0.575,13.086,-1.726,52.786,-111.437,-35.191
4.465,0.144,11.544,2.251,29.326,0.575,10.682,-1.916,-17.595,-0.575,13.086,-2.157,46.921,-111.437,-35.191
4.47,-0.144,11.209,2.012,29.326,0.671,10.442,-1.677,-11.73,-0.288,12.654,-2.157,41.056,-111.437,-29.326
4.4750000000000005,-0.192,10.825,1.82,29.326,0.958,10.011,-1.485,-11.73,-0.431,12.223,-2.157,29.326,-111.437,-23.46
4.48,-0.287,10.346,1.629,29.326,1.341,9.82,-1.293,-11.73,-0.719,11.792,-1.869,23.46,-111.437,-23.46
4.485,-0.479,9.867,1.533,29.326,1.245,9.628,-1.198,-5.865,-0.719,11.216,-1.726,17.595,-111.437,-23.46
4.49,-0.383,9.58,1.437,29.326,1.293,8.909,-1.102,-5.865,-0.431,10.785,-1.582,5.865,-117.302,-23.46
4.495,-0.479,8.862,1.389,23.46,0.91,8.862,-1.102,0.0,-0.719,10.066,-1.438,5.865,-111.437,-23.46
4.5,-0.479,8.287,1.437,17.595,1.054,8.383,-1.15,-5.865,-0.719,9.635,-1.294,5.865,-111.437,-23.46
4.505,-0.383,7.904,1.533,11.73,1.15,8.287,-1.245,-11.73,-0.719,8.916,-1.294,5.865,-111.437,-23.46
4.51,-0.383,7.664,1.437,5.865,1.437,8.526,-1.15,-11.73,-0.863,8.197,-1.294,5.865,-111.437,-17.595
4.515,-0.958,7.281,1.341,-0.0,2.108,8.67,-1.102,-17.595,-0.575,7.478,-1.438,5.865,-105.572,-11.73
4.5200000000000005,-1.341,7.377,1.533,-5.865,2.443,8.957,-1.293,-17.595,-0.431,6.902,-1.294,23.46,-105.572,-5.865
4.525,-1.198,7.951,1.677,-11.73,2.203,9.149,-1.437,-17.595,-0.719,6.183,-1.294,35.191,-105.572,0.0
4.53,-0.91,8.478,1.82,-11.73,1.916,9.197,-1.533,-17.595,-1.007,6.183,-1.438,46.921,-99.707,11.73
4.535,-0.814,8.909,1.964,-11.73,1.485,9.341,-1.677,-17.595,-0.863,7.046,-1.582,64.516,-93.842,11.73
4.54,-0.623,9.245,1.964,-11.73,0.91,9.484,-1.677,-11.73,-0.719,7.909,-1.726,76.246,-82.111,11.73
4.545,-0.24,9.532,1.916,-11.73,0.479,9.628,-1.629,-5.865,-0.719,8.628,-1.869,87.977,-76.246,11.73
4.55,0.0,9.772,1.964,-5.865,0.287,9.724,-1.677,-5.865,-0.863,9.059,-1.869,93.842,-70.381,11.73
4.555,0.048,9.82,2.06,-5.865,0.144,9.82,-1.772,-11.73,-0.719,9.635,-1.869,99.707,-64.516,11.73
4.5600000000000005,0.144,9.963,2.156,-11.73,0.096,9.915,-1.916,-11.73,-0.431,9.922,-1.869,99.707,-64.516,5.865
4.565,0.144,10.107,2.156,-11.73,0.24,10.011,-1.868,-17.595,-0.431,10.066,-2.013,99.707,-64.516,11.73
4.57,0.144,10.299,2.108,-17.595,0.192,10.059,-1.772,-23.46,-0.288,10.21,-2.013,99.707,-70.381,11.73
4.575,0.24,10.49,2.06,-23.46,0.24,10.155,-1.772,-29.326,-0.288,10.354,-2.013,93.842,-70.381,17.595
4.58,0.144,10.634,2.06,-29.326,0.24,10.107,-1.724,-35.191,-0.288,10.641,-2.013,93.842,-70.381,17.595
4.585,0.0,10.586,1.82,-35.191,0.335,10.059,-1.437,-35.191,-0.288,10.785,-2.013,93.842,-70.381,23.46
4.59,0.0,10.442,1.485,-35.191,0.335,9.963,-1.054,-35.191,-0.431,11.073,-2.013,87.977,-76.246,23.46
4.595,-0.287,8.766,1.102,-35.191,-0.335,9.628,-0.575,-41.056,-0.431,11.216,-1.726,87.977,-76.246,29.326
4.6000000000000005,0.431,8.239,0.527,-52.786,-0.527,8.478,0.0,-29.326,-0.144,11.216,-1.438,76.246,-76.246,29.326
4.605,0.862,7.951,0.192,-70.381,-1.006,7.808,0.287,-23.46,-0.431,10.21,-1.007,70.381,-76.246,35.191
4.61,1.15,8.047,-0.144,-76.246,-1.006,7.329,0.527,-23.46,-0.144,8.916,-0.431,64.516,-76.246,52.786
4.615,1.006,8.478,-0.24,-70.381,-0.958,7.281,0.623,-17.595,0.0,8.628,0.144,52.786,-76.246,64.516
4.62,1.293,8.718,-0.096,-64.516,-0.766,8.047,0.431,-17.595,0.0,8.628,0.144,41.056,-76.246,70.381
4.625,0.958,8.957,0.192,-58.651,-0.575,8.814,0.096,-17.595,0.144,8.772,0.431,29.326,-82.111,58.651
4.63,0.91,9.388,0.527,-52.786,-0.335,8.814,-0.24,-11.73,0.288,8.916,0.431,17.595,-93.842,52.786
4.635,0.91,9.532,0.671,-41.056,-0.383,9.053,-0.431,-5.865,0.288,9.203,0.144,5.865,-99.707,46.921
4.64,0.527,9.532,0.719,-29.326,-0.096,9.005,-0.383,5.865,0.288,9.347,-0.288,5.865,-99.707,35.191
4.6450000000000005,0.671,9.341,0.719,-17.595,0.048,9.101,-0.383,11.73,0.288,9.635,-0.575,5.865,-105.572,23.46
4.65,0.575,9.388,0.814,-5.865,0.0,9.676,-0.623,17.595,0.288,9.778,-0.575,0.0,-105.572,11.73
4.655,0.335,9.005,0.862,-0.0,0.287,9.197,-0.671,29.326,0.288,9.922,-0.575,5.865,-105.572,0.0
4.66,0.096,8.622,0.91,5.865,0.527,9.005,-0.671,41.056,0.0,9.635,-0.719,5.865,-105.572,-5.865
4.665,0.144,8.766,0.814,11.73,0.527,8.383,-0.527,46.921,0.431,9.491,-0.719,5.865,-105.572,-11.73
4.67,0.383,8.43,0.623,11.73,0.24,8.383,-0.287,41.056,0.144,9.203,-0.863,5.865,-105.572,-11.73
4.675,0.479,8.095,0.527,11.73,0.192,8.287,-0.192,35.191,0.0,8.772,-0.719,0.0,-105.572,-11.73
4.68,0.671,8.143,0.527,11.73,0.335,7.904,-0.24,29.326,0.0,8.484,-0.431,5.865,-105.572,-11.73
4.6850000000000005,0.766,8.095,0.479,5.865,0.479,7.951,-0.144,17.595,0.0,8.197,-0.431,5.865,-105.572,-11.73
4.69,0.431,7.712,0.431,5.865,0.623,7.999,0.0,11.73,0.288,8.053,-0.431,5.865,-105.572,-11.73
4.695,0.287,7.904,0.287,5.865,0.814,7.76,0.144,0.0,0.431,7.909,-0.431,5.865,-105.572,-11.73
4.7,0.24,7.76,0.144,-0.0,0.814,7.856,0.24,-5.865,0.431,7.909,-0.288,17.595,-105.572,-5.865
4.705,0.24,7.52,0.096,-0.0,0.862,7.616,0.383,-11.73,0.0,8.053,-0.144,17.595,-105.572,-5.865
4.71,0.431,7.472,-0.048,-5.865,0.958,7.377,0.431,-17.595,0.0,8.197,-0.0,23.46,-105.572,0.0
4.715,0.719,7.616,-0.096,-17.595,0.719,7.76,0.671,-29.326,-0.144,8.197,0.144,17.595,-99.707,0.0
4.72,0.91,8.526,-0.24,-29.326,-0.048,8.335,0.671,-35.191,-0.144,8.34,0.144,17.595,-93.842,5.865
4.7250000000000005,1.533,9.053,-0.287,-41.056,-0.479,8.622,0.814,-35.191,0.288,8.916,0.288,5.865,-87.977,5.865
4.73,1.629,9.245,-0.575,-46.921,-0.623,9.005,1.054,-35.191,0.719,8.916,0.431,5.865,-82.111,5.865
4.735,1.629,9.341,-0.719,-46.921,-0.527,9.388,1.15,-35.191,1.294,9.347,0.431,5.865,-76.246,11.73
4.74,1.437,9.532,-0.719,-52.786,-0.623,9.293,1.054,-29.326,1.438,9.491,0.719,0.0,-76.246,23.46
4.745,1.15,9.341,-0.671,-52.786,-0.719,9.532,1.054,-29.326,1.438,9.635,0.863,-5.865,-76.246,35.191
4.75,1.341,9.484,-0.623,-46.921,-0.766,9.149,0.958,-29.326,0.719,9.491,0.863,-11.73,-76.246,41.056
4.755,1.533,9.005,-0.527,-41.056,-0.719,9.341,0.91,-23.46,0.431,9.347,0.719,-11.73,-76.246,41.056
4.76,1.533,9.436,-0.575,-41.056,-0.431,9.484,0.91,-23.46,0.575,9.347,0.719,-17.595,-82.111,41.056
4.765,1.437,9.005,-0.479,-41.056,-0.335,9.388,0.862,-23.46,0.863,9.347,0.719,-17.595,-87.977,41.056
4.7700000000000005,1.341,9.293,-0.479,-41.056,-0.335,9.197,0.814,-23.46,1.007,9.347,0.719,-17.595,-87.977,41.056
4.775,1.293,9.245,-0.383,-41.056,-0.479,8.718,0.719,-29.326,0.863,9.347,0.575,-11.73,-87.977,41.056
4.78,1.389,9.005,-0.287,-41.056,-0.431,8.766,0.671,-35.191,0.719,9.203,0.575,-11.73,-93.842,41.056
4.785,1.245,9.053,-0.335,-41.056,0.0,8.814,0.719,-41.056,0.719,9.347,0.431,-11.73,-93.842,46.921
4.79,1.054,9.053,-0.24,-41.056,0.287,9.005,0.623,-41.056,0.863,9.347,0.431,-5.865,-93.842,46.921
4.795,0.814,9.197,-0.144,-35.191,0.527,9.197,0.479,-41.056,0.863,9.347,0.431,-11.73,-93.842,46.921
4.8,0.623,9.388,-0.144,-35.191,0.814,9.341,0.527,-35.191,0.863,9.347,0.431,-11.73,-93.842,41.056
4.805,0.479,9.58,-0.096,-35.191,0.862,9.532,0.479,-35.191,0.575,9.491,0.288,-11.73,-87.977,41.056
4.8100000000000005,0.383,9.484,-0.192,-29.326,1.102,9.436,0.671,-29.326,0.431,9.491,0.288,-17.595,-87.977,35.191
4.815,0.24,9.388,-0.431,-23.46,1.198,9.484,0.814,-29.326,0.288,9.635,0.144,-17.595,-82.111,35.191
4.82,0.24,9.532,-0.479,-29.326,1.437,9.867,0.766,-35.191,0.288,9.778,0.288,-17.595,-76.246,29.326
4.825,0.192,9.724,-0.335,-29.326,1.293,9.915,0.719,-35.191,0.431,10.066,0.575,-17.595,-76.246,29.326
4.83,0.431,9.676,-0.383,-35.191,1.15,10.155,0.671,-35.191,0.431,9.922,0.575,-17.595,-70.381,23.46
4.835,0.575,9.676,-0.479,-35.191,0.91,10.059,0.862,-41.056,0.288,9.922,0.431,-11.73,-64.516,23.46
4.84,0.814,9.676,-0.575,-41.056,0.479,9.915,1.054,-46.921,0.288,9.922,0.431,-5.865,-58.651,23.46
4.845,1.102,9.676,-0.671,-52.786,-0.096,9.628,1.15,-58.651,0.431,9.778,0.431,-5.865,-58.651,17.595
4.8500000000000005,1.485,9.58,-0.862,-52.786,-0.623,9.484,1.437,-58.651,0.575,9.778,0.719,0.0,-52.786,23.46
4.855,1.916,9.436,-1.102,-58.651,-1.006,9.436,1.533,-58.651,0.431,9.922,0.863,0.0,-46.921,23.46
4.86,2.156,9.388,-1.006,-58.651,-1.245,9.293,1.437,-64.516,0.719,9.778,0.863,0.0,-46.921,23.46
4.865,2.203,9.388,-0.766,-58.651,-1.341,9.388,1.15,-64.516,0.863,9.635,1.294,0.0,-46.921,29.326
4.87,2.203,9.341,-0.527,-58.651,-1.341,9.484,0.814,-58.651,0.719,9.347,1.294,0.0,-46.921,35.191
4.875,2.06,9.341,-0.287,-58.651,-1.054,9.58,0.623,-58.651,0.863,9.203,0.863,0.0,-52.786,41.056
4.88,1.964,9.628,0.144,-52.786,-0.671,9.436,0.192,-58.651,1.007,9.203,0.575,-5.865,-52.786,46.921
4.885,1.868,9.867,0.335,-52.786,-0.383,10.155,0.048,-52.786,1.007,9.347,0.431,-5.865,-52.786,46.921
4.89,1.724,10.203,0.431,-52.786,-0.048,10.346,0.0,-52.786,1.007,9.635,-0.0,-5.865,-52.786,46.921
4.8950000000000005,1.581,10.251,0.335,-52.786,-0.192,10.442,0.048,-52.786,1.294,10.066,-0.288,-5.865,-52.786,46.921
4.9,1.437,10.299,0.431,-46.921,-0.192,10.299,-0.096,-52.786,1.15,10.354,-0.431,-5.865,-52.786,52.786
4.905,1.245,10.346,0.527,-46.921,-0.287,10.299,-0.144,-52.786,0.863,10.497,-0.288,-5.865,-46.921,52.786
4.91,1.245,10.155,0.527,-46.921,-0.144,10.299,-0.096,-46.921,0.575,10.497,-0.431,-5.865,-41.056,46.921
4.915,1.054,10.155,0.431,-41.056,0.144,10.155,0.0,-46.921,0.288,10.354,-0.575,-5.865,-41.056,46.921
4.92,0.719,10.155,0.431,-41.056,0.623,10.059,0.048,-41.056,0.0,10.354,-0.431,-5.865,-41.056,46.921
4.925,0.479,10.155,0.335,-35.191,1.102,10.059,0.144,-41.056,-0.288,10.354,-0.431,-5.865,-41.056,41.056
4.93,0.383,10.394,0.335,-35.191,1.389,10.059,0.144,-41.056,-0.431,10.354,-0.288,-5.865,-46.921,35.191
4.9350000000000005,0.0,10.346,0.383,-35.191,1.533,10.059,0.096,-35.191,-0.431,10.497,-0.144,-5.865,-41.056,29.326
4.94,0.096,10.346,0.431,-29.326,1.485,10.059,-0.048,-35.191,-0.863,10.354,-0.144,-11.73,-41.056,23.46
4.945,0.144,10.346,0.479,-29.326,1.15,10.346,-0.048,-29.326,-0.575,10.497,-0.288,-11.73,-35.191,17.595
4.95,0.383,10.586,0.527,-23.46,0.671,10.778,-0.24,-29.326,-1.007,10.641,-0.431,-17.595,-35.191,11.73
4.955,0.862,10.921,0.862,-23.46,0.431,11.352,-0.623,-23.46,-0.431,10.929,-0.431,-17.595,-29.326,11.73
4.96,1.437,11.544,1.198,-17.595,0.144,11.592,-0.766,-17.595,0.0,10.929,-0.431,-17.595,-23.46,5.865
4.965,1.772,11.927,1.341,-17.595,-0.192,11.688,-0.814,-17.595,0.288,11.216,-0.863,-17.595,-23.46,0.0
4.97,2.012,12.598,1.485,-17.595,-0.719,12.167,-1.102,-23.46,0.575,11.648,-1.007,-17.595,-23.46,0.0
4.9750000000000005,2.395,12.933,1.82,-23.46,-1.006,12.789,-1.533,-23.46,0.719,12.511,-1.007,-17.595,-17.595,0.0
4.98,2.587,13.316,2.108,-23.46,-1.102,13.316,-1.772,-23.46,1.007,13.086,-1.294,-17.595,-17.595,0.0
4.985,2.587,13.652,2.156,-23.46,-0.814,13.604,-1.724,-29.326,1.007,13.517,-1.726,-23.46,-17.595,5.865
4.99,2.443,13.652,2.06,-23.46,-0.24,13.843,-1.724,-29.326,1.294,13.661,-2.157,-29.326,-17.595,5.865
4.995,2.299,13.604,2.203,-23.46,0.096,14.178,-1.916,-29.326,1.438,13.805,-2.013,-35.191,-17.595,11.73
5.0,2.108,13.556,2.299,-23.46,0.192,14.226,-2.012,-29.326,1.582,13.949,-2.013,-35.191,-17.595,17.595
5.005,1.82,13.556,2.347,-29.326,0.24,14.322,-2.06,-29.326,1.438,13.949,-2.157,-35.191,-11.73,23.46
5.01,1.868,13.556,2.395,-29.326,0.096,14.322,-2.108,-29.326,0.863,13.949,-2.301,-35.191,-5.865,23.46
5.015,1.724,13.556,2.347,-29.326,0.144,14.274,-2.012,-29.326,0.863,13.949,-2.301,-29.326,0.0,29.326
5.0200000000000005,1.677,13.364,2.108,-23.46,0.144,14.131,-1.82,-23.46,0.719,13.517,-2.445,-23.46,5.865,29.326
5.025,1.772,12.933,1.916,-17.595,-0.048,13.652,-1.533,-17.595,0.719,13.086,-2.301,-17.595,17.595,29.326
5.03,1.772,12.837,1.629,-11.73,-0.144,13.364,-1.293,-11.73,0.719,12.798,-2.157,-11.73,17.595,29.326
5.035,1.82,12.694,1.533,-11.73,-0.144,13.125,-1.198,-5.865,0.575,12.511,-1.869,0.0,23.46,23.46
5.04,1.868,12.358,1.485,-5.865,-0.24,12.646,-1.15,-5.865,0.863,12.367,-1.726,5.865,29.326,17.595
5.045,1.916,12.023,1.581,-0.0,-0.383,12.119,-1.245,0.0,0.863,12.079,-1.582,5.865,29.326,11.73
5.05,1.964,11.783,1.724,-0.0,-0.479,11.64,-1.389,0.0,0.863,12.079,-1.438,17.595,35.191,5.865
5.055,1.964,11.592,1.916,-0.0,-0.671,11.209,-1.533,0.0,0.719,12.223,-1.582,23.46,35.191,0.0
5.0600000000000005,1.964,11.257,2.012,5.865,-0.814,10.873,-1.581,5.865,0.719,12.223,-1.726,23.46,41.056,-5.865
5.065,1.868,11.065,1.964,5.865,-0.814,10.634,-1.533,5.865,0.719,12.079,-1.869,23.46,41.056,-11.73
5.07,1.724,10.825,1.916,5.865,-0.766,10.49,-1.485,5.865,0.575,11.792,-2.013,23.46,41.056,-11.73
5.075,1.677,10.634,1.82,5.865,-0.575,10.49,-1.389,5.865,0.431,11.648,-1.869,17.595,41.056,-11.73
5.08,1.341,10.682,1.677,5.865,-0.479,10.538,-1.245,5.865,0.431,11.36,-1.869,5.865,41.056,-11.73
5.085,1.054,10.825,1.677,11.73,-0.335,10.49,-1.293,5.865,0.288,11.216,-1.726,5.865,35.191,-11.73
5.09,1.198,10.825,1.629,11.73,-0.287,10.49,-1.198,5.865,0.0,11.073,-1.726,5.865,35.191,-11.73
5.095,1.389,10.634,1.485,11.73,-0.335,10.346,-1.006,5.865,0.0,11.073,-1.726,0.0,29.326,-11.73
5.1000000000000005,1.437,10.394,1.245,11.73,-0.335,10.155,-0.766,5.865,0.0,11.073,-1.582,0.0,29.326,-11.73
5.105,1.533,10.203,1.006,5.865,-0.335,10.059,-0.575,5.865,0.0,11.073,-1.438,-5.865,23.46,-11.73
5.11,1.485,10.011,0.91,5.865,-0.335,9.963,-0.431,5.865,0.144,10.785,-1.15,-5.865,17.595,-5.865
5.115,1.485,9.915,0.766,5.865,-0.335,9.915,-0.335,11.73,0.431,10.641,-1.007,-11.73,17.595,-5.865
5.12,1.485,9.724,0.719,11.73,-0.479,9.82,-0.335,11.73,0.575,10.497,-0.863,-11.73,17.595,-5.865
5.125,1.581,9.676,0.671,11.73,-0.479,9.82,-0.24,11.73,0.863,10.354,-0.719,-17.595,17.595,-5.865
5.13,1.437,9.388,0.623,11.73,-0.383,9.724,-0.192,11.73,1.007,10.354,-0.719,-17.595,17.595,-5.865
5.135,1.533,9.245,0.623,11.73,-0.287,9.628,-0.24,11.73,0.863,10.354,-0.719,-17.595,17.595,-5.865
5.14,1.581,9.341,0.431,17.595,-0.383,9.341,-0.096,17.595,1.007,10.354,-0.575,-17.595,17.595,0.0
5.1450000000000005,1.581,9.101,0.431,17.595,-0.671,9.005,0.0,17.595,0.863,10.21,-0.431,-11.73,17.595,0.0
5.15,1.916,9.053,0.335,11.73,-0.623,8.862,0.192,17.595,0.719,10.066,-0.431,-11.73,17.595,5.865
5.155,2.156,9.197,0.24,17.595,-0.958,8.909,0.0,23.46,0.431,9.778,-0.144,-11.73,17.595,5.865
5.16,1.581,9.005,0.24,17.595,-0.719,8.909,0.431,23.46,0.863,10.21,-0.288,-5.865,17.595,11.73
5.165,0.527,8.287,-1.054,17.595,-0.623,8.718,1.054,23.46,1.294,10.066,-0.575,-11.73,17.595,11.73
5.17,-0.527,7.52,-0.096,11.73,0.91,8.67,0.575,23.46,1.007,9.347,0.431,-11.73,17.595,23.46
5.175,0.766,7.281,0.192,11.73,0.623,7.951,0.383,23.46,-6.04,2.876,1.15,-5.865,17.595,23.46
5.18,1.245,8.095,0.335,17.595,0.048,7.568,0.335,23.46,-1.15,5.896,-0.288,5.865,5.865,17.595
5.1850000000000005,1.389,8.67,0.192,23.46,-0.24,7.76,0.431,29.326,1.15,8.197,0.144,35.191,-5.865,-11.73
5.19,1.293,8.718,-0.048,35.191,-0.479,8.67,0.479,35.191,1.15,9.059,0.431,41.056,0.0,-29.326
5.195,1.102,8.239,-0.096,41.056,-0.766,8.766,0.575,41.056,1.007,8.916,0.431,23.46,5.865,-35.191
5.2,1.437,8.287,-0.24,46.921,-0.91,8.67,0.814,46.921,0.0,8.34,-0.144,0.0,17.595,-35.191
5.205,1.677,8.095,-0.575,52.786,-0.671,8.862,1.15,52.786,0.0,8.34,0.144,-5.865,17.595,-41.056
5.21,1.341,8.095,-1.82,52.786,-0.144,8.67,1.341,58.651,0.288,8.197,0.288,-5.865,11.73,-41.056
5.215,0.958,8.239,-0.766,64.516,-0.335,8.526,0.766,64.516,0.575,7.909,0.575,-5.865,5.865,-46.921
5.22,0.719,8.478,-0.096,64.516,-0.192,8.43,0.671,70.381,1.15,7.478,1.726,0.0,5.865,-52.786
5.2250000000000005,0.575,8.095,-0.144,70.381,0.048,7.856,0.766,70.381,-0.144,8.34,0.863,5.865,5.865,-58.651
5.23,0.479,7.616,-0.431,70.381,0.24,7.185,0.91,70.381,-0.575,8.484,0.144,5.865,5.865,-64.516
5.235,0.335,7.281,-0.527,64.516,0.0,6.898,1.006,70.381,-0.575,8.197,0.144,5.865,0.0,-64.516
5.24,0.575,7.041,-0.527,64.516,-0.623,6.85,1.054,70.381,-0.575,7.765,0.431,5.865,0.0,-64.516
5.245,0.958,7.281,-0.527,64.516,-1.198,7.185,0.958,76.246,-0.719,7.478,0.719,5.865,-5.865,-64.516
5.25,1.437,7.52,-0.719,64.516,-1.389,7.999,1.15,76.246,-0.431,7.334,0.575,5.865,-5.865,-64.516
5.255,1.533,9.532,-1.293,64.516,-1.437,12.167,2.539,82.111,-0.288,7.334,0.575,5.865,-11.73,-64.516
5.26,2.491,11.065,-2.97,64.516,-1.629,9.436,3.209,70.381,0.288,7.621,0.719,0.0,-17.595,-64.516
5.265,3.018,9.58,-2.443,64.516,-1.006,9.772,2.778,64.516,0.431,7.046,1.869,0.0,-29.326,-58.651
5.2700000000000005,2.826,9.101,-2.203,58.651,-1.772,9.436,2.539,64.516,0.288,9.922,2.445,17.595,-41.056,-64.516
5.275,2.539,9.293,-2.06,64.516,-2.826,9.484,2.347,64.516,1.582,10.929,3.02,29.326,-58.651,-64.516
5.28,2.347,9.101,-1.964,70.381,-3.114,9.436,2.251,76.246,2.301,9.635,2.301,29.326,-52.786,-58.651
5.285,2.347,8.67,-2.108,82.111,-2.539,9.053,2.443,82.111,2.013,8.34,1.726,29.326,-46.921,-52.786
5.29,2.06,8.526,-1.964,87.977,-2.06,7.904,1.677,87.977,1.15,7.909,1.582,29.326,-46.921,-52.786
5.295,1.485,8.143,-0.479,93.842,-1.437,6.467,1.006,93.842,0.431,8.053,1.294,29.326,-52.786,-58.651
5.3,1.245,7.425,-1.581,99.707,-1.581,6.946,1.964,105.572,0.863,8.34,1.294,23.46,-64.516,-64.516
5.305,0.958,6.946,-2.203,111.437,-4.838,7.856,1.293,117.302,1.582,8.628,1.869,5.865,-70.381,-70.381
5.3100000000000005,-1.054,7.808,-1.389,117.302,-3.736,6.323,1.772,152.493,0.719,9.491,1.869,5.865,-70.381,-76.246
5.315,-0.144,8.622,-2.347,105.572,-1.389,6.85,2.778,187.683,0.288,9.778,1.15,5.865,-76.246,-70.381
5.32,1.15,8.909,-2.299,99.707,0.144,7.425,1.82,205.279,-0.719,9.635,1.726,5.865,-87.977,-58.651
5.325,9.724,8.574,-0.24,105.572,1.15,9.532,1.006,211.144,-0.719,10.066,1.582,-5.865,-76.246,-41.056
5.33,7.904,6.323,-1.581,158.358,-2.874,9.245,1.389,205.279,0.0,10.641,1.582,-17.595,-70.381,-23.46
5.335,5.604,7.185,-1.102,205.279,-3.497,8.335,1.054,199.413,-2.301,9.059,2.588,-17.595,-82.111,-11.73
5.34,5.7,9.245,-0.479,211.144,-3.066,8.43,1.102,187.683,-1.438,12.079,3.02,-11.73,-87.977,23.46
5.345,5.556,9.676,-0.192,217.009,-2.539,9.915,0.766,175.953,1.007,10.929,2.445,0.0,-111.437,41.056
5.3500000000000005,3.497,10.011,-1.964,228.739,-0.144,11.879,2.826,170.088,1.582,10.785,2.013,5.865,-123.167,41.056
5.355,-1.485,13.173,-4.359,222.874,2.251,14.322,4.407,175.953,1.582,11.504,1.438,-5.865,-146.628,41.056
5.36,-4.503,13.364,-5.03,199.413,3.736,15.711,4.838,193.548,2.876,11.073,2.445,-23.46,-175.953,46.921
5.365,-5.125,13.508,-1.868,181.818,5.94,12.023,1.82,222.874,4.889,8.053,5.608,-29.326,-164.223,46.921
5.37,-4.551,12.071,-1.916,158.358,6.658,10.299,1.724,222.874,4.17,8.484,3.883,-29.326,-123.167,41.056
5.375,-3.832,11.257,-1.054,140.762,7.856,9.341,1.293,193.548,1.438,10.785,2.301,-23.46,-64.516,29.326
5.38,-2.874,10.299,-1.245,117.302,8.143,9.005,1.533,140.762,0.288,12.511,1.869,-11.73,-82.111,11.73
5.385,-2.826,9.628,-0.958,87.977,7.137,8.957,1.485,93.842,0.719,11.935,1.582,-17.595,-105.572,-11.73
5.39,-2.491,10.011,-0.91,58.651,5.077,9.532,1.437,52.786,1.582,10.785,1.438,-11.73,-111.437,-23.46
5.3950000000000005,-0.91,10.682,-0.814,35.191,2.874,10.538,1.341,23.46,1.726,10.497,1.294,-5.865,-105.572,-23.46
5.4,0.814,11.209,-0.766,17.595,1.293,11.831,1.198,5.865,1.726,10.785,0.863,-5.865,-87.977,-17.595
5.405,1.485,11.736,-0.527,11.73,0.766,12.31,0.719,-11.73,1.869,11.648,0.719,0.0,-70.381,-11.73
5.41,1.533,12.119,0.383,5.865,1.245,11.975,0.287,-17.595,2.445,11.935,1.007,-5.865,-58.651,-5.865
5.415,1.533,12.215,0.24,5.865,0.958,12.933,0.287,-23.46,3.164,11.935,0.863,-17.595,-58.651,-5.865
5.42,1.293,12.262,0.192,11.73,1.389,13.029,0.431,-17.595,3.595,12.079,0.719,-23.46,-64.516,-5.865
5.425,0.766,12.885,-0.24,11.73,1.102,12.741,0.91,-17.595,3.307,12.223,0.863,-29.326,-64.516,0.0
5.43,-1.533,12.215,-2.012,29.326,0.671,12.167,3.114,-11.73,3.164,12.079,0.863,-35.191,-76.246,-5.865
5.4350000000000005,0.383,12.358,-2.778,35.191,0.91,12.646,2.395,-5.865,3.02,12.367,0.719,-35.191,-87.977,-17.595
5.44,0.958,13.891,-1.724,52.786,0.814,14.035,1.581,5.865,1.726,13.373,3.164,-29.326,-93.842,-29.326
5.445,1.102,15.855,-0.383,64.516,0.287,14.705,0.383,23.46,1.438,13.23,1.869,-35.191,-70.381,-46.921
5.45,0.91,16.286,0.24,64.516,0.671,15.711,-0.24,35.191,2.732,13.517,1.869,-46.921,-64.516,-64.516
5.455,0.048,15.376,0.287,58.651,1.677,15.615,0.0,46.921,3.164,15.387,0.431,-41.056,-64.516,-76.246
5.46,-0.096,14.466,0.144,64.516,2.826,14.705,0.144,64.516,2.876,15.674,-0.288,-29.326,-58.651,-70.381
5.465,-0.719,14.035,0.0,76.246,3.832,14.035,0.335,82.111,1.869,14.811,-0.575,-23.46,-64.516,-58.651
5.47,-1.389,13.652,0.383,93.842,4.551,13.795,-0.096,93.842,0.863,13.949,-0.575,-17.595,-64.516,-58.651
5.4750000000000005,-1.533,13.843,0.862,93.842,4.838,13.939,-0.527,93.842,1.582,13.517,-0.431,-17.595,-58.651,-64.516
5.48,-1.437,13.987,1.293,87.977,5.077,14.322,-0.719,82.111,2.013,13.805,-0.288,-5.865,-41.056,-70.381
5.485,-1.15,14.178,1.006,82.111,4.79,14.226,-0.431,70.381,2.157,13.949,-0.431,0.0,-29.326,-70.381
5.49,-1.006,14.035,0.623,82.111,4.215,13.652,-0.096,52.786,2.445,13.949,-0.575,5.865,-23.46,-70.381
5.495,-0.91,13.556,0.335,76.246,3.161,12.502,0.096,46.921,2.157,14.092,-0.575,5.865,-17.595,-70.381
5.5,-2.299,11.879,-1.054,76.246,1.964,11.448,-0.431,52.786,1.869,13.949,-0.288,5.865,-5.865,-64.516
5.505,0.144,12.646,0.671,70.381,0.671,11.304,0.24,64.516,1.869,13.517,-0.288,17.595,0.0,-64.516
5.51,0.431,11.496,1.006,76.246,0.431,10.442,-0.766,76.246,2.013,13.661,-4.026,17.595,0.0,-64.516
5.515,0.766,11.448,1.437,82.111,-0.144,10.059,-1.006,87.977,0.863,12.079,0.288,17.595,17.595,-64.516
5.5200000000000005,-0.383,9.724,1.581,99.707,0.383,9.436,-1.389,93.842,1.726,11.792,-1.007,5.865,17.595,-70.381
5.525,-2.251,8.718,1.724,105.572,1.964,8.047,-1.485,105.572,1.438,10.785,-1.438,0.0,17.595,-70.381
5.53,-4.311,7.664,1.437,93.842,3.497,7.233,-1.102,111.437,0.863,10.21,-1.726,-5.865,11.73,-76.246
5.535,-4.886,7.904,1.341,76.246,5.365,6.754,-0.862,123.167,-0.288,9.347,-1.582,-11.73,0.0,-82.111
5.54,-4.838,7.951,1.485,64.516,6.514,7.856,-0.862,129.032,-2.013,8.484,-1.294,-5.865,-17.595,-82.111
5.545,-4.215,8.766,1.677,58.651,6.658,8.957,-0.958,111.437,-2.876,8.197,-1.294,5.865,-23.46,-82.111
5.55,-2.539,9.149,1.054,46.921,5.844,9.053,-0.91,76.246,-3.164,8.628,-1.438,5.865,-29.326,-70.381
5.555,-2.06,9.149,1.245,46.921,4.646,8.43,-0.814,29.326,-2.732,8.628,-1.438,17.595,-29.326,-70.381
5.5600000000000005,-1.868,9.005,1.198,46.921,3.353,8.574,-0.671,-5.865,-2.588,8.197,-2.013,17.595,-35.191,-70.381
5.565,-1.245,9.388,1.15,46.921,2.97,8.862,-0.814,-29.326,-2.301,8.053,-2.013,23.46,-52.786,-64.516
5.57,-0.862,9.628,1.724,46.921,2.635,9.628,-1.006,-41.056,-2.876,8.34,-0.863,29.326,-64.516,-58.651
5.575,-1.15,9.436,2.156,46.921,0.91,10.251,-1.341,-52.786,-1.869,7.909,-1.726,29.326,-82.111,-52.786
5.58,-0.814,8.718,2.156,29.326,0.287,10.251,-1.245,-46.921,-1.15,8.197,-1.438,29.326,-87.977,-46.921
5.585,-0.862,8.526,2.347,17.595,0.431,9.532,-1.581,-41.056,-0.863,8.628,-1.582,23.46,-93.842,-35.191
5.59,-0.814,8.383,2.251,11.73,0.671,8.862,-1.82,-23.46,-0.575,9.347,-1.294,23.46,-93.842,-17.595
5.595,-1.054,8.335,1.868,11.73,1.102,8.383,-1.629,-5.865,-0.288,9.347,-1.582,17.595,-99.707,0.0
5.6000000000000005,-1.245,8.191,1.485,11.73,1.629,8.143,-1.581,11.73,0.0,9.203,-1.294,5.865,-105.572,11.73
5.605,-1.102,8.67,0.671,11.73,1.82,7.808,-1.293,29.326,-0.288,9.059,-1.15,5.865,-105.572,17.595
5.61,-1.485,8.526,0.192,23.46,1.868,7.472,-0.814,41.056,-0.288,9.347,-0.863,-5.865,-105.572,23.46
5.615,-1.533,8.862,0.096,23.46,2.108,7.089,-0.335,52.786,0.0,8.772,-0.575,-5.865,-105.572,23.46
5.62,-1.82,8.43,0.192,29.326,2.012,6.562,0.048,64.516,0.0,8.916,-0.288,-5.865,-111.437,23.46
5.625,-1.485,8.047,-0.192,23.46,1.964,6.179,1.006,70.381,-0.144,8.916,-0.144,-11.73,-111.437,23.46
5.63,-1.629,7.616,0.096,29.326,2.299,5.748,0.766,76.246,-0.144,9.203,-0.288,-23.46,-111.437,23.46
5.635,-1.677,6.946,0.096,35.191,2.156,5.988,1.15,76.246,-0.144,8.484,-0.288,-23.46,-123.167,23.46
5.64,-1.629,6.562,-0.766,41.056,2.347,5.7,1.15,76.246,-0.288,7.909,0.144,-29.326,-129.032,17.595
5.6450000000000005,-1.677,6.802,-0.623,41.056,2.395,5.7,0.862,76.246,-0.288,7.621,-0.288,-29.326,-129.032,11.73
5.65,-1.15,6.658,-1.341,46.921,2.874,5.413,0.862,76.246,-0.719,7.19,-0.288,-29.326,-134.897,11.73
5.655,-1.389,6.946,-1.389,58.651,3.449,5.892,0.91,76.246,-0.863,6.615,0.144,-23.46,-140.762,11.73
5.66,-2.443,6.993,-0.91,52.786,3.209,6.035,0.048,76.246,-1.294,6.183,-0.431,-17.595,-146.628,5.865
5.665,-3.209,6.946,-0.719,46.921,3.114,6.562,-0.048,82.111,-1.007,5.608,-0.288,-5.865,-152.493,5.865
5.67,-2.874,7.137,-1.82,46.921,3.401,5.988,-1.15,70.381,-1.007,5.608,-0.719,17.595,-164.223,11.73
5.675,-2.874,7.568,0.192,46.921,3.88,6.083,-1.964,58.651,-1.294,5.752,-0.144,35.191,-175.953,11.73
5.68,-2.395,6.85,-1.533,41.056,4.167,6.419,-3.593,41.056,-1.438,6.327,-0.719,46.921,-170.088,17.595
5.6850000000000005,-2.251,6.61,0.431,41.056,4.503,6.706,-4.838,17.595,-1.438,5.896,0.863,58.651,-164.223,23.46
5.69,-1.341,7.041,-0.287,35.191,6.227,6.371,-5.413,-11.73,-1.294,6.471,0.144,52.786,-158.358,29.326
5.695,-2.156,7.041,1.868,35.191,6.035,6.898,-4.215,-35.191,-1.007,7.046,-0.144,52.786,-152.493,41.056
5.7,-2.97,7.76,0.431,35.191,4.359,9.341,-2.539,-58.651,-0.719,7.621,-0.863,58.651,-158.358,46.921
5.705,-3.545,1.533,19.208,35.191,3.64,10.586,-9.101,-70.381,-0.575,6.902,0.575,58.651,-152.493,58.651
5.71,-0.814,8.047,-0.192,23.46,3.066,11.64,1.82,-82.111,-0.719,6.471,1.582,41.056,-99.707,70.381
5.715,-1.006,7.856,0.144,17.595,3.497,10.634,1.341,-82.111,-0.144,8.053,-3.02,46.921,-99.707,76.246
5.72,-1.724,8.718,0.814,29.326,2.587,8.574,0.24,-64.516,0.288,7.621,1.438,64.516,-105.572,82.111
5.7250000000000005,-3.161,8.239,1.916,35.191,1.533,7.856,-1.581,-29.326,0.575,8.34,1.294,64.516,-105.572,82.111
5.73,-3.88,7.76,2.778,41.056,1.198,7.472,-2.73,11.73,0.719,8.197,1.582,58.651,-93.842,87.977
5.735,-3.449,6.946,2.778,46.921,1.82,6.993,-2.874,41.056,0.863,9.203,1.726,41.056,-82.111,87.977
5.74,-2.778,6.658,2.347,58.651,2.635,6.658,-2.635,64.516,0.431,9.635,1.582,35.191,-99.707,87.977
5.745,-2.203,7.185,2.251,76.246,2.97,6.85,-2.395,76.246,0.431,10.066,1.15,41.056,-93.842,76.246
5.75,-2.06,7.856,2.539,87.977,2.97,6.85,-2.587,70.381,0.431,10.354,1.007,41.056,-87.977,58.651
5.755,-2.395,8.478,2.826,82.111,3.018,6.85,-2.635,64.516,1.007,10.354,1.15,35.191,-93.842,46.921
5.76,-2.539,9.197,3.018,82.111,2.97,7.568,-2.682,58.651,1.438,9.635,1.438,23.46,-93.842,29.326
5.765,-2.539,9.436,3.066,76.246,2.97,8.239,-2.539,52.786,1.438,9.059,1.582,17.595,-93.842,23.46
5.7700000000000005,-2.587,9.915,3.209,70.381,2.874,8.239,-2.73,46.921,1.294,8.916,1.438,5.865,-99.707,11.73
5.775,-2.587,9.772,3.593,64.516,2.922,8.191,-3.066,46.921,0.863,8.916,1.294,0.0,-105.572,5.865
5.78,-2.635,9.676,4.119,52.786,2.874,8.478,-3.688,46.921,0.288,9.059,1.294,-5.865,-105.572,5.865
5.785,-2.826,8.814,4.79,52.786,2.922,8.335,-4.646,46.921,-0.144,9.491,1.15,-5.865,-105.572,5.865
5.79,-2.73,8.526,5.413,52.786,2.826,7.712,-5.461,46.921,-0.431,9.347,0.719,-5.865,-99.707,5.865
5.795,-2.539,7.951,5.988,52.786,3.018,7.712,-6.035,52.786,-0.719,10.066,0.719,-5.865,-99.707,11.73
5.8,-2.395,7.664,6.179,58.651,2.826,7.712,-6.227,58.651,-1.15,10.785,0.863,-5.865,-93.842,23.46
5.805,-2.203,7.664,6.514,70.381,2.395,7.616,-6.323,64.516,-1.582,11.504,1.15,-5.865,-82.111,29.326
5.8100000000000005,-1.724,7.951,6.562,76.246,2.012,7.568,-6.275,70.381,-1.15,11.073,1.15,-5.865,-70.381,29.326
5.815,-1.581,7.951,6.562,76.246,2.012,7.616,-6.323,76.246,-0.431,10.641,1.15,-5.865,-58.651,35.191
5.82,-1.677,7.808,6.419,82.111,2.108,7.76,-6.227,82.111,0.431,10.497,1.294,-5.865,-46.921,29.326
5.825,-2.108,7.999,6.227,87.977,2.251,7.616,-5.844,82.111,1.007,10.354,1.294,-5.865,-46.921,23.46
5.83,-2.012,8.287,5.988,87.977,2.108,7.329,-5.509,87.977,1.726,10.21,1.438,-11.73,-52.786,11.73
5.835,-1.629,8.143,5.844,93.842,2.395,8.143,-5.509,87.977,2.157,10.497,1.582,-11.73,-64.516,-5.865
5.84,-1.533,7.329,5.844,93.842,2.635,8.143,-5.7,82.111,2.588,10.929,1.582,-17.595,-70.381,-17.595
5.845,-1.629,7.425,5.556,99.707,2.443,8.383,-5.892,76.246,3.02,10.929,1.582,-17.595,-76.246,-35.191
5.8500000000000005,-1.485,7.904,6.035,105.572,2.251,8.574,-6.323,82.111,3.307,11.216,1.438,-17.595,-87.977,-46.921
5.855,-1.581,7.712,6.131,105.572,2.539,8.622,-6.514,87.977,3.164,11.073,1.15,-17.595,-93.842,-52.786
5.86,-1.006,7.568,6.419,111.437,3.114,8.478,-6.802,93.842,3.164,11.216,0.719,-17.595,-99.707,-58.651
5.865,-1.102,7.616,6.562,111.437,3.066,8.287,-6.85,99.707,3.164,10.929,0.288,-11.73,-105.572,-58.651
5.87,-1.533,8.047,6.658,111.437,3.018,8.143,-6.754,105.572,2.732,10.641,-0.144,-11.73,-111.437,-58.651
5.875,-2.203,8.43,7.041,105.572,2.203,8.766,-6.898,105.572,2.301,10.641,-0.288,-11.73,-117.302,-58.651
5.88,-2.73,8.574,7.329,99.707,2.539,8.047,-6.802,111.437,2.013,10.929,-0.431,-11.73,-117.302,-58.651
5.885,-2.826,8.622,7.137,99.707,2.251,8.143,-6.658,111.437,1.726,11.073,-0.575,0.0,-111.437,-46.921
5.89,-2.156,8.909,7.041,105.572,2.395,7.664,-6.562,105.572,1.582,10.641,-0.719,5.865,-105.572,-46.921
5.8950000000000005,-2.251,8.766,7.137,105.572,2.108,8.239,-6.754,105.572,1.294,10.929,-1.438,5.865,-93.842,-41.056
5.9,-2.156,9.197,7.472,99.707,2.108,8.814,-7.089,99.707,1.438,11.073,-1.294,5.865,-76.246,-41.056
5.905,-2.251,9.676,7.712,93.842,2.539,9.341,-7.472,93.842,1.582,10.785,-1.582,17.595,-64.516,-35.191
5.91,-2.539,10.011,7.808,93.842,3.353,10.011,-7.904,93.842,1.869,11.073,-2.013,23.46,-52.786,-35.191
5.915,-3.066,10.107,8.239,99.707,4.072,10.73,-8.622,93.842,2.157,10.929,-1.869,29.326,-52.786,-23.46
5.92,-3.257,10.586,8.862,111.437,4.455,10.73,-9.341,105.572,2.013,11.216,-1.438,29.326,-46.921,-23.46
5.925,-3.066,10.346,9.772,123.167,4.503,10.778,-10.251,117.302,1.582,11.504,-1.438,29.326,-41.056,-23.46
5.93,-2.826,9.772,10.442,129.032,3.976,10.825,-10.634,134.897,1.438,12.079,-2.013,29.326,-35.191,-17.595
5.9350000000000005,-2.682,9.676,11.113,134.897,3.305,10.251,-10.921,146.628,1.438,12.511,-2.445,35.191,-23.46,-11.73
5.94,-2.156,9.293,11.304,140.762,2.826,9.628,-10.873,158.358,1.582,12.798,-2.732,35.191,-23.46,0.0
5.945,-1.677,9.293,11.209,146.628,2.539,8.526,-10.778,164.223,1.438,12.798,-2.588,35.191,-23.46,17.595
5.95,-1.485,8.909,11.017,152.493,2.491,8.239,-10.538,164.223,1.438,13.086,-2.445,41.056,-29.326,35.191
5.955,-1.485,8.383,10.586,152.493,2.491,8.095,-10.251,158.358,1.582,13.373,-2.445,52.786,-29.326,52.786
5.96,-1.293,8.191,10.107,146.628,2.443,7.904,-9.772,152.493,1.582,13.517,-2.445,64.516,-29.326,70.381
5.965,-1.437,7.712,9.484,146.628,2.347,7.999,-9.149,152.493,1.438,13.373,-2.732,76.246,-35.191,93.842
5.97,-1.772,7.568,9.101,140.762,2.299,8.095,-8.862,146.628,1.294,12.942,-3.02,87.977,-41.056,111.437
5.9750000000000005,-1.772,7.951,8.862,140.762,2.539,7.904,-8.574,146.628,1.438,12.367,-2.732,99.707,-52.786,134.897
5.98,-1.677,8.909,8.67,140.762,2.635,7.999,-8.335,146.628,1.294,11.648,-2.732,105.572,-64.516,158.358
5.985,-1.964,8.574,8.574,129.032,2.73,8.095,-8.191,146.628,1.007,11.216,-2.445,117.302,-76.246,170.088
5.99,-2.682,8.191,8.622,129.032,2.491,8.191,-8.191,146.628,1.15,10.497,-2.732,123.167,-76.246,181.818
5.995,-2.587,8.287,8.574,134.897,2.491,7.904,-8.143,140.762,1.15,9.922,-2.445,129.032,-82.111,193.548
6.0,-2.491,8.287,8.526,134.897,2.635,7.329,-7.999,140.762,1.007,9.922,-2.157,134.897,-82.111,193.548
6.005,-2.587,8.335,8.383,140.762,2.443,6.802,-7.76,146.628,1.438,9.347,-2.013,129.032,-76.246,199.413
6.01,-2.587,7.856,8.191,140.762,2.347,6.227,-7.52,152.493,1.438,9.059,-1.869,123.167,-64.516,199.413
6.015000000000001,-2.73,6.898,7.951,140.762,2.299,5.892,-7.425,152.493,1.15,9.491,-1.869,117.302,-46.921,193.548
6.0200000000000005,-2.395,5.844,8.191,146.628,1.677,5.317,-7.904,158.358,1.438,9.203,-1.726,117.302,-35.191,193.548
6.025,-1.677,5.317,8.574,158.358,1.868,4.742,-8.43,164.223,1.438,9.635,-1.726,117.302,-23.46,193.548
6.03,-0.862,4.886,9.101,164.223,2.203,4.551,-9.005,175.953,1.582,10.21,-1.869,117.302,-11.73,199.413
