time_aligned_sec,L_Acc_X_aligned,L_Acc_Y_aligned,L_Acc_Z_aligned,L_Gyro_Z_aligned,R_Acc_X_aligned,R_Acc_Y_aligned,R_Acc_Z_aligned,R_Gyro_Z_aligned,T_Acc_X_aligned,T_Acc_Y_aligned,T_Acc_Z_aligned,T_Gyro_X_aligned,T_Gyro_Y_aligned,T_Gyro_Z_aligned
0.0,2.012,9.82,-2.347,-35.191,-1.964,10.682,2.874,-35.191,2.301,9.203,2.157,29.326,11.73,41.056
0.005,2.012,9.628,-2.203,-41.056,-1.916,10.442,2.826,-41.056,2.301,9.635,1.869,35.191,11.73,46.921
0.01,2.012,9.532,-1.916,-41.056,-1.724,9.963,2.587,-41.056,2.301,10.354,1.726,35.191,11.73,46.921
0.015,2.012,9.676,-1.772,-41.056,-1.868,9.388,2.395,-41.056,2.301,10.641,1.294,29.326,5.865,41.056
0.02,1.868,9.772,-1.437,-41.056,-1.629,9.005,2.156,-46.921,2.301,10.641,1.15,23.46,5.865,41.056
0.025,1.916,9.724,-1.198,-41.056,-1.581,8.814,1.82,-41.056,2.301,10.497,1.007,5.865,5.865,35.191
0.03,1.772,9.676,-1.054,-35.191,-1.437,8.814,1.677,-41.056,2.301,10.354,0.863,0.0,11.73,35.191
0.035,1.772,9.532,-0.91,-35.191,-1.437,8.766,1.485,-35.191,2.445,10.066,0.719,-11.73,11.73,35.191
0.04,1.916,9.388,-0.814,-35.191,-1.437,8.622,1.389,-35.191,2.445,9.778,0.575,-17.595,11.73,35.191
0.045,2.06,9.293,-0.671,-29.326,-1.581,8.622,1.293,-35.191,2.445,9.347,0.431,-29.326,11.73,29.326
0.05,2.108,9.245,-0.431,-29.326,-1.868,8.909,1.102,-29.326,2.157,9.203,0.288,-29.326,11.73,29.326
0.055,2.06,9.388,-0.24,-29.326,-2.012,9.341,0.862,-29.326,2.013,9.203,-0.0,-29.326,5.865,23.46
0.06,2.06,9.58,-0.048,-23.46,-2.108,9.963,0.623,-23.46,2.301,9.347,-0.144,-23.46,0.0,23.46
0.065,2.203,9.915,0.144,-17.595,-2.299,10.394,0.431,-17.595,2.588,9.778,-0.288,-17.595,0.0,23.46
0.07,2.347,10.251,0.24,-17.595,-2.251,10.825,0.335,-17.595,2.732,10.066,-0.0,-5.865,-5.865,23.46
0.075,2.539,10.49,0.096,-23.46,-2.395,11.017,0.335,-17.595,2.876,10.066,0.144,0.0,-5.865,29.326
0.08,2.635,10.634,-0.096,-23.46,-2.491,11.113,0.527,-23.46,3.02,9.778,0.144,0.0,-11.73,35.191
0.085,2.635,10.49,-0.144,-35.191,-2.491,11.113,0.623,-29.326,2.876,9.491,-0.0,5.865,-11.73,46.921
0.09,2.635,10.107,-0.096,-41.056,-2.395,10.825,0.623,-41.056,2.876,8.916,-0.144,5.865,-11.73,52.786
0.095,2.682,9.58,0.144,-52.786,-2.443,10.346,0.479,-46.921,2.732,8.628,-0.288,17.595,-17.595,64.516
0.1,2.539,9.101,0.24,-58.651,-2.443,9.82,0.287,-58.651,2.445,8.34,-0.431,23.46,-17.595,70.381
0.105,2.299,8.718,0.335,-64.516,-2.347,9.245,0.24,-64.516,2.301,8.34,-0.431,23.46,-23.46,76.246
0.11,2.251,8.383,0.431,-70.381,-2.347,8.67,0.144,-70.381,2.157,8.197,-0.288,23.46,-23.46,76.246
0.115,2.203,8.143,0.335,-76.246,-2.299,8.239,0.144,-76.246,2.157,8.34,-0.0,23.46,-29.326,76.246
0.12,2.156,8.047,0.192,-76.246,-2.299,7.904,0.287,-76.246,2.445,8.34,-0.0,23.46,-35.191,76.246
0.125,2.251,7.999,0.048,-76.246,-2.299,7.712,0.383,-76.246,2.876,8.34,-0.0,17.595,-35.191,70.381
0.13,2.395,7.951,-0.048,-70.381,-2.156,7.616,0.527,-70.381,3.02,8.34,0.144,5.865,-35.191,58.651
0.135,2.539,7.856,-0.192,-64.516,-2.156,7.472,0.623,-64.516,3.164,8.34,0.288,5.865,-35.191,58.651
0.14,2.587,7.76,-0.287,-58.651,-2.251,7.233,0.814,-64.516,3.164,7.909,0.288,0.0,-35.191,52.786
0.145,2.587,7.568,-0.335,-52.786,-2.203,7.137,0.91,-52.786,3.164,7.765,0.144,-5.865,-35.191,46.921
0.15,2.635,7.281,-0.192,-46.921,-2.156,6.898,0.814,-52.786,3.164,7.478,-0.0,-17.595,-29.326,46.921
0.155,2.778,7.041,0.0,-41.056,-2.395,6.562,0.623,-46.921,3.02,7.19,-0.288,-17.595,-29.326,41.056
0.16,2.73,6.802,0.192,-41.056,-2.587,6.371,0.431,-46.921,2.732,6.902,-0.575,-29.326,-29.326,41.056
0.165,2.635,6.562,0.431,-35.191,-2.682,6.179,0.24,-41.056,2.588,6.759,-0.719,-29.326,-35.191,35.191
0.17,2.443,6.371,0.623,-35.191,-2.635,5.988,0.0,-35.191,2.445,6.615,-0.575,-35.191,-35.191,29.326
0.17500000000000002,2.299,6.371,0.623,-29.326,-2.347,5.988,-0.096,-35.191,2.445,6.759,-0.431,-41.056,-35.191,23.46
0.18,2.347,6.467,0.479,-23.46,-2.347,6.179,-0.048,-29.326,2.588,6.759,-0.0,-41.056,-41.056,23.46
0.185,2.443,6.706,0.192,-17.595,-2.443,6.467,0.192,-23.46,2.732,6.759,0.288,-41.056,-46.921,17.595
0.19,2.587,6.898,-0.192,-17.595,-2.539,6.85,0.527,-17.595,2.876,6.902,0.575,-41.056,-46.921,11.73
0.195,2.73,7.041,-0.431,-11.73,-2.73,7.089,0.814,-11.73,3.164,6.902,0.575,-41.056,-52.786,11.73
0.2,2.874,7.137,-0.527,-11.73,-2.874,7.329,1.006,-11.73,3.307,7.046,0.575,-41.056,-52.786,11.73
0.20500000000000002,2.97,7.137,-0.527,-11.73,-2.826,7.281,1.006,-11.73,3.164,7.046,0.575,-41.056,-52.786,11.73
0.21,2.922,7.137,-0.527,-11.73,-2.778,7.185,1.006,-11.73,3.02,7.046,0.575,-35.191,-52.786,17.595
0.215,2.778,7.089,-0.527,-17.595,-2.778,7.041,1.054,-11.73,2.876,6.471,0.719,-41.056,-58.651,23.46
0.22,2.73,6.898,-0.623,-17.595,-2.73,6.993,1.054,-17.595,2.876,5.321,1.438,-35.191,-58.651,23.46
0.225,2.874,6.323,-1.102,-23.46,-2.874,7.041,1.341,-17.595,2.732,4.745,2.013,-29.326,-64.516,29.326
0.23,2.97,5.892,-1.82,-29.326,-3.305,7.089,1.964,-29.326,2.732,5.177,2.013,-17.595,-70.381,35.191
0.23500000000000001,2.682,5.652,-2.012,-35.191,-3.161,6.754,2.539,-35.191,2.732,5.321,1.869,-11.73,-76.246,35.191
0.24,2.635,5.509,-1.772,-35.191,-2.682,6.083,2.443,-35.191,3.02,5.033,1.726,-5.865,-76.246,29.326
0.245,2.778,5.221,-1.677,-29.326,-2.73,5.604,2.203,-35.191,3.02,4.745,1.869,-5.865,-82.111,29.326
0.25,2.778,4.934,-1.772,-29.326,-2.826,5.221,2.203,-29.326,2.732,5.033,2.157,0.0,-82.111,23.46
0.255,2.635,4.79,-2.012,-23.46,-2.443,5.03,2.395,-23.46,3.02,5.177,2.588,0.0,-82.111,17.595
0.26,2.395,4.982,-2.491,-17.595,-2.443,4.79,2.73,-23.46,3.595,5.608,3.307,0.0,-82.111,11.73
0.265,2.682,5.317,-3.114,-11.73,-1.868,5.077,3.353,-17.595,4.17,5.896,3.883,0.0,-76.246,0.0
0.27,3.305,5.652,-3.736,-0.0,-2.443,5.461,4.024,-5.865,4.602,5.896,4.17,-5.865,-70.381,-5.865
0.275,3.736,5.844,-4.167,5.865,-3.066,5.652,4.503,0.0,4.745,5.896,4.602,-5.865,-64.516,-11.73
0.28,3.784,5.988,-4.551,11.73,-3.114,5.94,4.886,5.865,4.745,5.752,5.177,0.0,-58.651,-11.73
0.28500000000000003,3.832,6.035,-5.077,11.73,-2.922,6.179,5.413,11.73,4.889,5.464,5.608,0.0,-52.786,-11.73
0.29,4.119,5.94,-5.556,11.73,-3.305,6.275,5.94,11.73,5.177,5.033,5.896,0.0,-46.921,-11.73
0.295,4.311,5.7,-5.844,11.73,-3.688,6.275,6.323,11.73,5.177,4.745,6.183,5.865,-41.056,-11.73
0.3,4.359,5.365,-6.131,11.73,-3.736,6.083,6.61,11.73,5.177,4.602,6.615,5.865,-35.191,-11.73
0.305,4.311,5.125,-6.514,11.73,-3.736,5.796,6.946,11.73,5.321,4.745,6.902,23.46,-29.326,-11.73
0.31,4.359,4.886,-6.85,17.595,-3.688,5.365,7.329,11.73,5.608,4.745,7.046,23.46,-23.46,-17.595
0.315,4.455,4.694,-7.089,17.595,-3.593,4.886,7.616,17.595,5.608,4.745,7.046,23.46,-17.595,-23.46
0.32,4.503,4.503,-7.089,23.46,-3.64,4.503,7.76,23.46,5.321,4.602,6.902,23.46,-5.865,-29.326
0.325,4.359,4.167,-6.993,29.326,-3.593,4.024,7.712,29.326,5.033,4.602,6.902,17.595,0.0,-41.056
0.33,4.072,4.072,-6.946,41.056,-3.401,3.736,7.616,35.191,5.033,5.033,6.902,5.865,11.73,-52.786
0.335,3.928,4.263,-6.946,46.921,-3.161,3.688,7.616,46.921,5.177,5.464,6.759,5.865,17.595,-58.651
0.34,3.928,4.598,-6.85,58.651,-2.97,3.784,7.568,52.786,5.033,5.896,6.471,0.0,29.326,-70.381
0.34500000000000003,3.88,4.934,-6.658,70.381,-2.97,3.928,7.377,64.516,4.602,6.327,6.615,-11.73,41.056,-82.111
0.35000000000000003,3.497,5.365,-6.658,76.246,-2.635,4.263,7.233,76.246,4.314,6.759,6.902,-17.595,52.786,-87.977
0.355,3.257,6.083,-6.898,87.977,-2.251,5.077,7.377,82.111,4.314,7.19,6.759,-23.46,58.651,-93.842
0.36,3.209,6.898,-6.85,93.842,-2.251,6.275,7.472,93.842,4.602,7.909,6.615,-29.326,70.381,-99.707
0.365,3.353,7.76,-6.658,99.707,-2.108,7.425,7.329,99.707,4.745,8.484,6.327,-29.326,82.111,-105.572
0.37,3.497,8.526,-6.419,105.572,-2.251,8.335,7.089,105.572,4.458,8.916,6.183,-29.326,93.842,-105.572
0.375,3.353,9.149,-6.227,105.572,-2.251,9.149,6.85,111.437,4.026,8.916,5.896,-23.46,99.707,-99.707
0.38,3.066,9.58,-6.035,105.572,-2.108,9.915,6.658,111.437,3.595,8.916,5.608,-17.595,111.437,-93.842
0.385,2.874,9.963,-5.7,93.842,-2.012,10.682,6.371,105.572,3.307,8.772,5.033,-11.73,117.302,-87.977
0.39,2.682,10.155,-5.221,87.977,-2.06,11.448,5.892,93.842,3.164,9.059,4.458,5.865,123.167,-76.246
0.395,2.539,10.299,-4.503,82.111,-2.06,11.783,5.269,87.977,2.876,9.347,3.739,17.595,123.167,-70.381
0.4,2.299,10.299,-3.784,70.381,-1.868,11.688,4.551,76.246,2.445,9.491,2.876,29.326,123.167,-58.651
0.405,2.012,10.251,-3.018,64.516,-1.533,11.352,3.784,70.381,2.157,9.778,2.301,41.056,129.032,-52.786
0.41000000000000003,1.772,10.251,-2.347,52.786,-1.341,11.017,3.066,58.651,1.869,9.922,1.726,46.921,129.032,-46.921
0.41500000000000004,1.485,10.203,-1.772,46.921,-1.245,10.778,2.443,52.786,1.582,10.21,1.15,46.921,129.032,-41.056
0.42,1.198,10.203,-1.198,41.056,-1.006,10.49,1.868,46.921,1.15,10.497,0.575,46.921,129.032,-35.191
0.425,0.958,10.203,-0.623,41.056,-0.719,10.155,1.293,46.921,0.719,10.497,-0.0,46.921,129.032,-35.191
0.43,0.719,10.203,0.0,35.191,-0.671,9.963,0.719,41.056,0.144,10.497,-0.719,41.056,129.032,-35.191
0.435,0.335,10.155,0.623,35.191,-0.479,9.867,0.096,41.056,-0.144,10.641,-1.15,35.191,123.167,-35.191
0.44,0.048,10.059,1.198,35.191,-0.24,9.724,-0.527,35.191,-0.288,10.785,-1.726,29.326,117.302,-35.191
0.445,-0.144,10.011,1.677,35.191,0.0,9.532,-1.006,41.056,-0.144,11.073,-2.013,23.46,111.437,-41.056
0.45,-0.144,10.155,2.012,41.056,0.192,9.388,-1.437,41.056,-0.144,11.216,-2.157,5.865,111.437,-46.921
0.455,-0.192,10.299,2.156,46.921,0.24,9.388,-1.677,46.921,-0.288,11.216,-2.157,0.0,105.572,-46.921
0.46,-0.24,10.538,2.251,46.921,0.287,9.628,-1.772,46.921,-0.288,11.216,-2.157,-5.865,105.572,-46.921
0.465,-0.287,10.73,2.156,46.921,0.287,10.059,-1.772,46.921,-0.288,11.073,-2.013,-17.595,99.707,-46.921
0.47000000000000003,-0.24,11.017,2.108,46.921,0.287,10.682,-1.724,52.786,-0.144,11.073,-1.869,-17.595,93.842,-46.921
0.47500000000000003,-0.144,11.113,2.012,46.921,0.24,11.209,-1.629,46.921,0.0,10.929,-1.726,-17.595,87.977,-46.921
0.48,0.0,11.257,1.82,46.921,0.048,11.496,-1.485,46.921,0.144,10.785,-1.726,-17.595,82.111,-41.056
0.485,0.096,11.257,1.724,46.921,-0.048,11.736,-1.341,46.921,0.144,10.641,-1.582,-11.73,76.246,-35.191
0.49,0.096,11.257,1.629,41.056,0.048,11.927,-1.198,41.056,0.144,10.641,-1.582,-5.865,76.246,-23.46
0.495,0.144,11.304,1.581,35.191,0.096,12.071,-1.102,35.191,0.431,10.929,-1.726,5.865,70.381,-23.46
0.5,0.192,11.304,1.677,23.46,0.0,12.023,-1.15,29.326,0.431,11.36,-2.013,5.865,70.381,-11.73
0.505,0.144,11.496,1.868,17.595,0.144,11.879,-1.293,23.46,0.431,11.504,-2.588,5.865,70.381,-5.865
0.51,0.144,11.448,2.347,11.73,0.192,11.64,-1.629,11.73,0.0,11.504,-3.02,5.865,70.381,0.0
0.515,-0.144,11.4,2.874,5.865,0.383,11.352,-2.108,11.73,-0.575,11.504,-3.451,5.865,64.516,0.0
0.52,-0.479,11.161,3.401,-0.0,0.575,11.065,-2.73,5.865,-1.15,11.504,-3.595,5.865,64.516,5.865
0.525,-0.958,10.969,3.593,-5.865,0.862,10.682,-3.114,0.0,-1.15,11.216,-3.739,-5.865,58.651,5.865
0.53,-1.054,10.634,3.784,-5.865,1.006,10.251,-3.209,0.0,-1.007,11.216,-3.883,-11.73,52.786,0.0
0.535,-0.862,10.442,3.88,-0.0,0.862,9.915,-3.401,0.0,-0.719,11.216,-3.739,-17.595,46.921,0.0
0.54,-0.623,10.346,3.832,-0.0,0.623,9.676,-3.401,5.865,-0.431,11.216,-3.307,-29.326,41.056,-5.865
0.545,-0.383,10.251,3.497,5.865,0.479,9.532,-3.257,5.865,-0.288,11.648,-2.588,-41.056,35.191,-5.865
0.55,-0.335,10.442,2.73,5.865,0.383,9.245,-2.682,5.865,0.0,10.929,-2.013,-52.786,35.191,-5.865
0.555,-0.096,10.346,2.251,5.865,0.192,9.245,-1.964,11.73,0.0,10.066,-1.007,-64.516,29.326,-5.865
0.56,0.048,9.867,1.341,5.865,0.192,9.628,-1.389,5.865,0.144,9.491,0.719,-70.381,29.326,-11.73
0.5650000000000001,0.0,9.628,-0.24,11.73,0.048,9.772,-0.096,11.73,0.719,9.491,2.445,-64.516,23.46,-23.46
0.5700000000000001,0.24,9.915,-2.012,23.46,0.24,10.299,1.677,17.595,1.869,9.347,3.739,-64.516,23.46,-23.46
0.5750000000000001,1.054,10.203,-3.497,23.46,-0.144,10.969,3.353,23.46,2.732,9.059,4.889,-52.786,29.326,-17.595
0.58,1.868,10.346,-4.694,23.46,-0.766,11.592,4.598,23.46,3.164,9.059,6.04,-35.191,29.326,-17.595
0.585,2.203,10.394,-5.892,23.46,-1.245,12.023,5.796,23.46,3.164,9.059,7.046,-17.595,35.191,-17.595
0.59,2.251,10.538,-6.898,17.595,-1.341,12.31,6.993,17.595,3.307,9.203,7.621,0.0,41.056,-11.73
0.595,2.251,10.73,-7.568,11.73,-1.293,12.598,7.856,17.595,3.595,9.491,7.621,17.595,52.786,-5.865
0.6,2.443,10.873,-7.712,5.865,-1.198,12.741,8.239,11.73,3.739,9.635,7.621,35.191,58.651,0.0
0.605,2.635,10.73,-7.664,-0.0,-1.389,12.502,8.191,5.865,3.595,9.491,7.478,52.786,70.381,11.73
0.61,2.587,10.442,-7.568,-5.865,-1.485,11.783,8.143,0.0,3.451,9.203,7.19,64.516,76.246,17.595
0.615,2.299,9.963,-7.281,-17.595,-1.245,11.161,7.951,-11.73,3.307,8.916,6.902,70.381,87.977,23.46
0.62,2.251,9.484,-6.946,-17.595,-1.15,10.49,7.616,-17.595,3.164,9.059,6.183,76.246,99.707,23.46
0.625,2.06,9.101,-6.323,-23.46,-1.102,9.82,7.185,-17.595,3.02,9.347,5.177,82.111,105.572,23.46
0.63,1.82,8.909,-5.461,-23.46,-0.862,9.101,6.419,-17.595,2.445,9.491,4.026,76.246,117.302,17.595
0.635,1.389,8.766,-4.407,-17.595,-0.431,8.43,5.461,-17.595,1.726,9.491,2.588,70.381,129.032,11.73
0.64,1.054,8.383,-3.066,-11.73,-0.24,7.568,4.215,-11.73,1.294,9.491,0.431,52.786,134.897,11.73
0.645,0.719,7.999,-1.054,-11.73,-0.24,6.706,2.539,-11.73,0.0,9.347,-1.869,35.191,140.762,11.73
0.65,-0.096,7.568,1.341,-11.73,0.383,5.988,0.287,-5.865,-1.438,9.347,-4.314,5.865,140.762,11.73
0.655,-0.91,7.137,3.736,-11.73,0.814,5.03,-2.156,-5.865,-2.588,9.203,-6.759,-17.595,140.762,5.865
0.66,-1.581,6.898,6.323,-5.865,0.719,4.407,-4.694,-5.865,-3.739,8.916,-8.916,-41.056,129.032,-5.865
0.665,-2.347,6.85,8.67,5.865,1.006,4.359,-7.281,5.865,-4.314,8.484,-10.21,-70.381,111.437,-17.595
0.67,-2.73,6.802,10.251,17.595,1.15,4.742,-9.293,11.73,-4.458,7.621,-11.073,-87.977,87.977,-35.191
0.675,-2.97,6.706,11.113,29.326,1.245,5.125,-10.49,23.46,-4.026,6.902,-11.073,-105.572,64.516,-41.056
0.68,-2.922,6.419,11.304,41.056,1.485,5.652,-11.113,35.191,-3.164,6.471,-10.641,-111.437,46.921,-46.921
0.685,-2.203,6.179,10.969,46.921,1.198,5.796,-10.921,46.921,-2.445,6.327,-9.778,-117.302,23.46,-46.921
0.6900000000000001,-1.677,6.371,10.203,52.786,0.766,6.083,-10.346,46.921,-2.157,6.183,-8.916,-117.302,5.865,-52.786
0.6950000000000001,-1.437,6.706,9.341,52.786,0.766,6.85,-9.436,52.786,-1.869,5.752,-8.053,-111.437,-5.865,-52.786
0.7000000000000001,-1.15,6.946,8.43,52.786,0.479,7.76,-8.526,52.786,-1.438,5.464,-7.478,-99.707,-17.595,-46.921
0.705,-0.766,6.85,7.712,46.921,0.144,8.239,-7.712,52.786,-1.15,5.321,-6.615,-87.977,-35.191,-35.191
0.71,-0.527,6.706,6.993,41.056,0.0,8.191,-6.993,46.921,-1.007,5.033,-5.464,-70.381,-46.921,-23.46
0.715,-0.383,6.61,5.844,29.326,-0.192,8.191,-6.035,35.191,-0.575,4.889,-4.026,-52.786,-58.651,-17.595
0.72,-0.096,6.658,4.455,23.46,-0.431,8.478,-4.742,23.46,0.144,5.033,-2.445,-29.326,-70.381,-11.73
0.725,0.335,7.041,2.922,17.595,-0.623,9.053,-3.257,17.595,0.863,5.464,-0.719,-5.865,-76.246,-11.73
0.73,0.91,7.472,1.245,11.73,-0.91,9.772,-1.629,17.595,1.869,6.327,1.15,23.46,-82.111,-5.865
0.735,1.485,8.095,-0.623,11.73,-1.341,10.203,0.144,11.73,2.876,7.334,3.02,46.921,-87.977,0.0
0.74,2.06,8.814,-2.443,5.865,-1.485,10.682,2.012,5.865,3.883,8.34,4.602,70.381,-87.977,0.0
0.745,2.778,9.436,-4.215,-0.0,-1.772,11.017,3.832,0.0,4.745,9.347,6.183,87.977,-82.111,5.865
0.75,3.305,10.011,-5.796,-5.865,-2.06,11.209,5.509,-5.865,5.321,10.354,7.334,99.707,-70.381,5.865
0.755,3.736,10.586,-7.137,-5.865,-2.203,11.304,6.993,-5.865,5.608,11.216,8.197,111.437,-58.651,5.865
0.76,4.024,11.113,-8.095,-5.865,-2.443,11.304,8.191,-5.865,6.04,12.223,8.34,111.437,-46.921,5.865
0.765,4.311,11.592,-8.478,-5.865,-2.539,11.257,8.862,-5.865,6.327,12.942,8.053,105.572,-29.326,11.73
0.77,4.551,11.831,-8.383,-5.865,-2.73,11.017,9.005,-5.865,6.183,13.086,7.478,93.842,-17.595,11.73
0.775,4.455,11.736,-7.856,-11.73,-2.826,10.442,8.67,-5.865,5.608,12.942,6.759,76.246,0.0,11.73
0.78,4.215,11.4,-7.041,-11.73,-2.682,9.915,8.047,-11.73,5.177,12.079,5.896,58.651,17.595,5.865
0.785,4.024,10.873,-6.179,-5.865,-2.778,9.628,7.137,-5.865,4.602,11.216,5.033,41.056,29.326,-5.865
0.79,3.688,10.251,-5.317,-0.0,-2.73,9.293,6.323,0.0,4.026,10.641,4.17,29.326,41.056,-17.595
0.795,3.353,9.82,-4.407,11.73,-2.635,9.101,5.413,11.73,3.739,10.929,3.164,17.595,46.921,-23.46
0.8,3.018,9.963,-3.497,23.46,-2.587,8.909,4.503,23.46,3.307,11.504,1.869,5.865,46.921,-35.191
0.805,2.826,10.49,-2.156,35.191,-2.251,9.293,3.353,35.191,3.02,11.935,1.007,-5.865,52.786,-29.326
0.81,2.73,11.161,-1.15,35.191,-2.443,9.676,2.06,35.191,2.445,11.504,0.288,-17.595,52.786,-23.46
0.8150000000000001,2.347,11.688,-0.431,29.326,-2.443,10.73,1.245,35.191,2.157,10.641,-0.0,-17.595,46.921,-17.595
0.8200000000000001,2.347,11.113,0.096,17.595,-2.251,11.975,0.575,23.46,2.301,11.216,-0.144,-11.73,41.056,-35.191
0.8250000000000001,2.299,11.544,0.24,29.326,-2.778,12.215,0.24,23.46,2.732,12.367,-0.288,-5.865,35.191,-35.191
0.8300000000000001,2.251,12.502,0.24,35.191,-2.06,12.598,0.287,35.191,3.02,12.511,-0.719,0.0,35.191,-17.595
0.835,2.682,13.029,0.623,23.46,-2.203,12.933,0.096,35.191,2.588,12.367,-1.007,0.0,29.326,0.0
0.84,2.682,13.029,1.006,5.865,-2.73,13.556,-0.383,11.73,2.157,12.511,-1.15,5.865,29.326,11.73
0.845,2.156,13.029,1.102,-11.73,-2.395,13.747,-0.575,-5.865,2.013,12.798,-1.438,5.865,23.46,17.595
0.85,2.108,12.981,1.341,-17.595,-2.251,13.508,-0.766,-11.73,2.157,12.798,-1.869,5.865,17.595,23.46
0.855,2.06,12.694,1.724,-17.595,-2.203,12.885,-1.054,-17.595,1.869,12.798,-2.013,5.865,11.73,23.46
0.86,1.916,12.358,2.012,-23.46,-2.012,12.262,-1.437,-17.595,1.726,12.654,-2.157,5.865,5.865,23.46
0.865,1.677,12.023,2.156,-23.46,-1.82,11.448,-1.629,-23.46,1.726,12.511,-2.157,0.0,0.0,29.326
0.87,1.533,11.736,2.156,-23.46,-1.485,10.969,-1.677,-23.46,1.726,12.367,-2.013,-11.73,-5.865,29.326
0.875,1.629,11.544,2.012,-29.326,-1.533,10.73,-1.629,-29.326,1.726,12.079,-1.726,-23.46,-5.865,29.326
0.88,1.677,11.496,1.772,-29.326,-1.629,10.73,-1.389,-29.326,1.869,11.648,-1.582,-29.326,-11.73,29.326
0.885,1.772,11.352,1.677,-23.46,-1.772,10.873,-1.245,-29.326,2.013,11.504,-1.438,-35.191,-17.595,23.46
0.89,1.868,11.161,1.485,-23.46,-1.772,10.921,-1.102,-29.326,2.157,11.36,-1.007,-41.056,-17.595,23.46
0.895,1.964,11.113,1.006,-17.595,-1.82,10.825,-0.766,-23.46,2.301,11.073,-0.719,-41.056,-23.46,23.46
0.9,2.06,11.017,0.766,-17.595,-1.868,10.778,-0.383,-17.595,2.445,10.641,-0.431,-46.921,-23.46,23.46
0.905,2.156,10.825,0.527,-17.595,-2.012,10.921,-0.144,-17.595,2.588,10.354,-0.0,-46.921,-29.326,23.46
0.91,2.299,10.586,0.192,-17.595,-2.156,11.017,0.096,-17.595,2.732,10.066,0.431,-41.056,-29.326,17.595
0.915,2.395,10.442,-0.24,-17.595,-2.251,10.873,0.479,-17.595,3.02,9.778,0.863,-41.056,-35.191,23.46
0.92,2.491,10.346,-0.814,-17.595,-2.203,10.778,1.006,-17.595,3.451,9.491,1.294,-35.191,-35.191,23.46
0.925,2.826,10.203,-1.245,-17.595,-2.299,10.873,1.533,-17.595,3.595,9.347,1.582,-29.326,-35.191,23.46
0.93,3.018,10.011,-1.581,-17.595,-2.491,10.778,1.916,-17.595,3.883,9.059,1.726,-23.46,-29.326,29.326
0.935,3.161,9.724,-1.772,-29.326,-2.587,10.49,2.203,-23.46,3.883,8.916,1.726,-17.595,-29.326,41.056
0.9400000000000001,3.209,9.341,-1.82,-35.191,-2.682,10.011,2.347,-35.191,3.595,8.484,1.726,-11.73,-23.46,46.921
0.9450000000000001,3.114,8.909,-1.724,-41.056,-2.682,9.436,2.347,-41.056,3.451,8.197,1.438,-11.73,-23.46,52.786
0.9500000000000001,2.922,8.383,-1.581,-46.921,-2.587,8.862,2.203,-46.921,3.164,7.909,1.438,-11.73,-23.46,52.786
0.9550000000000001,2.73,7.856,-1.389,-52.786,-2.539,8.239,2.012,-52.786,3.02,7.765,1.294,-11.73,-23.46,46.921
0.96,2.635,7.472,-1.389,-46.921,-2.443,7.472,1.916,-52.786,3.02,7.621,1.15,-11.73,-23.46,46.921
0.965,2.587,7.281,-1.245,-46.921,-2.395,6.993,1.868,-46.921,3.307,7.909,1.15,-17.595,-17.595,46.921
0.97,2.682,7.233,-1.15,-46.921,-2.203,6.658,1.772,-46.921,3.451,7.909,1.007,-23.46,-17.595,41.056
0.975,2.826,7.329,-1.102,-41.056,-2.395,6.61,1.677,-46.921,2.876,6.759,0.575,-29.326,-17.595,35.191
0.98,2.587,6.562,-0.671,-35.191,-2.443,6.514,1.437,-41.056,2.876,7.909,1.007,-35.191,-17.595,29.326
0.985,2.251,6.993,-0.91,-29.326,-2.06,6.275,1.198,-35.191,3.307,8.053,0.719,-46.921,-11.73,29.326
0.99,2.587,7.568,-0.91,-23.46,-1.868,6.179,1.581,-23.46,3.451,7.621,0.431,-52.786,-11.73,35.191
0.995,2.97,7.377,-0.431,-35.191,-2.491,6.754,1.102,-29.326,3.02,7.19,0.719,-58.651,-5.865,35.191
1.0,2.682,7.233,-0.623,-35.191,-2.491,7.137,1.054,-35.191,2.588,6.759,1.007,-64.516,-5.865,35.191
1.0050000000000001,2.347,6.898,-0.91,-35.191,-2.203,6.993,1.293,-35.191,2.732,5.608,1.007,-64.516,-5.865,35.191
1.01,2.443,6.227,-0.91,-35.191,-2.347,6.658,1.485,-35.191,2.876,4.745,0.863,-58.651,-5.865,41.056
1.0150000000000001,2.635,5.413,-0.862,-35.191,-2.491,6.275,1.389,-35.191,3.02,4.17,0.863,-52.786,-11.73,41.056
1.02,2.635,4.838,-0.958,-35.191,-2.443,5.652,1.485,-41.056,3.164,3.595,0.863,-46.921,-5.865,35.191
1.025,2.635,4.215,-0.91,-35.191,-2.347,5.03,1.485,-35.191,3.164,3.02,0.719,-41.056,-5.865,35.191
1.03,2.73,3.593,-0.766,-35.191,-2.347,4.407,1.437,-35.191,3.164,2.301,0.575,-41.056,-5.865,29.326
1.035,2.826,2.778,-0.575,-29.326,-2.539,3.64,1.245,-35.191,3.02,1.294,0.575,-35.191,-5.865,23.46
1.04,2.635,1.868,-0.527,-29.326,-2.587,2.73,1.15,-29.326,2.732,-0.288,0.431,-29.326,-5.865,23.46
1.045,2.443,0.527,-0.527,-23.46,-2.347,1.581,1.15,-23.46,2.588,-2.013,0.719,-23.46,0.0,17.595
1.05,2.203,-1.102,-0.719,-17.595,-2.06,0.096,1.245,-17.595,2.445,-3.739,0.719,-17.595,0.0,17.595
1.055,1.916,-2.778,-0.862,-11.73,-1.677,-1.485,1.485,-11.73,2.157,-5.321,0.863,-11.73,5.865,5.865
1.06,1.724,-4.551,-0.958,-11.73,-1.245,-3.114,1.629,-11.73,2.301,-6.615,0.863,-5.865,11.73,-5.865
1.065,1.724,-6.179,-1.006,-0.0,-1.293,-4.934,1.724,0.0,2.157,-7.765,0.863,0.0,17.595,-23.46
1.07,1.629,-7.568,-0.91,23.46,-1.293,-6.754,1.677,11.73,1.438,-9.059,1.15,0.0,23.46,-52.786
1.075,0.91,-8.909,-1.198,46.921,-0.623,-8.239,1.772,35.191,0.719,-10.497,1.726,5.865,35.191,-82.111
1.08,0.431,-10.203,-1.677,76.246,-0.048,-9.436,2.299,58.651,0.144,-10.785,1.869,5.865,41.056,-117.302
1.085,0.096,-10.778,-1.82,105.572,-0.192,-10.155,2.539,93.842,-0.431,-8.772,1.726,17.595,41.056,-152.493
1.09,-0.383,-9.484,-1.724,140.762,0.144,-9.867,2.539,129.032,-0.719,-5.177,1.438,23.46,41.056,-193.548
1.095,-0.575,-6.179,-1.485,181.818,0.335,-7.664,2.299,164.223,-0.863,-1.007,1.582,29.326,41.056,-222.874
1.1,-0.479,-1.916,-1.389,217.009,0.096,-3.688,2.06,205.279,20.851,27.61,-9.778,-52.786,23.46,-193.548
1.105,3.928,21.986,6.562,240.469,0.287,-3.066,1.341,240.469,-15.962,6.04,-8.053,-281.525,105.572,-70.381
1.11,-1.006,21.268,10.73,193.548,6.562,22.753,-7.664,228.739,-9.203,33.649,-2.876,70.381,23.46,-123.167
1.115,1.916,23.998,7.856,164.223,-18.921,24.429,-11.065,170.088,8.772,48.173,-6.902,422.287,-158.358,-41.056
1.12,2.347,23.998,7.137,76.246,-9.053,24.429,-8.43,123.167,6.902,33.074,-6.759,357.771,-164.223,82.111
1.125,0.479,20.884,6.179,-46.921,6.61,3.161,-7.233,11.73,2.732,12.798,-3.883,164.223,-99.707,164.223
1.1300000000000001,1.15,12.454,4.79,-146.628,4.742,3.497,-5.365,-105.572,3.307,2.445,-0.288,82.111,-76.246,181.818
1.135,2.73,5.077,1.054,-181.818,-2.156,8.478,-2.347,-181.818,5.896,4.602,2.157,82.111,-70.381,140.762
1.1400000000000001,3.401,3.018,-1.677,-152.493,-2.395,5.796,1.006,-175.953,8.34,12.511,3.883,93.842,-58.651,52.786
1.145,5.03,6.514,-3.832,-76.246,-1.964,3.545,3.545,-123.167,9.203,19.269,3.883,76.246,-35.191,-58.651
1.1500000000000001,6.419,12.023,-4.215,29.326,-3.784,4.503,4.934,-23.46,8.34,21.57,3.595,23.46,-17.595,-146.628
1.155,5.796,16.717,-3.832,123.167,-4.072,8.909,4.551,87.977,6.183,19.125,4.458,-35.191,11.73,-181.818
1.16,4.407,17.627,-4.359,175.953,-2.491,13.46,4.551,164.223,5.177,16.249,4.026,-70.381,29.326,-164.223
1.165,4.072,15.855,-4.119,175.953,-2.778,14.61,5.077,187.683,4.314,12.798,3.164,-99.707,41.056,-123.167
1.17,3.832,13.891,-3.209,134.897,-3.209,13.316,4.119,164.223,3.164,9.203,2.732,-111.437,41.056,-82.111
1.175,3.688,11.783,-2.539,93.842,-3.64,13.316,3.209,117.302,2.732,7.046,2.876,-99.707,35.191,-46.921
1.18,3.161,10.107,-2.635,58.651,-4.215,13.22,2.874,76.246,3.02,7.046,3.451,-70.381,23.46,-23.46
1.185,2.922,9.197,-3.305,35.191,-3.401,12.55,3.401,46.921,4.026,8.197,3.164,-46.921,11.73,-23.46
1.19,3.209,8.957,-3.401,29.326,-3.209,10.969,3.976,29.326,4.458,9.922,1.869,-29.326,11.73,-23.46
1.195,3.114,9.341,-2.347,29.326,-2.491,9.628,3.545,23.46,3.595,10.785,0.719,-29.326,17.595,-23.46
1.2,2.635,10.011,-1.102,23.46,-1.724,8.862,2.251,29.326,2.876,10.354,-0.719,-41.056,29.326,-11.73
1.205,2.299,9.915,0.431,17.595,-1.82,9.484,0.862,23.46,2.013,11.504,-1.15,-41.056,29.326,-11.73
1.21,1.437,11.352,0.862,17.595,-1.054,10.442,-0.096,17.595,2.157,11.216,-2.157,-41.056,35.191,-5.865
1.215,1.724,12.215,1.772,11.73,-1.341,12.119,-0.862,17.595,2.157,11.36,-2.732,-35.191,29.326,-5.865
1.22,1.964,12.071,2.73,5.865,-2.156,13.46,-2.012,5.865,1.582,10.785,-2.588,-29.326,23.46,0.0
1.225,1.245,11.448,2.491,5.865,-1.341,12.406,-2.156,5.865,1.869,9.491,-3.307,-23.46,23.46,0.0
1.23,1.437,10.346,2.97,-0.0,-1.054,11.448,-2.156,5.865,1.869,9.203,-3.595,-17.595,17.595,0.0
1.235,1.629,9.772,3.497,-0.0,-1.485,10.73,-2.922,0.0,1.294,9.203,-3.164,-5.865,17.595,0.0
1.24,1.15,9.676,3.257,-0.0,-1.198,10.346,-2.97,0.0,2.013,8.772,-2.732,0.0,11.73,5.865
1.245,1.629,9.58,2.826,-0.0,-1.389,10.203,-2.491,0.0,2.732,9.059,-2.301,5.865,5.865,5.865
1.25,2.203,9.58,2.299,-5.865,-1.82,10.49,-2.06,0.0,2.732,9.059,-1.726,17.595,5.865,0.0
1.2550000000000001,2.299,9.484,1.724,-0.0,-2.06,10.155,-1.485,0.0,2.445,8.916,-1.438,23.46,5.865,0.0
1.26,2.156,9.245,1.437,5.865,-1.964,9.724,-1.006,0.0,2.445,9.347,-1.582,23.46,0.0,0.0
1.2650000000000001,2.156,9.484,1.485,-0.0,-2.012,9.484,-0.958,5.865,2.445,9.635,-1.294,29.326,0.0,5.865
1.27,2.156,9.772,1.389,-5.865,-2.156,9.724,-1.006,0.0,2.445,9.635,-1.15,29.326,-5.865,11.73
1.2750000000000001,2.203,9.676,1.15,-11.73,-2.203,9.724,-0.814,-5.865,2.732,9.635,-0.719,23.46,-5.865,17.595
1.28,2.156,9.532,0.814,-17.595,-2.06,9.436,-0.479,-11.73,2.876,9.635,-0.575,23.46,-11.73,23.46
1.285,2.347,9.388,0.575,-17.595,-2.012,9.149,-0.144,-17.595,3.02,9.635,-0.575,17.595,-11.73,23.46
1.29,2.347,9.388,0.431,-23.46,-2.012,9.053,0.048,-17.595,2.876,9.635,-0.431,5.865,-5.865,23.46
1.295,2.203,9.436,0.431,-23.46,-1.772,9.149,0.096,-17.595,2.876,9.778,-0.575,5.865,-5.865,23.46
1.3,2.203,9.628,0.527,-17.595,-1.82,9.293,0.096,-17.595,2.732,9.778,-0.719,5.865,-5.865,17.595
1.305,2.156,9.82,0.671,-17.595,-1.82,9.724,-0.048,-17.595,2.732,9.922,-0.719,5.865,-5.865,11.73
1.31,2.06,9.867,0.623,-11.73,-1.772,9.963,-0.144,-11.73,2.732,9.778,-0.719,5.865,-5.865,5.865
1.315,2.06,9.867,0.623,-5.865,-1.677,9.963,-0.096,-5.865,2.445,9.635,-0.575,5.865,-5.865,5.865
1.32,1.964,9.772,0.575,-5.865,-1.629,9.867,-0.048,0.0,2.588,9.778,-0.575,5.865,-5.865,0.0
1.325,1.916,9.772,0.527,-0.0,-1.533,9.915,0.0,0.0,2.732,9.922,-0.575,5.865,0.0,0.0
1.33,2.06,9.82,0.479,-0.0,-1.533,9.867,0.048,0.0,2.876,9.922,-0.431,5.865,0.0,0.0
1.335,2.156,9.963,0.335,5.865,-1.677,9.963,0.144,5.865,2.732,10.066,-0.288,5.865,0.0,-5.865
1.34,2.108,10.011,0.192,5.865,-1.677,10.011,0.24,5.865,2.588,10.066,-0.0,5.865,0.0,-5.865
1.345,1.964,10.107,0.096,5.865,-1.629,10.059,0.335,5.865,2.588,10.066,-0.144,5.865,0.0,-5.865
1.35,2.012,10.155,0.048,5.865,-1.629,10.107,0.527,5.865,2.588,9.922,-0.288,5.865,5.865,0.0
1.355,2.06,10.107,0.192,-0.0,-1.677,10.203,0.431,5.865,2.445,9.922,-0.288,5.865,0.0,5.865
1.36,1.964,10.011,0.24,-0.0,-1.724,10.203,0.287,0.0,2.301,9.778,-0.288,5.865,0.0,5.865
1.365,1.868,10.011,0.24,-0.0,-1.629,10.203,0.335,0.0,2.445,9.778,-0.431,5.865,0.0,11.73
1.37,1.916,9.963,0.287,-5.865,-1.629,10.251,0.24,-5.865,2.445,9.778,-0.431,17.595,0.0,11.73
1.375,1.916,9.963,0.335,-11.73,-1.677,10.155,0.24,-5.865,2.301,9.922,-0.431,17.595,0.0,11.73
1.3800000000000001,1.82,9.963,0.383,-11.73,-1.581,10.107,0.192,-11.73,2.157,10.066,-0.431,17.595,0.0,11.73
1.385,1.724,10.011,0.335,-11.73,-1.533,10.059,0.144,-11.73,2.157,10.066,-0.288,17.595,0.0,11.73
1.3900000000000001,1.677,10.059,0.287,-11.73,-1.437,10.059,0.192,-5.865,2.301,10.066,-0.288,23.46,0.0,11.73
1.395,1.724,10.059,0.287,-11.73,-1.437,10.107,0.24,-11.73,2.301,10.066,-0.288,17.595,-5.865,11.73
1.4000000000000001,1.724,10.011,0.24,-11.73,-1.389,10.059,0.24,-11.73,2.301,9.922,-0.0,17.595,0.0,11.73
1.405,1.724,9.867,0.096,-11.73,-1.293,9.867,0.383,-11.73,2.445,9.922,-0.0,17.595,0.0,11.73
1.41,1.772,9.772,-0.048,-11.73,-1.293,9.772,0.527,-5.865,2.588,10.066,0.144,17.595,0.0,5.865
1.415,1.868,9.82,-0.096,-5.865,-1.293,9.676,0.575,-5.865,2.588,9.922,0.144,5.865,0.0,11.73
1.42,1.964,9.867,-0.144,-11.73,-1.485,9.676,0.671,-5.865,2.732,9.778,0.144,5.865,5.865,11.73
1.425,2.012,9.772,-0.192,-5.865,-1.629,9.772,0.719,-5.865,2.732,9.778,0.144,5.865,5.865,5.865
1.43,2.108,9.676,-0.192,-5.865,-1.677,9.676,0.719,-5.865,2.876,9.778,0.288,5.865,5.865,5.865
1.435,2.203,9.676,-0.287,-5.865,-1.724,9.532,0.766,-5.865,2.732,9.778,0.288,5.865,5.865,5.865
1.44,2.203,9.676,-0.383,-5.865,-1.82,9.532,0.862,-5.865,2.876,9.491,0.288,5.865,5.865,5.865
1.445,2.203,9.58,-0.335,-5.865,-1.724,9.58,0.862,0.0,2.876,9.778,0.431,0.0,11.73,5.865
1.45,2.251,9.58,-0.431,-0.0,-1.916,9.532,0.958,0.0,2.876,10.066,0.431,0.0,11.73,0.0
1.455,2.251,9.867,-0.479,-0.0,-1.82,9.676,1.006,0.0,3.02,10.21,0.431,0.0,11.73,0.0
1.46,2.347,10.059,-0.431,-0.0,-1.82,9.867,1.006,0.0,3.02,10.066,0.431,0.0,17.595,5.865
1.465,2.395,10.107,-0.431,-0.0,-1.964,9.963,0.958,0.0,2.732,9.922,0.431,-5.865,17.595,5.865
1.47,2.203,10.059,-0.431,-5.865,-1.868,10.155,0.958,0.0,2.732,9.778,0.288,0.0,17.595,5.865
1.475,2.108,9.82,-0.287,-5.865,-1.82,10.107,0.91,-5.865,2.588,9.635,0.144,0.0,17.595,5.865
1.48,2.06,9.724,-0.144,-5.865,-1.772,9.867,0.719,-5.865,2.445,9.491,0.144,0.0,17.595,5.865
1.485,2.012,9.628,-0.144,-0.0,-1.724,9.724,0.623,-5.865,2.301,9.491,0.144,0.0,17.595,0.0
1.49,1.916,9.532,-0.192,-0.0,-1.724,9.676,0.671,0.0,2.301,9.491,0.144,0.0,17.595,0.0
1.495,1.82,9.58,-0.192,5.865,-1.629,9.724,0.719,5.865,2.301,9.635,0.144,0.0,17.595,0.0
1.5,1.868,9.676,-0.144,5.865,-1.581,9.772,0.671,5.865,2.445,9.778,-0.0,0.0,17.595,0.0
1.5050000000000001,1.916,9.772,-0.096,5.865,-1.581,9.82,0.623,5.865,2.445,9.635,-0.0,5.865,11.73,0.0
1.51,1.916,9.82,-0.048,5.865,-1.629,9.915,0.575,5.865,2.445,9.635,-0.0,5.865,11.73,0.0
1.5150000000000001,1.964,9.867,-0.048,-0.0,-1.677,10.011,0.575,5.865,2.445,9.778,-0.0,5.865,11.73,0.0
1.52,2.012,9.963,0.0,-0.0,-1.724,10.155,0.527,5.865,2.445,9.778,-0.0,5.865,11.73,0.0
1.5250000000000001,2.012,10.059,0.0,-0.0,-1.677,10.251,0.527,0.0,2.588,9.635,-0.0,5.865,11.73,5.865
1.53,2.06,10.011,-0.048,-5.865,-1.772,10.442,0.527,0.0,2.588,9.635,0.144,5.865,11.73,0.0
1.5350000000000001,2.06,10.059,-0.144,-0.0,-1.868,10.538,0.623,0.0,2.445,9.347,0.431,23.46,5.865,0.0
1.54,2.06,10.059,-0.287,-0.0,-1.868,10.586,0.719,0.0,2.732,9.347,0.431,29.326,5.865,0.0
1.545,2.156,9.915,-0.431,-0.0,-1.868,10.778,0.958,0.0,2.732,9.491,0.144,35.191,5.865,5.865
1.55,2.251,9.915,-0.287,-0.0,-1.964,10.538,0.862,0.0,2.588,9.491,0.144,41.056,5.865,11.73
1.555,2.203,9.82,-0.192,-5.865,-1.916,10.203,0.719,-5.865,2.445,9.491,0.144,41.056,5.865,11.73
1.56,1.964,9.772,-0.192,-5.865,-1.82,10.059,0.719,-5.865,2.445,9.491,-0.0,46.921,0.0,11.73
1.565,1.916,9.628,-0.096,-11.73,-1.629,9.963,0.671,-5.865,2.445,9.491,-0.0,46.921,0.0,17.595
1.57,2.012,9.58,-0.048,-11.73,-1.629,9.772,0.575,-11.73,2.301,9.491,-0.0,46.921,5.865,11.73
1.575,1.772,9.436,-0.048,-11.73,-1.533,9.58,0.575,-11.73,2.157,9.491,-0.0,46.921,5.865,17.595
1.58,1.724,9.245,-0.048,-11.73,-1.341,9.149,0.575,-11.73,2.301,9.635,-0.0,41.056,0.0,17.595
1.585,1.772,9.197,0.0,-11.73,-1.485,8.862,0.527,-11.73,2.157,9.778,-0.144,35.191,5.865,17.595
1.59,1.677,9.293,0.096,-11.73,-1.437,8.814,0.527,-11.73,2.013,9.922,-0.288,29.326,0.0,11.73
1.595,1.581,9.293,0.287,-17.595,-1.293,8.766,0.335,-11.73,2.013,10.354,-0.431,23.46,0.0,11.73
1.6,1.581,9.484,0.383,-11.73,-1.341,8.622,0.24,-11.73,2.013,10.641,-0.575,5.865,0.0,11.73
1.605,1.581,9.676,0.527,-11.73,-1.389,8.67,0.096,-11.73,2.013,10.641,-0.719,0.0,0.0,11.73
1.61,1.581,9.82,0.623,-5.865,-1.293,8.814,0.0,-11.73,2.013,10.497,-0.719,-5.865,0.0,11.73
1.615,1.581,9.915,0.719,-5.865,-1.341,9.005,-0.144,-5.865,2.013,10.497,-0.719,-17.595,0.0,5.865
1.62,1.581,10.059,0.766,-5.865,-1.437,9.341,-0.192,-5.865,2.013,10.354,-0.863,-23.46,-5.865,5.865
1.625,1.629,10.155,0.814,-5.865,-1.485,9.772,-0.287,-5.865,1.869,10.21,-1.007,-29.326,-5.865,5.865
1.6300000000000001,1.629,10.155,0.91,-5.865,-1.485,10.059,-0.383,-5.865,1.869,10.21,-1.007,-29.326,-5.865,5.865
1.635,1.533,10.203,0.958,-5.865,-1.437,10.203,-0.431,-5.865,1.869,10.21,-1.007,-29.326,-11.73,5.865
1.6400000000000001,1.533,10.251,1.006,-5.865,-1.341,10.251,-0.479,-5.865,1.869,10.066,-1.007,-29.326,-11.73,11.73
1.645,1.581,10.155,1.054,-5.865,-1.437,10.203,-0.527,-5.865,1.869,9.922,-1.007,-29.326,-11.73,11.73
1.6500000000000001,1.629,10.059,1.006,-11.73,-1.485,10.203,-0.527,-11.73,1.869,9.635,-0.575,-29.326,-17.595,11.73
1.655,1.629,9.963,0.719,-11.73,-1.533,10.251,-0.383,-11.73,1.869,9.203,-0.431,-29.326,-17.595,11.73
1.6600000000000001,1.677,9.724,0.431,-11.73,-1.629,10.203,-0.048,-11.73,2.157,9.059,-0.288,-23.46,-23.46,17.595
1.665,1.772,9.532,0.24,-11.73,-1.677,10.107,0.192,-11.73,2.445,9.059,-0.144,-17.595,-23.46,17.595
1.67,1.964,9.388,0.144,-11.73,-1.724,9.915,0.335,-17.595,2.588,9.059,-0.144,-17.595,-29.326,17.595
1.675,2.06,9.293,0.144,-17.595,-1.82,9.676,0.383,-11.73,2.445,9.059,-0.0,-11.73,-29.326,17.595
1.68,2.06,9.197,0.096,-17.595,-1.868,9.436,0.431,-17.595,2.301,8.916,0.144,-11.73,-29.326,17.595
1.685,2.012,9.005,-0.048,-17.595,-1.82,9.245,0.527,-11.73,2.445,8.628,0.288,-5.865,-29.326,17.595
1.69,2.012,8.718,-0.192,-17.595,-1.964,8.909,0.671,-17.595,2.588,8.484,0.575,-5.865,-29.326,17.595
1.695,1.868,8.478,-0.527,-17.595,-1.677,8.622,0.862,-17.595,2.588,8.197,1.15,-11.73,-29.326,11.73
1.7,1.772,8.239,-1.054,-17.595,-1.198,8.383,1.293,-17.595,2.732,7.765,1.869,-5.865,-29.326,11.73
1.705,1.964,7.999,-1.724,-11.73,-1.293,8.239,1.916,-11.73,3.164,7.334,2.445,-5.865,-23.46,5.865
1.71,2.251,7.856,-2.347,-5.865,-1.533,8.383,2.587,-5.865,3.451,7.046,2.732,0.0,-23.46,0.0
1.715,2.443,7.76,-2.778,-0.0,-1.581,8.526,3.161,0.0,3.739,6.759,2.876,5.865,-17.595,-5.865
1.72,2.73,7.76,-3.066,5.865,-1.724,8.718,3.497,0.0,3.883,6.902,3.307,23.46,-5.865,-11.73
1.725,2.826,7.999,-3.305,11.73,-1.964,9.101,3.64,5.865,3.739,7.046,3.451,41.056,0.0,-17.595
1.73,2.874,8.622,-3.593,11.73,-1.916,9.915,4.024,11.73,3.739,7.478,3.595,58.651,5.865,-17.595
1.735,3.018,9.341,-3.593,17.595,-2.395,11.017,4.119,17.595,3.595,8.197,3.307,82.111,5.865,-11.73
1.74,3.066,10.203,-3.401,11.73,-2.635,12.215,3.976,17.595,3.595,9.491,3.02,105.572,5.865,-5.865
1.745,3.066,11.017,-3.066,5.865,-2.73,12.837,3.64,11.73,3.595,10.929,2.588,123.167,5.865,5.865
1.75,3.018,11.736,-2.587,-5.865,-2.778,12.981,3.161,5.865,3.451,11.648,2.157,140.762,5.865,17.595
1.7550000000000001,2.874,12.023,-2.156,-17.595,-2.635,12.646,2.73,-5.865,3.164,11.935,1.582,140.762,5.865,35.191
1.76,2.682,11.544,-1.629,-23.46,-2.443,11.688,2.251,-17.595,2.876,11.792,1.15,134.897,5.865,41.056
1.7650000000000001,2.347,10.778,-1.102,-35.191,-2.251,10.251,1.772,-35.191,2.445,11.648,0.431,123.167,5.865,46.921
1.77,1.964,9.915,-0.527,-46.921,-1.916,8.622,1.245,-41.056,2.157,11.36,-0.144,99.707,5.865,46.921
1.7750000000000001,1.724,9.005,0.096,-46.921,-1.629,7.089,0.671,-46.921,2.157,11.216,-0.575,70.381,5.865,41.056
1.78,1.581,8.239,0.479,-41.056,-1.485,5.604,0.192,-46.921,2.301,11.216,-0.719,35.191,5.865,29.326
1.7850000000000001,1.581,7.808,0.623,-35.191,-1.293,4.407,0.0,-41.056,2.301,10.929,-0.863,-5.865,5.865,17.595
1.79,1.629,7.664,0.814,-17.595,-1.293,3.88,-0.144,-29.326,2.157,10.354,-1.007,-46.921,5.865,0.0
1.795,1.581,7.664,0.958,-5.865,-1.198,4.119,-0.287,-11.73,2.301,9.778,-0.863,-82.111,11.73,-17.595
1.8,1.581,7.616,0.91,11.73,-1.245,4.79,-0.479,5.865,2.588,9.347,-0.575,-111.437,11.73,-35.191
1.805,1.677,7.76,0.719,29.326,-1.198,5.509,-0.383,23.46,2.732,8.628,-0.0,-129.032,17.595,-46.921
1.81,1.868,7.904,0.24,46.921,-1.006,6.419,-0.096,41.056,2.732,7.765,0.575,-140.762,23.46,-58.651
1.815,2.156,8.095,-0.335,58.651,-1.485,7.52,0.431,52.786,2.732,7.046,0.863,-140.762,23.46,-64.516
1.82,2.203,8.335,-0.719,64.516,-1.82,9.005,0.958,58.651,2.876,6.902,0.863,-134.897,23.46,-64.516
1.825,2.251,8.67,-0.862,70.381,-1.82,10.203,1.198,64.516,3.02,7.19,1.15,-111.437,23.46,-64.516
1.83,2.491,9.149,-1.054,70.381,-1.964,11.017,1.341,70.381,3.164,7.19,1.294,-87.977,23.46,-58.651
1.835,2.682,9.628,-1.245,64.516,-2.299,11.783,1.581,64.516,3.164,7.19,1.294,-58.651,23.46,-52.786
1.84,2.778,9.963,-1.341,52.786,-2.395,12.741,1.772,58.651,3.164,7.046,1.438,-23.46,17.595,-41.056
1.845,2.874,10.107,-1.485,46.921,-2.635,13.364,1.916,52.786,3.164,7.334,1.582,5.865,17.595,-29.326
1.85,2.874,10.155,-1.629,35.191,-2.682,13.508,2.06,41.056,3.164,7.909,1.582,46.921,11.73,-17.595
1.855,2.778,10.107,-1.581,23.46,-2.587,13.077,2.06,29.326,3.164,8.916,1.438,70.381,11.73,-5.865
1.86,2.635,10.299,-1.533,5.865,-2.347,12.31,2.06,17.595,3.307,9.778,1.15,93.842,11.73,5.865
1.865,2.635,10.586,-1.245,-0.0,-2.156,11.879,1.916,5.865,3.02,10.497,0.719,105.572,11.73,11.73
1.87,2.491,10.873,-0.719,-5.865,-2.156,11.544,1.437,-5.865,2.301,11.216,0.288,111.437,17.595,17.595
1.875,2.012,10.969,-0.287,-11.73,-1.964,11.209,0.91,-5.865,2.013,11.792,-0.144,111.437,11.73,23.46
1.8800000000000001,1.724,10.825,0.144,-23.46,-1.724,10.251,0.527,-17.595,2.013,12.223,-0.575,93.842,11.73,29.326
1.885,1.533,10.394,0.575,-29.326,-1.437,9.005,0.144,-23.46,2.013,12.223,-0.863,76.246,11.73,35.191
1.8900000000000001,1.437,9.867,0.862,-29.326,-1.293,7.712,-0.24,-29.326,1.582,11.792,-1.007,46.921,5.865,23.46
1.895,1.198,9.293,0.958,-23.46,-1.102,6.754,-0.383,-29.326,1.582,11.216,-0.863,5.865,5.865,11.73
1.9000000000000001,1.102,8.957,0.862,-17.595,-0.958,6.371,-0.383,-17.595,1.869,10.785,-0.575,-17.595,5.865,5.865
1.905,1.245,8.957,0.671,-5.865,-0.91,6.562,-0.24,-11.73,2.157,10.641,-0.288,-41.056,5.865,-5.865
1.9100000000000001,1.533,9.293,0.383,5.865,-1.054,7.377,0.048,0.0,2.445,10.497,0.144,-52.786,5.865,-17.595
1.915,1.724,9.676,0.0,11.73,-1.293,8.287,0.287,11.73,2.301,10.21,0.575,-64.516,11.73,-23.46
1.92,1.82,10.011,-0.479,23.46,-1.389,9.293,0.719,23.46,2.445,9.635,1.007,-70.381,11.73,-23.46
1.925,1.868,10.203,-0.862,29.326,-1.485,10.299,1.198,29.326,2.588,9.203,1.15,-64.516,11.73,-23.46
1.93,2.108,10.346,-1.102,29.326,-1.772,11.209,1.485,29.326,2.732,9.203,1.15,-52.786,5.865,-23.46
1.935,2.299,10.442,-1.15,23.46,-1.964,11.783,1.629,29.326,2.732,9.347,1.15,-41.056,5.865,-17.595
1.94,2.347,10.538,-1.15,23.46,-2.06,12.023,1.677,23.46,2.732,9.635,1.007,-23.46,5.865,-17.595
1.945,2.299,10.73,-1.102,17.595,-2.06,12.023,1.629,17.595,2.732,9.922,0.863,-11.73,5.865,-11.73
1.95,2.251,10.825,-0.958,11.73,-2.012,11.927,1.533,17.595,2.732,10.354,0.863,0.0,5.865,-5.865
1.955,2.203,10.873,-0.862,11.73,-1.916,11.736,1.389,11.73,2.732,10.641,0.863,5.865,5.865,0.0
1.96,2.156,10.921,-0.862,5.865,-1.868,11.496,1.341,11.73,2.732,10.929,0.863,5.865,0.0,0.0
1.965,2.156,11.017,-0.91,-0.0,-1.772,11.257,1.389,5.865,2.876,11.073,0.863,5.865,5.865,0.0
1.97,2.156,11.113,-0.862,-0.0,-1.677,11.161,1.437,0.0,2.732,11.36,0.719,5.865,5.865,5.865
1.975,2.108,11.161,-0.766,-5.865,-1.629,11.113,1.341,0.0,2.732,11.504,0.575,5.865,5.865,5.865
1.98,2.012,11.304,-0.623,-5.865,-1.677,11.065,1.245,-5.865,2.445,11.648,0.431,5.865,5.865,11.73
1.985,1.916,11.352,-0.431,-5.865,-1.533,11.065,1.054,-5.865,2.445,11.648,0.144,5.865,5.865,11.73
1.99,1.82,11.304,-0.192,-11.73,-1.533,11.017,0.814,-5.865,2.445,11.792,0.144,0.0,5.865,11.73
1.995,1.82,11.304,-0.096,-5.865,-1.533,10.921,0.671,-5.865,2.445,11.935,-0.0,-5.865,5.865,5.865
2.0,1.772,11.4,-0.048,-5.865,-1.389,10.825,0.575,-5.865,2.301,11.935,-0.0,-11.73,5.865,5.865
2.005,1.724,11.592,0.048,-5.865,-1.341,11.017,0.479,-5.865,2.301,11.792,-0.0,-17.595,5.865,11.73
2.0100000000000002,1.82,11.736,-0.048,-5.865,-1.533,11.4,0.479,-5.865,2.445,11.935,0.288,-17.595,5.865,11.73
2.015,1.916,11.783,-0.192,-11.73,-1.629,11.64,0.575,-11.73,2.588,11.935,0.431,-23.46,5.865,11.73
2.02,1.964,11.879,-0.431,-11.73,-1.629,11.736,0.814,-11.73,2.588,11.648,0.575,-23.46,5.865,11.73
2.025,1.964,11.783,-0.527,-11.73,-1.629,11.736,0.958,-11.73,2.588,11.36,0.575,-23.46,5.865,17.595
2.0300000000000002,2.012,11.64,-0.623,-17.595,-1.629,11.831,1.102,-11.73,2.732,11.216,0.575,-23.46,5.865,23.46
2.035,2.06,11.544,-0.671,-17.595,-1.724,11.927,1.15,-17.595,2.732,11.36,0.575,-17.595,5.865,23.46
2.04,2.108,11.592,-0.623,-17.595,-1.724,11.975,1.15,-17.595,2.732,11.504,0.431,-17.595,5.865,23.46
2.045,2.108,11.688,-0.479,-23.46,-1.772,12.023,1.054,-23.46,2.588,11.504,0.144,-11.73,5.865,29.326
2.05,2.108,11.736,-0.24,-23.46,-1.82,12.071,0.862,-23.46,2.588,11.648,-0.0,-11.73,5.865,29.326
2.055,2.06,11.736,-0.048,-29.326,-1.772,12.023,0.671,-23.46,2.588,11.648,-0.0,-5.865,5.865,29.326
2.06,2.06,11.592,0.0,-29.326,-1.772,11.783,0.527,-29.326,2.588,11.648,-0.0,-11.73,0.0,35.191
2.065,2.012,11.496,-0.048,-29.326,-1.772,11.496,0.479,-29.326,2.588,11.504,-0.0,-11.73,0.0,35.191
2.07,2.012,11.4,-0.048,-35.191,-1.724,11.257,0.575,-35.191,2.588,11.36,-0.0,-11.73,0.0,35.191
2.075,2.06,11.209,0.048,-35.191,-1.772,11.113,0.527,-35.191,2.588,11.073,-0.0,-17.595,0.0,41.056
2.08,2.06,10.969,0.0,-35.191,-1.82,10.825,0.479,-35.191,2.588,10.785,-0.0,-17.595,0.0,41.056
2.085,2.06,10.682,0.0,-41.056,-1.772,10.538,0.527,-41.056,2.588,10.497,-0.0,-23.46,0.0,46.921
2.09,2.012,10.299,0.0,-41.056,-1.772,10.203,0.527,-41.056,2.588,10.066,0.144,-29.326,0.0,46.921
2.095,2.012,9.915,-0.096,-41.056,-1.629,9.82,0.575,-41.056,2.588,9.778,0.288,-29.326,0.0,46.921
2.1,2.012,9.628,-0.24,-41.056,-1.629,9.436,0.719,-46.921,2.588,9.491,0.288,-35.191,0.0,46.921
2.105,2.012,9.436,-0.335,-41.056,-1.677,9.341,0.814,-46.921,2.588,9.347,0.288,-41.056,0.0,46.921
2.11,2.108,9.341,-0.287,-41.056,-1.724,9.341,0.814,-41.056,2.588,9.203,0.144,-41.056,0.0,46.921
2.115,2.06,9.245,-0.24,-46.921,-1.772,9.341,0.766,-46.921,2.588,9.059,0.288,-41.056,0.0,46.921
2.12,2.012,9.101,-0.287,-46.921,-1.677,9.197,0.766,-46.921,2.445,8.916,0.144,-41.056,5.865,46.921
2.125,2.012,9.053,-0.24,-46.921,-1.724,9.101,0.766,-46.921,2.445,8.916,-0.0,-41.056,5.865,52.786
2.13,2.012,9.101,-0.096,-46.921,-1.772,9.197,0.671,-46.921,2.445,9.059,-0.144,-41.056,0.0,52.786
2.1350000000000002,2.06,9.197,0.096,-52.786,-1.82,9.341,0.479,-52.786,2.588,9.059,-0.288,-35.191,0.0,58.651
2.14,2.06,9.197,0.192,-58.651,-1.868,9.341,0.335,-58.651,2.588,8.916,-0.431,-35.191,0.0,64.516
2.145,2.108,9.053,0.287,-64.516,-1.868,9.149,0.287,-58.651,2.732,8.628,-0.575,-41.056,0.0,70.381
2.15,2.156,8.766,0.479,-70.381,-1.916,8.909,0.144,-70.381,2.876,8.34,-0.719,-41.056,0.0,76.246
2.1550000000000002,2.251,8.383,0.671,-76.246,-1.964,8.43,-0.048,-76.246,2.876,8.053,-0.863,-41.056,0.0,87.977
2.16,2.203,7.856,0.766,-82.111,-1.82,7.76,-0.192,-82.111,2.732,7.621,-0.719,-46.921,5.865,93.842
2.165,2.012,7.329,0.719,-87.977,-1.581,7.041,-0.192,-87.977,2.157,6.902,-0.288,-52.786,11.73,99.707
2.17,1.581,6.61,0.335,-93.842,-1.198,6.323,0.0,-93.842,1.294,5.177,0.575,-64.516,11.73,99.707
2.1750000000000003,1.341,5.413,-0.287,-99.707,-1.102,5.461,0.479,-99.707,1.15,2.876,1.294,-64.516,11.73,105.572
2.18,1.15,3.784,-1.054,-99.707,-1.533,4.551,1.245,-99.707,1.726,0.863,1.294,-64.516,5.865,99.707
2.185,1.389,1.964,-1.341,-99.707,-1.341,3.545,1.82,-99.707,2.445,-0.431,1.007,-52.786,5.865,87.977
2.19,1.868,0.527,-1.198,-87.977,-1.389,2.156,1.916,-99.707,2.588,-1.294,0.863,-46.921,11.73,70.381
2.195,2.156,-0.766,-0.958,-76.246,-1.629,0.527,1.724,-82.111,2.445,-2.301,0.719,-41.056,17.595,52.786
2.2,1.964,-1.82,-0.862,-58.651,-1.677,-0.91,1.581,-64.516,1.869,-3.164,0.719,-35.191,17.595,35.191
2.205,1.724,-2.73,-0.766,-41.056,-1.485,-2.012,1.533,-46.921,1.582,-4.314,0.288,-29.326,17.595,23.46
2.21,1.437,-3.593,-0.431,-23.46,-1.389,-2.73,1.341,-35.191,1.007,-5.464,0.144,-23.46,23.46,5.865
2.215,1.054,-4.503,-0.192,-11.73,-1.102,-3.401,0.958,-17.595,0.575,-6.471,0.144,-11.73,23.46,-11.73
2.22,0.766,-5.461,-0.192,11.73,-1.006,-4.072,0.91,0.0,0.575,-7.478,-0.0,0.0,17.595,-35.191
2.225,0.671,-6.514,-0.144,29.326,-0.862,-4.934,0.862,23.46,0.719,-8.772,0.144,5.865,17.595,-58.651
2.23,0.623,-7.76,-0.24,52.786,-0.623,-6.083,0.862,41.056,0.144,-9.778,0.719,23.46,17.595,-87.977
2.235,0.383,-8.814,-0.623,82.111,-0.431,-7.329,1.102,70.381,-0.863,-10.21,1.726,41.056,17.595,-111.437
2.24,-0.479,-9.245,-1.485,105.572,0.048,-7.904,1.772,93.842,-1.438,-10.066,2.445,52.786,23.46,-146.628
2.245,-1.102,-9.149,-2.299,134.897,0.766,-7.808,2.682,123.167,-1.582,-8.772,2.732,76.246,17.595,-181.818
2.25,-1.245,-8.095,-2.587,170.088,0.958,-6.993,3.209,158.358,-2.013,-6.04,3.164,93.842,17.595,-217.009
2.255,-1.533,-5.365,-3.018,205.279,1.198,-4.742,3.449,193.548,-1.869,-2.876,3.164,117.302,17.595,-252.199
2.2600000000000002,-1.677,-2.299,-3.161,240.469,1.245,-1.677,3.736,234.604,-1.582,1.15,3.451,134.897,11.73,-269.795
2.265,-1.724,0.958,-3.305,263.93,1.581,0.862,3.688,263.93,21.282,64.71,18.982,146.628,5.865,-275.66
2.27,0.575,12.358,-4.263,281.525,1.82,4.072,4.024,281.525,-12.367,-40.983,-14.524,-58.651,46.921,52.786
2.275,4.024,23.95,8.095,252.199,17.052,14.657,-6.946,287.39,-4.745,68.88,-0.863,328.446,0.0,23.46
2.2800000000000002,10.059,23.998,9.724,105.572,-21.124,24.381,-17.436,181.818,11.792,35.375,-6.471,504.399,-246.334,52.786
2.285,-2.347,23.998,5.365,-29.326,-7.041,24.429,-9.245,-11.73,5.608,33.793,-3.739,404.692,-199.413,123.167
2.29,-1.724,18.202,5.077,-129.032,15.903,3.928,-6.514,-123.167,2.876,8.053,0.288,217.009,-105.572,199.413
2.295,1.677,8.718,0.862,-193.548,4.024,-1.102,-2.491,-175.953,6.183,3.883,2.157,146.628,-76.246,205.279
2.3000000000000003,3.832,4.503,-1.677,-211.144,-2.539,8.478,1.15,-217.009,8.34,10.354,5.321,140.762,-70.381,129.032
2.305,4.742,5.461,-4.694,-152.493,-1.82,5.461,3.64,-193.548,9.059,18.982,6.327,123.167,-52.786,11.73
2.31,4.982,10.011,-6.467,-46.921,-3.066,2.635,6.562,-105.572,9.059,23.152,4.889,70.381,-23.46,-117.302
2.315,4.934,15.328,-5.317,82.111,-2.539,4.79,6.658,23.46,7.478,22.577,3.164,-5.865,11.73,-199.413
2.32,4.838,17.819,-3.305,181.818,-2.874,9.867,4.934,140.762,5.033,19.413,3.595,-76.246,29.326,-211.144
2.325,3.736,17.34,-2.97,217.009,-3.114,12.789,3.305,211.144,4.17,15.674,4.602,-123.167,41.056,-181.818
2.33,3.209,15.711,-4.072,193.548,-2.922,13.173,3.88,211.144,5.033,11.792,4.745,-158.358,41.056,-123.167
2.335,4.072,13.939,-4.407,140.762,-3.497,13.795,4.551,170.088,5.033,8.34,5.177,-158.358,41.056,-82.111
2.34,4.598,12.119,-4.886,93.842,-4.503,14.801,4.79,111.437,4.314,6.902,5.752,-129.032,35.191,-58.651
2.345,3.976,10.682,-5.748,64.516,-4.503,15.089,5.652,76.246,4.314,6.902,5.464,-87.977,29.326,-52.786
2.35,3.449,9.676,-5.748,58.651,-3.497,13.747,6.275,58.651,4.602,7.19,4.602,-58.651,29.326,-46.921
2.355,3.401,9.149,-4.982,46.921,-2.826,11.927,5.892,52.786,4.026,8.34,3.451,-29.326,35.191,-41.056
2.36,3.066,9.293,-3.832,41.056,-2.491,10.778,4.934,46.921,2.876,9.491,1.726,-17.595,41.056,-23.46
2.365,2.203,9.628,-2.156,29.326,-1.964,10.059,3.545,35.191,1.007,8.34,0.288,-17.595,41.056,0.0
2.37,1.102,9.341,-0.719,11.73,-1.389,9.293,1.82,23.46,1.15,9.491,-0.863,-17.595,41.056,5.865
2.375,0.671,8.718,0.671,-0.0,-1.054,8.814,0.287,5.865,1.294,10.21,-1.15,-23.46,41.056,5.865
2.38,0.479,8.909,1.054,-0.0,-0.383,7.568,-0.383,0.0,1.438,9.922,-1.438,-41.056,35.191,5.865
2.3850000000000002,0.623,9.341,1.437,-5.865,-0.335,7.712,-0.719,0.0,1.007,9.491,-1.438,-46.921,35.191,11.73
2.39,0.671,9.82,1.485,-11.73,-0.527,9.341,-1.006,-5.865,1.294,9.922,-1.869,-46.921,35.191,23.46
2.395,0.719,10.682,1.629,-17.595,-0.766,11.065,-1.054,-11.73,1.869,10.497,-2.157,-41.056,29.326,23.46
2.4,1.245,11.4,2.06,-23.46,-1.15,12.406,-1.437,-17.595,1.726,10.497,-2.157,-23.46,23.46,17.595
2.4050000000000002,1.389,11.4,2.06,-17.595,-1.533,12.837,-1.629,-23.46,1.294,9.778,-2.301,-11.73,17.595,17.595
2.41,0.958,10.538,2.156,-17.595,-1.245,11.879,-1.629,-17.595,1.007,7.765,-2.588,-5.865,17.595,23.46
2.415,0.814,9.149,2.539,-17.595,-0.91,10.634,-1.82,-17.595,1.294,7.765,-2.301,5.865,5.865,23.46
2.42,1.006,8.383,2.347,-23.46,-1.245,9.772,-2.012,-23.46,1.438,8.053,-1.726,5.865,0.0,11.73
2.4250000000000003,1.006,8.095,1.868,-11.73,-1.198,8.862,-1.629,-17.595,1.726,8.772,-1.294,23.46,-5.865,0.0
2.43,1.102,8.67,1.341,-0.0,-1.006,8.718,-0.958,-5.865,2.013,9.203,-1.294,23.46,-5.865,-11.73
2.435,1.389,9.245,1.341,11.73,-1.15,9.005,-0.814,5.865,2.301,9.491,-0.575,23.46,-5.865,0.0
2.44,1.581,9.772,0.814,5.865,-1.341,9.532,-0.671,11.73,2.732,9.778,0.144,23.46,-11.73,5.865
2.445,1.82,9.915,-0.048,-5.865,-1.533,10.059,0.192,0.0,2.876,9.922,0.575,23.46,-11.73,11.73
2.45,2.012,9.82,-0.527,-5.865,-1.677,9.963,0.862,-5.865,2.732,9.778,0.719,23.46,-5.865,11.73
2.455,1.868,9.724,-0.766,-11.73,-1.581,9.58,1.245,-5.865,2.732,9.778,0.719,23.46,-5.865,17.595
2.46,1.82,9.58,-0.766,-11.73,-1.581,9.293,1.293,-11.73,2.732,9.635,0.863,17.595,-5.865,17.595
2.465,1.82,9.436,-0.814,-11.73,-1.437,9.149,1.341,-11.73,2.732,9.778,0.863,5.865,-5.865,17.595
2.47,1.82,9.436,-0.91,-17.595,-1.485,9.053,1.437,-17.595,2.876,9.778,0.863,5.865,0.0,17.595
2.475,1.916,9.484,-0.91,-17.595,-1.485,9.197,1.437,-17.595,2.732,9.778,0.719,5.865,0.0,11.73
2.48,1.868,9.676,-0.766,-11.73,-1.581,9.436,1.389,-17.595,2.588,9.778,0.575,0.0,0.0,11.73
2.485,1.772,9.915,-0.623,-11.73,-1.581,9.867,1.245,-11.73,2.445,9.635,0.431,0.0,0.0,11.73
2.49,1.724,9.867,-0.431,-11.73,-1.533,10.059,1.054,-11.73,2.445,9.491,0.288,5.865,0.0,11.73
2.495,1.677,9.724,-0.335,-11.73,-1.485,10.011,0.91,-11.73,2.445,9.347,0.288,5.865,0.0,11.73
2.5,1.677,9.58,-0.287,-11.73,-1.437,9.82,0.814,-11.73,2.445,9.347,0.288,5.865,0.0,11.73
2.505,1.677,9.532,-0.335,-11.73,-1.437,9.724,0.862,-11.73,2.445,9.347,0.288,5.865,0.0,11.73
2.5100000000000002,1.724,9.436,-0.335,-11.73,-1.485,9.676,0.862,-11.73,2.732,9.203,0.288,5.865,0.0,5.865
2.515,1.82,9.293,-0.383,-5.865,-1.581,9.484,0.862,-11.73,2.732,9.347,0.431,5.865,0.0,5.865
2.52,1.82,9.293,-0.479,-5.865,-1.485,9.341,0.958,-5.865,2.588,9.203,0.575,5.865,0.0,0.0
2.525,1.82,9.341,-0.575,-0.0,-1.533,9.293,1.054,0.0,2.732,9.347,0.575,5.865,0.0,0.0
2.5300000000000002,1.82,9.436,-0.623,5.865,-1.533,9.436,1.15,5.865,2.588,9.491,0.575,5.865,0.0,-5.865
2.535,1.868,9.532,-0.623,5.865,-1.629,9.58,1.15,5.865,2.445,9.635,0.719,5.865,0.0,-5.865
2.54,1.724,9.724,-0.671,5.865,-1.629,9.772,1.15,5.865,2.445,9.778,0.719,5.865,0.0,-5.865
2.545,1.677,9.82,-0.766,5.865,-1.437,9.867,1.245,11.73,2.445,9.778,0.863,5.865,0.0,-5.865
2.5500000000000003,1.677,9.867,-0.766,5.865,-1.437,9.915,1.293,11.73,2.445,9.922,0.863,5.865,0.0,-5.865
2.555,1.629,9.963,-0.814,5.865,-1.437,9.963,1.341,5.865,2.445,10.21,0.719,5.865,0.0,-5.865
2.56,1.581,10.155,-0.766,5.865,-1.293,10.059,1.341,5.865,2.301,9.922,0.719,5.865,0.0,-5.865
2.565,1.581,10.059,-0.766,5.865,-1.293,10.155,1.293,5.865,2.157,9.778,0.719,5.865,0.0,0.0
2.57,1.485,9.867,-0.766,-0.0,-1.293,10.059,1.293,5.865,2.301,9.635,0.719,5.865,0.0,0.0
2.575,1.437,9.724,-0.719,-0.0,-1.245,9.915,1.293,5.865,2.301,9.778,0.575,5.865,0.0,0.0
2.58,1.485,9.724,-0.671,5.865,-1.15,9.676,1.245,5.865,2.301,9.635,0.575,5.865,0.0,0.0
2.585,1.485,9.724,-0.623,-0.0,-1.102,9.724,1.198,5.865,2.301,9.635,0.575,5.865,0.0,0.0
2.59,1.485,9.82,-0.575,-0.0,-1.198,9.867,1.102,5.865,2.301,9.635,0.719,5.865,0.0,0.0
2.595,1.533,9.867,-0.671,-0.0,-1.245,10.059,1.15,0.0,2.588,9.778,0.575,5.865,0.0,0.0
2.6,1.724,9.915,-0.623,-0.0,-1.341,10.155,1.15,5.865,2.445,9.635,0.431,5.865,0.0,0.0
2.605,1.724,9.867,-0.527,-0.0,-1.437,10.107,1.054,5.865,2.445,9.491,0.575,17.595,0.0,0.0
2.61,1.677,9.915,-0.527,-0.0,-1.485,10.155,1.054,5.865,2.588,9.491,0.575,23.46,0.0,0.0
2.615,1.772,9.867,-0.623,-0.0,-1.485,10.346,1.054,5.865,2.876,9.778,0.719,23.46,0.0,0.0
2.62,1.916,9.963,-0.671,-0.0,-1.677,10.203,1.198,0.0,2.876,9.922,0.719,29.326,0.0,0.0
2.625,1.964,10.155,-0.814,-0.0,-1.629,10.251,1.293,0.0,3.02,10.066,0.863,29.326,0.0,0.0
2.63,2.06,10.251,-0.814,-0.0,-1.724,10.394,1.341,0.0,2.876,10.21,0.863,29.326,0.0,0.0
2.6350000000000002,2.012,10.442,-0.91,-0.0,-1.772,10.634,1.341,0.0,2.732,10.354,1.007,35.191,0.0,0.0
2.64,1.964,10.682,-1.006,-0.0,-1.772,10.825,1.485,5.865,2.876,10.641,1.007,35.191,0.0,0.0
2.645,2.012,10.873,-1.054,-0.0,-1.772,11.065,1.533,0.0,2.876,10.641,1.15,41.056,0.0,5.865
2.65,2.06,11.065,-1.102,-0.0,-1.82,11.352,1.581,0.0,2.876,10.641,1.294,41.056,0.0,5.865
2.6550000000000002,2.06,11.209,-1.198,-5.865,-1.868,11.64,1.629,0.0,2.876,10.785,1.294,46.921,0.0,11.73
2.66,2.108,11.352,-1.245,-5.865,-1.916,11.879,1.724,-5.865,3.02,11.073,1.294,52.786,0.0,11.73
2.665,2.108,11.592,-1.245,-11.73,-1.868,12.023,1.724,-5.865,3.02,11.36,1.15,58.651,0.0,23.46
2.67,2.203,11.783,-1.15,-17.595,-1.916,12.167,1.677,-11.73,3.02,11.504,1.007,64.516,0.0,23.46
2.6750000000000003,2.156,11.879,-1.006,-23.46,-1.916,12.167,1.581,-17.595,2.876,11.792,0.863,64.516,0.0,35.191
2.68,2.06,12.071,-0.862,-29.326,-1.82,12.167,1.437,-23.46,2.876,11.792,0.431,64.516,0.0,46.921
2.685,2.06,11.975,-0.527,-41.056,-1.868,12.071,1.198,-35.191,2.588,11.648,-0.0,64.516,0.0,52.786
2.69,1.916,11.592,-0.096,-52.786,-1.868,11.688,0.766,-46.921,2.301,11.792,-0.431,58.651,-5.865,58.651
2.695,1.629,11.161,0.383,-52.786,-1.724,10.921,0.335,-52.786,2.157,11.792,-1.007,52.786,-5.865,58.651
2.7,1.437,10.73,0.91,-58.651,-1.485,9.963,-0.144,-52.786,2.157,11.792,-1.15,41.056,-11.73,58.651
2.705,1.437,10.394,1.198,-52.786,-1.437,9.101,-0.575,-52.786,2.301,11.935,-1.15,23.46,-11.73,52.786
2.71,1.437,10.203,1.198,-52.786,-1.437,8.574,-0.671,-52.786,2.445,11.792,-1.294,0.0,-11.73,46.921
2.715,1.581,10.155,1.341,-41.056,-1.389,8.335,-0.719,-46.921,2.588,11.935,-1.294,-23.46,-11.73,35.191
2.72,1.677,10.203,1.389,-35.191,-1.533,8.191,-0.862,-41.056,2.732,11.648,-1.15,-41.056,-11.73,35.191
2.725,1.772,10.203,1.245,-35.191,-1.485,8.191,-0.814,-35.191,2.445,11.216,-0.863,-64.516,-11.73,29.326
2.73,1.533,10.059,1.006,-29.326,-1.341,8.383,-0.623,-35.191,2.013,10.354,-0.144,-87.977,-11.73,29.326
2.735,1.389,9.532,0.479,-29.326,-1.102,8.383,-0.287,-29.326,1.869,8.772,0.575,-99.707,-5.865,23.46
2.74,1.389,8.718,-0.24,-23.46,-1.437,8.191,0.335,-29.326,2.013,7.334,1.007,-105.572,-11.73,23.46
2.745,1.485,7.712,-0.814,-17.595,-1.485,7.999,1.006,-23.46,2.301,6.04,1.582,-105.572,-11.73,11.73
2.75,1.724,6.754,-1.341,-11.73,-1.533,7.664,1.533,-17.595,2.157,5.464,2.301,-99.707,-17.595,5.865
2.755,1.629,6.131,-2.108,-5.865,-1.581,7.185,2.251,-11.73,3.02,5.177,2.157,-87.977,-17.595,-5.865
2.7600000000000002,1.868,5.988,-2.299,5.865,-1.485,6.946,2.778,0.0,3.595,5.033,1.869,-76.246,-17.595,-17.595
2.765,2.587,5.94,-1.964,17.595,-1.629,7.041,2.635,11.73,3.451,4.745,1.869,-64.516,-11.73,-29.326
2.77,2.778,5.988,-1.868,29.326,-2.156,7.377,2.347,23.46,3.02,4.889,2.301,-52.786,-11.73,-35.191
2.775,2.395,6.467,-2.299,35.191,-2.203,7.712,2.635,35.191,3.02,4.602,2.445,-35.191,-5.865,-35.191
2.7800000000000002,2.347,6.514,-2.443,35.191,-2.06,8.287,2.922,35.191,3.307,4.314,2.588,-11.73,-5.865,-29.326
2.785,2.635,6.658,-2.682,29.326,-2.156,8.814,3.114,35.191,3.307,4.745,2.732,17.595,-5.865,-23.46
2.79,2.73,6.946,-2.778,29.326,-2.395,9.341,3.257,29.326,3.307,5.464,2.876,46.921,-5.865,-23.46
2.795,2.587,7.568,-2.97,23.46,-2.251,9.772,3.401,29.326,3.451,6.327,2.876,70.381,-5.865,-17.595
2.8000000000000003,2.635,8.287,-3.018,23.46,-2.156,10.299,3.497,23.46,3.451,7.046,2.588,99.707,-5.865,-11.73
2.805,2.682,9.149,-2.778,11.73,-2.251,11.113,3.353,17.595,3.451,7.765,2.301,123.167,-5.865,0.0
2.81,2.682,9.58,-2.347,5.865,-2.347,11.64,2.97,11.73,3.164,8.628,2.157,140.762,-5.865,11.73
2.815,2.539,9.676,-2.108,-11.73,-2.347,11.257,2.539,0.0,2.876,9.491,1.869,158.358,-5.865,23.46
2.82,2.203,9.676,-1.868,-23.46,-2.06,10.442,2.347,-11.73,2.588,10.21,1.582,158.358,-5.865,35.191
2.825,1.916,9.628,-1.437,-35.191,-1.724,9.436,2.012,-29.326,2.301,10.641,1.007,152.493,-5.865,41.056
2.83,1.581,9.293,-0.958,-35.191,-1.629,8.287,1.533,-35.191,2.013,10.929,0.431,134.897,-5.865,41.056
2.835,1.15,8.814,-0.383,-41.056,-1.102,7.041,1.102,-41.056,1.726,10.929,-0.0,111.437,0.0,41.056
2.84,0.958,8.191,0.048,-41.056,-0.814,5.7,0.623,-41.056,1.582,10.641,-0.0,76.246,0.0,29.326
2.845,0.862,7.568,0.192,-29.326,-0.814,4.503,0.383,-35.191,1.726,10.497,0.144,41.056,0.0,17.595
2.85,0.814,7.281,0.048,-17.595,-0.671,3.688,0.431,-23.46,2.013,10.354,0.575,0.0,0.0,0.0
2.855,0.862,7.377,-0.335,-5.865,-0.527,3.784,0.719,-11.73,2.157,9.922,1.007,-41.056,5.865,-17.595
2.86,1.102,7.712,-0.814,11.73,-0.527,4.598,1.198,5.865,2.588,9.491,1.582,-70.381,5.865,-35.191
2.865,1.485,8.047,-1.293,29.326,-0.91,5.796,1.581,23.46,2.876,9.059,2.157,-87.977,11.73,-46.921
2.87,1.772,8.526,-1.916,46.921,-1.245,7.137,2.156,41.056,3.164,8.772,2.732,-99.707,17.595,-58.651
2.875,2.06,9.005,-2.539,58.651,-1.389,8.526,2.73,52.786,3.451,8.484,2.876,-93.842,17.595,-64.516
2.88,2.443,9.484,-2.874,64.516,-1.772,9.867,3.209,64.516,3.451,8.484,2.876,-87.977,17.595,-64.516
2.8850000000000002,2.682,9.963,-2.874,64.516,-2.203,11.113,3.401,64.516,3.451,8.772,2.588,-70.381,17.595,-58.651
2.89,2.682,10.49,-2.682,64.516,-2.395,12.071,3.257,64.516,3.451,9.203,2.301,-52.786,17.595,-58.651
2.895,2.635,10.921,-2.443,58.651,-2.443,12.694,3.018,64.516,3.307,9.203,2.157,-29.326,17.595,-46.921
2.9,2.682,11.209,-2.299,52.786,-2.491,13.125,2.826,58.651,3.307,8.916,2.157,-5.865,11.73,-41.056
2.9050000000000002,2.73,11.257,-2.156,46.921,-2.635,13.556,2.682,46.921,3.307,8.916,2.013,23.46,11.73,-23.46
2.91,2.778,11.161,-2.06,35.191,-2.73,13.699,2.587,41.056,3.451,9.491,2.013,46.921,5.865,-17.595
2.915,2.778,11.113,-1.964,23.46,-2.73,13.316,2.491,29.326,3.595,9.922,1.726,64.516,5.865,-11.73
2.92,2.73,11.161,-1.868,11.73,-2.491,12.694,2.395,17.595,3.307,10.354,1.582,82.111,5.865,0.0
2.9250000000000003,2.587,11.304,-1.677,5.865,-2.299,12.406,2.203,11.73,3.164,10.785,1.294,93.842,5.865,5.865
2.93,2.491,11.448,-1.293,-5.865,-2.395,12.262,1.916,5.865,3.164,11.073,0.719,99.707,0.0,17.595
2.935,2.347,11.4,-0.719,-11.73,-2.347,11.975,1.437,-5.865,3.02,11.648,0.431,99.707,0.0,23.46
2.94,2.203,11.257,-0.383,-17.595,-2.156,11.304,0.958,-11.73,2.876,11.792,0.144,99.707,0.0,23.46
2.945,2.012,10.921,-0.144,-23.46,-1.82,10.346,0.719,-17.595,2.732,12.079,-0.144,87.977,0.0,29.326
2.95,1.772,10.682,0.144,-29.326,-1.629,9.341,0.479,-23.46,2.445,12.079,-0.288,70.381,0.0,29.326
2.955,1.629,10.442,0.383,-29.326,-1.485,8.766,0.24,-29.326,2.445,12.223,-0.288,46.921,0.0,29.326
2.96,1.485,10.203,0.383,-29.326,-1.437,8.191,0.144,-29.326,2.445,12.079,-0.0,23.46,0.0,23.46
2.965,1.437,10.155,0.192,-23.46,-1.245,7.951,0.24,-23.46,2.588,11.792,0.288,0.0,0.0,11.73
2.97,1.485,10.155,-0.192,-11.73,-1.102,8.047,0.575,-17.595,2.588,11.216,0.719,-23.46,5.865,0.0
2.975,1.629,10.203,-0.575,-5.865,-1.245,8.574,0.91,-5.865,2.732,10.785,1.007,-41.056,5.865,-5.865
2.98,1.82,10.394,-0.862,5.865,-1.485,9.436,1.245,5.865,3.02,10.641,1.15,-46.921,5.865,-11.73
2.985,2.06,10.634,-1.102,11.73,-1.724,10.251,1.533,11.73,3.164,10.641,1.294,-46.921,5.865,-11.73
2.99,2.251,10.921,-1.293,11.73,-1.82,10.921,1.677,11.73,3.164,10.785,1.294,-46.921,5.865,-11.73
2.995,2.347,11.257,-1.341,11.73,-2.012,11.496,1.82,17.595,3.164,10.641,1.294,-41.056,5.865,-11.73
3.0,2.395,11.4,-1.341,11.73,-2.203,11.975,1.82,11.73,3.02,10.497,1.294,-35.191,5.865,-5.865
3.005,2.299,11.496,-1.341,11.73,-2.203,12.358,1.82,11.73,3.02,10.641,1.294,-23.46,5.865,-5.865
3.0100000000000002,2.251,11.496,-1.341,5.865,-2.203,12.454,1.82,11.73,3.02,10.929,1.294,-17.595,0.0,5.865
3.015,2.299,11.592,-1.341,-0.0,-2.156,12.358,1.82,5.865,3.164,11.216,1.294,-11.73,0.0,5.865
3.02,2.299,11.64,-1.341,-5.865,-2.156,12.167,1.82,0.0,3.164,11.216,1.294,-5.865,0.0,17.595
3.025,2.299,11.592,-1.341,-11.73,-2.06,11.927,1.868,-5.865,3.164,11.504,1.438,0.0,0.0,17.595
3.0300000000000002,2.251,11.496,-1.341,-17.595,-2.108,11.736,1.82,-11.73,3.164,11.648,1.438,0.0,-5.865,23.46
3.035,2.156,11.448,-1.437,-17.595,-1.868,11.4,1.868,-17.595,3.164,11.504,1.438,-5.865,0.0,23.46
3.04,2.156,11.304,-1.437,-23.46,-1.868,11.065,1.964,-17.595,3.164,11.504,1.294,-11.73,0.0,29.326
3.045,2.203,11.257,-1.341,-23.46,-1.868,10.825,1.916,-23.46,3.307,11.216,1.15,-17.595,0.0,29.326
3.0500000000000003,2.156,11.017,-1.15,-23.46,-1.868,10.682,1.772,-29.326,3.02,11.073,1.294,-17.595,0.0,23.46
3.055,1.964,10.825,-1.293,-23.46,-1.533,10.49,1.724,-23.46,3.02,11.073,1.438,-23.46,5.865,23.46
3.06,2.06,10.682,-1.389,-23.46,-1.724,10.299,1.868,-23.46,3.164,10.785,1.294,-29.326,5.865,29.326
3.065,2.156,10.49,-1.341,-23.46,-1.772,10.059,1.916,-23.46,3.164,10.641,1.294,-41.056,5.865,23.46
3.0700000000000003,2.203,10.346,-1.293,-23.46,-1.772,10.011,1.772,-29.326,3.02,10.497,1.294,-41.056,11.73,23.46
3.075,2.156,10.251,-1.293,-17.595,-1.916,9.963,1.82,-23.46,3.02,10.497,1.294,-46.921,11.73,17.595
3.08,2.108,10.346,-1.341,-17.595,-1.868,10.011,1.868,-17.595,3.164,10.21,1.294,-46.921,11.73,23.46
3.085,2.251,10.299,-1.293,-17.595,-1.916,10.155,1.82,-17.595,3.164,10.21,1.438,-46.921,11.73,23.46
3.09,2.347,10.346,-1.389,-17.595,-2.06,10.346,1.868,-17.595,3.307,9.922,1.294,-52.786,11.73,17.595
3.095,2.395,10.251,-1.341,-17.595,-2.156,10.442,1.868,-17.595,3.307,9.778,1.294,-46.921,11.73,23.46
3.1,2.443,10.155,-1.293,-17.595,-2.156,10.49,1.82,-17.595,3.164,9.635,1.294,-46.921,11.73,23.46
3.105,2.443,10.059,-1.293,-17.595,-2.251,10.49,1.82,-17.595,3.164,9.491,1.294,-41.056,11.73,23.46
3.11,2.347,10.011,-1.245,-23.46,-2.203,10.49,1.772,-17.595,3.164,9.491,1.15,-35.191,11.73,29.326
3.115,2.347,9.963,-1.198,-23.46,-2.203,10.394,1.724,-23.46,3.02,9.491,1.007,-35.191,11.73,29.326
3.12,2.347,9.867,-1.102,-29.326,-2.203,10.251,1.677,-29.326,3.02,9.491,1.007,-29.326,11.73,29.326
3.125,2.299,9.772,-1.006,-29.326,-2.203,10.059,1.533,-29.326,3.02,9.491,1.007,-29.326,5.865,35.191
3.13,2.299,9.676,-0.958,-29.326,-2.156,9.915,1.485,-29.326,3.02,9.491,1.007,-29.326,5.865,35.191
3.1350000000000002,2.251,9.628,-0.958,-35.191,-2.108,9.676,1.485,-35.191,3.02,9.347,0.863,-29.326,5.865,35.191
3.14,2.299,9.532,-0.91,-35.191,-2.156,9.628,1.437,-35.191,3.02,9.347,1.007,-29.326,5.865,35.191
3.145,2.251,9.436,-0.958,-35.191,-2.108,9.484,1.437,-35.191,3.02,9.203,1.007,-29.326,5.865,41.056
3.15,2.251,9.293,-1.006,-35.191,-2.06,9.293,1.485,-35.191,3.02,8.916,1.007,-29.326,5.865,41.056
3.1550000000000002,2.299,9.005,-1.006,-35.191,-2.108,9.101,1.485,-35.191,3.164,8.628,1.007,-29.326,5.865,41.056
3.16,2.347,8.766,-1.006,-35.191,-2.108,8.814,1.533,-41.056,3.307,8.628,0.863,-29.326,5.865,35.191
3.165,2.395,8.526,-0.91,-35.191,-2.108,8.526,1.485,-41.056,3.307,8.484,0.719,-29.326,5.865,35.191
3.17,2.443,8.383,-0.766,-35.191,-2.156,8.239,1.389,-41.056,3.307,8.197,0.575,-35.191,5.865,35.191
3.1750000000000003,2.491,8.143,-0.575,-35.191,-2.203,8.047,1.245,-35.191,3.164,8.053,0.575,-35.191,11.73,29.326
3.18,2.443,7.999,-0.575,-29.326,-2.251,7.856,1.102,-35.191,3.164,7.909,0.431,-41.056,5.865,29.326
3.185,2.491,7.856,-0.479,-29.326,-2.299,7.76,1.054,-29.326,3.307,7.909,0.431,-41.056,5.865,23.46
3.19,2.539,7.951,-0.479,-23.46,-2.395,7.808,1.006,-29.326,3.307,8.053,0.431,-41.056,5.865,23.46
3.1950000000000003,2.635,8.143,-0.431,-23.46,-2.491,7.999,0.958,-23.46,3.451,8.34,0.431,-41.056,5.865,23.46
3.2,2.73,8.478,-0.431,-23.46,-2.635,8.383,0.958,-23.46,3.451,8.484,0.431,-41.056,5.865,23.46
3.205,2.826,8.766,-0.383,-23.46,-2.73,8.814,0.958,-23.46,3.595,8.628,0.431,-35.191,0.0,29.326
3.21,2.922,8.957,-0.383,-23.46,-2.826,9.053,0.91,-23.46,3.739,8.628,0.288,-35.191,0.0,29.326
3.215,3.018,9.005,-0.287,-29.326,-2.922,9.197,0.862,-23.46,3.739,8.772,0.288,-35.191,0.0,35.191
3.22,3.066,9.053,-0.287,-29.326,-2.97,9.245,0.814,-29.326,3.739,8.628,0.288,-29.326,0.0,35.191
3.225,3.066,9.101,-0.335,-35.191,-3.066,9.293,0.862,-35.191,3.739,8.484,0.431,-29.326,-5.865,41.056
3.23,3.114,9.005,-0.335,-35.191,-3.161,9.341,0.814,-35.191,3.739,8.34,0.431,-23.46,-5.865,41.056
3.235,3.161,8.862,-0.431,-41.056,-3.209,9.245,0.91,-41.056,3.883,8.197,0.431,-17.595,-11.73,46.921
3.24,3.257,8.766,-0.479,-41.056,-3.257,9.149,0.958,-41.056,4.026,8.197,0.288,-17.595,-11.73,46.921
3.245,3.305,8.67,-0.383,-46.921,-3.305,9.053,0.91,-46.921,4.17,8.197,0.288,-11.73,-11.73,46.921
3.25,3.305,8.622,-0.335,-41.056,-3.161,8.909,0.862,-46.921,4.17,8.197,0.288,-11.73,-11.73,46.921
3.255,3.401,8.526,-0.287,-46.921,-3.209,8.67,0.814,-46.921,4.17,8.197,0.144,-11.73,-11.73,46.921
3.2600000000000002,3.497,8.478,-0.192,-46.921,-3.353,8.574,0.766,-46.921,4.17,8.34,0.144,-5.865,-17.595,46.921
3.265,3.449,8.574,-0.144,-46.921,-3.401,8.574,0.671,-46.921,4.17,8.34,-0.0,-5.865,-17.595,46.921
3.27,3.401,8.574,-0.096,-46.921,-3.353,8.622,0.623,-46.921,4.17,8.34,-0.0,-5.865,-17.595,46.921
3.275,3.449,8.574,0.0,-46.921,-3.305,8.622,0.575,-46.921,4.314,8.484,-0.144,-5.865,-17.595,46.921
3.2800000000000002,3.593,8.622,0.096,-46.921,-3.449,8.526,0.527,-46.921,4.458,8.484,-0.144,-5.865,-17.595,46.921
3.285,3.64,8.67,0.144,-46.921,-3.545,8.574,0.431,-46.921,4.602,8.484,-0.288,-5.865,-17.595,46.921
3.29,3.64,8.67,0.192,-46.921,-3.545,8.574,0.383,-46.921,4.602,8.484,-0.288,-5.865,-17.595,46.921
3.295,3.688,8.526,0.144,-46.921,-3.353,8.43,0.335,-46.921,4.602,8.484,-0.144,-11.73,-17.595,52.786
3.3000000000000003,3.736,8.43,0.096,-46.921,-3.449,8.143,0.383,-46.921,4.314,8.484,-0.0,-11.73,-17.595,52.786
3.305,3.64,8.478,0.048,-52.786,-3.545,8.047,0.479,-52.786,4.17,8.484,-0.0,-17.595,-17.595,52.786
3.31,3.449,8.478,-0.048,-46.921,-3.401,8.143,0.527,-52.786,4.17,8.197,0.144,-17.595,-17.595,52.786
3.315,3.449,8.287,-0.096,-46.921,-3.305,8.191,0.623,-52.786,4.17,7.909,0.288,-17.595,-17.595,52.786
3.3200000000000003,3.497,7.999,-0.24,-46.921,-3.449,7.999,0.671,-52.786,4.314,7.765,0.288,-23.46,-17.595,46.921
3.325,3.545,7.856,-0.287,-46.921,-3.401,7.76,0.814,-46.921,4.458,7.765,0.288,-23.46,-17.595,46.921
3.33,3.593,7.856,-0.287,-46.921,-3.305,7.616,0.814,-46.921,4.602,7.909,-0.0,-23.46,-17.595,41.056
3.335,3.736,7.904,-0.144,-41.056,-3.401,7.664,0.766,-41.056,4.745,8.053,-0.144,-29.326,-11.73,35.191
3.34,3.88,8.095,0.048,-35.191,-3.593,7.808,0.575,-41.056,4.602,8.197,-0.288,-29.326,-11.73,35.191
3.345,3.832,8.335,0.192,-35.191,-3.688,8.095,0.431,-35.191,4.314,8.34,-0.288,-29.326,-11.73,35.191
3.35,3.688,8.574,0.287,-29.326,-3.64,8.43,0.287,-35.191,4.314,8.484,-0.431,-29.326,-11.73,35.191
3.355,3.64,8.67,0.383,-29.326,-3.545,8.574,0.192,-35.191,4.314,8.34,-0.719,-29.326,-17.595,35.191
3.36,3.64,8.622,0.575,-35.191,-3.593,8.574,0.048,-35.191,4.314,8.053,-0.863,-29.326,-17.595,41.056
3.365,3.64,8.383,0.766,-35.191,-3.64,8.43,-0.192,-35.191,4.17,7.765,-0.863,-29.326,-17.595,41.056
3.37,3.593,8.047,0.814,-41.056,-3.593,8.143,-0.287,-41.056,4.314,7.334,-0.719,-29.326,-17.595,41.056
3.375,3.497,7.664,0.719,-41.056,-3.449,7.76,-0.287,-41.056,4.314,6.902,-0.719,-29.326,-17.595,46.921
3.38,3.593,7.233,0.623,-41.056,-3.401,7.329,-0.144,-41.056,4.314,6.327,-0.431,-29.326,-17.595,46.921
3.3850000000000002,3.545,6.754,0.431,-41.056,-3.353,6.898,0.0,-46.921,4.17,5.608,-0.144,-29.326,-17.595,46.921
3.39,3.545,6.131,0.192,-46.921,-3.305,6.371,0.24,-46.921,4.026,4.745,0.144,-29.326,-17.595,46.921
3.395,3.545,5.365,-0.048,-46.921,-3.401,5.844,0.479,-46.921,4.026,3.739,0.288,-29.326,-11.73,41.056
3.4,3.401,4.503,-0.287,-41.056,-3.353,5.221,0.766,-46.921,3.883,2.732,0.431,-23.46,-17.595,41.056
3.4050000000000002,3.305,3.593,-0.479,-41.056,-3.209,4.407,0.958,-41.056,3.739,2.013,0.575,-17.595,-11.73,35.191
3.41,3.257,2.73,-0.623,-35.191,-3.114,3.64,1.102,-41.056,3.739,1.438,0.719,-11.73,-11.73,23.46
3.415,3.257,1.964,-0.766,-29.326,-3.066,2.73,1.293,-29.326,3.595,0.719,0.863,-5.865,-11.73,17.595
3.42,3.209,1.15,-0.814,-17.595,-3.066,1.724,1.389,-23.46,3.02,-0.431,1.15,-5.865,-11.73,5.865
3.4250000000000003,2.826,0.192,-1.102,-5.865,-2.922,0.814,1.581,-11.73,2.732,-2.013,1.582,0.0,-11.73,-5.865
3.43,2.587,-1.15,-1.485,-0.0,-2.635,-0.192,1.964,0.0,2.876,-3.595,1.869,5.865,-11.73,-17.595
3.435,2.587,-2.73,-1.82,17.595,-2.587,-1.485,2.347,11.73,2.588,-5.177,2.157,5.865,-11.73,-35.191
3.44,2.347,-4.359,-2.156,29.326,-2.203,-3.066,2.635,23.46,2.301,-6.615,2.445,17.595,-5.865,-58.651
3.4450000000000003,2.06,-5.844,-2.539,52.786,-1.82,-4.598,3.114,41.056,1.726,-7.765,2.445,29.326,-5.865,-82.111
3.45,1.629,-7.089,-2.539,76.246,-1.581,-6.035,3.305,64.516,0.863,-8.34,2.445,35.191,0.0,-111.437
3.455,0.958,-7.856,-2.539,105.572,-0.958,-6.85,3.257,93.842,0.431,-9.347,2.445,46.921,5.865,-146.628
3.46,0.431,-8.622,-2.539,134.897,-0.431,-7.329,3.305,123.167,-0.144,-10.21,2.588,52.786,5.865,-181.818
3.465,-0.048,-9.58,-2.587,175.953,0.096,-8.143,3.257,158.358,-1.007,-10.354,3.02,70.381,11.73,-222.874
3.47,-0.814,-10.011,-3.114,211.144,0.814,-9.005,3.593,199.413,-1.726,-9.491,3.164,76.246,17.595,-258.064
3.475,-1.629,-9.436,-3.305,246.334,1.629,-8.862,3.976,234.604,-3.02,-5.608,3.451,87.977,23.46,-299.12
3.48,-2.491,-6.706,-3.449,287.39,2.443,-7.425,4.119,275.66,-3.883,0.144,2.876,99.707,23.46,-334.311
3.485,-3.161,-1.102,-2.97,328.446,2.443,-3.114,4.024,316.715,-3.451,6.615,1.869,105.572,17.595,-357.771
3.49,-3.161,4.934,-1.916,357.771,2.347,2.587,2.922,351.906,7.478,56.226,-9.635,99.707,5.865,-363.636
3.495,-2.347,10.442,-1.15,363.636,2.012,7.712,1.964,375.366,-5.033,-31.492,-27.178,-123.167,64.516,-46.921
3.5,7.808,23.95,10.059,346.041,10.825,6.035,-1.485,363.636,-9.491,35.806,-4.314,234.604,29.326,-17.595
3.505,0.766,23.998,17.627,187.683,-19.16,24.381,-21.747,299.12,13.23,63.991,-9.778,428.152,-340.176,-52.786
3.5100000000000002,2.299,23.998,9.82,-87.977,-14.274,24.429,-16.909,23.46,-6.327,20.276,-2.301,310.85,-293.255,117.302
3.515,-1.772,4.215,5.125,-263.93,23.95,11.257,-7.664,-211.144,4.458,3.02,3.883,234.604,-187.683,304.985
3.52,2.395,2.874,-3.209,-340.176,-1.485,-4.742,0.91,-322.581,7.765,0.144,3.02,181.818,-170.088,328.446
3.525,3.066,0.287,-3.209,-346.041,1.006,1.964,3.784,-357.771,9.922,4.314,4.602,181.818,-140.762,252.199
3.5300000000000002,6.083,1.581,-3.976,-275.66,-0.958,1.629,3.688,-322.581,9.203,13.086,6.471,175.953,-117.302,134.897
3.535,6.514,6.61,-6.179,-170.088,-4.072,1.964,5.604,-228.739,7.909,19.844,5.033,140.762,-93.842,5.865
3.54,4.646,12.406,-5.365,-41.056,-4.167,3.545,6.514,-105.572,6.759,22.289,3.164,87.977,-64.516,-111.437
3.545,3.497,15.376,-3.449,82.111,-1.772,7.233,4.934,23.46,5.177,22.289,2.588,5.865,-35.191,-187.683
3.5500000000000003,3.353,16.526,-2.395,170.088,-1.629,9.053,3.449,134.897,4.17,19.701,2.732,-64.516,-23.46,-199.413
3.555,3.545,16.047,-2.251,199.413,-3.449,9.724,2.682,193.548,4.458,17.256,3.164,-129.032,-23.46,-170.088
3.56,3.449,15.328,-2.539,181.818,-3.832,10.969,2.682,199.413,5.608,14.524,4.458,-170.088,-23.46,-123.167
3.565,4.072,14.322,-3.736,140.762,-3.401,11.831,3.209,158.358,5.896,10.785,6.183,-199.413,-23.46,-82.111
3.5700000000000003,4.694,12.454,-5.509,99.707,-3.784,12.406,4.79,117.302,5.752,7.765,7.334,-199.413,-17.595,-64.516
3.575,4.886,10.73,-6.85,70.381,-4.551,12.933,6.467,82.111,5.608,6.471,7.765,-181.818,-17.595,-52.786
3.58,4.646,9.867,-7.712,58.651,-4.072,13.268,7.616,64.516,5.752,6.183,7.621,-140.762,-17.595,-41.056
3.585,4.934,9.58,-7.712,46.921,-4.407,13.268,8.095,52.786,5.608,6.471,7.046,-105.572,-17.595,-23.46
3.59,4.838,9.724,-7.377,35.191,-4.503,13.22,7.999,41.056,5.177,7.334,5.608,-64.516,-11.73,-5.865
3.595,4.598,9.724,-6.323,11.73,-4.359,12.789,7.377,23.46,4.889,9.778,2.445,-41.056,-11.73,17.595
3.6,4.119,10.203,-3.209,-11.73,-4.215,11.448,5.269,5.865,3.02,10.21,0.863,-29.326,-11.73,35.191
3.605,2.922,10.49,-1.15,-29.326,-3.257,10.538,2.443,-17.595,1.869,9.778,-0.0,-29.326,-11.73,41.056
3.61,2.012,10.394,-0.192,-35.191,-2.73,10.778,1.102,-35.191,2.013,9.922,-0.719,-23.46,-23.46,41.056
3.615,1.868,10.203,0.527,-41.056,-2.539,10.73,0.24,-41.056,1.726,9.635,-0.719,-17.595,-29.326,41.056
3.62,1.629,9.724,0.91,-41.056,-2.443,10.155,-0.431,-41.056,2.445,9.347,-0.431,-17.595,-35.191,35.191
3.625,1.82,9.484,0.527,-35.191,-1.868,9.772,-0.144,-41.056,2.445,9.347,-0.288,-11.73,-41.056,23.46
3.63,1.964,9.197,0.383,-23.46,-2.156,9.58,0.048,-35.191,2.157,9.203,-0.144,-11.73,-46.921,11.73
3.6350000000000002,1.581,9.245,0.24,-11.73,-1.533,9.293,0.24,-17.595,1.726,9.059,-0.0,-11.73,-46.921,0.0
3.64,1.341,9.197,0.096,-0.0,-1.293,9.293,0.383,-5.865,2.013,8.628,-0.144,-11.73,-46.921,0.0
3.645,1.389,8.862,0.144,5.865,-1.437,9.293,0.383,0.0,1.869,8.772,0.144,-5.865,-52.786,-11.73
3.65,1.245,8.526,-0.048,11.73,-1.15,8.718,0.431,5.865,1.869,8.772,0.288,-5.865,-52.786,-17.595
3.6550000000000002,1.198,8.67,-0.24,23.46,-1.006,8.478,0.671,17.595,1.869,9.059,0.144,-11.73,-52.786,-23.46
3.66,1.15,8.814,-0.192,23.46,-0.862,8.574,0.719,23.46,1.869,9.203,0.144,-11.73,-52.786,-23.46
3.665,1.15,9.101,-0.096,23.46,-0.862,8.718,0.671,23.46,1.726,9.347,-0.0,-17.595,-52.786,-23.46
3.67,1.15,9.293,-0.048,23.46,-0.958,9.005,0.623,23.46,1.726,9.491,-0.0,-17.595,-52.786,-17.595
3.6750000000000003,1.198,9.436,0.048,23.46,-1.15,9.341,0.527,23.46,1.438,9.203,-0.144,-17.595,-52.786,-17.595
3.68,1.006,9.341,0.144,23.46,-1.006,9.532,0.383,23.46,1.438,8.772,-0.144,-17.595,-52.786,-11.73
3.685,0.91,9.005,0.096,17.595,-0.91,9.245,0.335,17.595,1.438,8.34,-0.0,-17.595,-52.786,-5.865
3.69,0.91,8.526,0.096,11.73,-0.719,8.862,0.431,11.73,1.438,7.909,-0.144,-17.595,-58.651,-5.865
3.6950000000000003,0.814,8.239,0.096,5.865,-0.719,8.574,0.431,5.865,1.15,7.909,-0.144,-11.73,-58.651,0.0
3.7,0.719,8.239,0.096,5.865,-0.575,8.526,0.383,5.865,1.15,8.053,-0.144,-11.73,-58.651,0.0
3.705,0.671,8.383,0.144,5.865,-0.527,8.67,0.431,5.865,1.007,8.34,-0.288,-5.865,-58.651,0.0
3.71,0.623,8.622,0.287,-0.0,-0.575,9.005,0.335,5.865,0.863,8.197,-0.431,-5.865,-64.516,0.0
3.715,0.383,8.67,0.383,-0.0,-0.527,9.293,0.144,0.0,0.863,8.916,-0.431,5.865,-64.516,-5.865
3.72,0.335,8.909,0.431,5.865,-0.335,9.341,0.048,5.865,0.719,9.059,-0.288,5.865,-64.516,-5.865
3.725,0.144,9.101,0.287,5.865,-0.048,9.197,0.144,5.865,0.575,8.916,-0.288,5.865,-64.516,-5.865
3.73,0.0,9.053,0.24,5.865,0.144,9.341,0.24,5.865,0.719,9.059,-0.144,5.865,-70.381,-5.865
3.735,0.096,9.053,0.144,5.865,0.096,9.341,0.287,5.865,0.719,9.059,0.288,5.865,-70.381,-5.865
3.74,0.048,9.005,-0.144,5.865,0.192,9.197,0.479,5.865,0.575,9.203,0.575,5.865,-70.381,-11.73
3.745,-0.096,9.053,-0.431,11.73,0.287,9.149,0.814,5.865,0.431,9.203,0.575,5.865,-70.381,-11.73
3.75,-0.144,9.197,-0.527,11.73,0.431,9.245,1.006,11.73,0.288,9.203,0.431,5.865,-70.381,-11.73
3.755,-0.24,9.293,-0.479,11.73,0.335,9.436,1.006,11.73,0.288,9.347,0.431,5.865,-70.381,-11.73
3.7600000000000002,-0.335,9.341,-0.431,11.73,0.431,9.532,0.91,11.73,0.144,9.347,0.431,5.865,-70.381,-11.73
3.765,-0.287,9.388,-0.479,11.73,0.575,9.436,0.958,11.73,-0.144,9.491,0.431,5.865,-70.381,-11.73
3.77,-0.431,9.532,-0.431,11.73,0.527,9.82,0.91,11.73,-0.288,9.491,0.431,17.595,-76.246,-5.865
3.775,-0.671,9.58,-0.431,5.865,0.479,9.915,0.862,11.73,-0.431,9.635,0.575,17.595,-76.246,-5.865
3.7800000000000002,-0.766,9.676,-0.527,5.865,0.766,10.011,0.91,5.865,-0.288,9.778,0.575,23.46,-82.111,-5.865
3.785,-0.766,9.82,-0.575,5.865,0.766,10.011,1.006,5.865,-0.288,9.922,0.719,23.46,-87.977,-5.865
3.79,-0.814,9.915,-0.575,5.865,0.814,10.155,1.006,5.865,-0.288,10.066,0.863,23.46,-87.977,-5.865
3.795,-0.862,10.011,-0.766,11.73,0.958,10.155,1.15,11.73,-0.288,10.354,0.863,23.46,-87.977,-5.865
3.8000000000000003,-0.862,10.155,-0.862,5.865,1.054,10.203,1.341,11.73,-0.288,10.497,0.863,23.46,-87.977,-5.865
3.805,-0.91,10.299,-0.862,5.865,1.102,10.299,1.341,11.73,-0.288,10.497,1.007,23.46,-87.977,-11.73
3.81,-0.958,10.299,-0.958,11.73,1.198,10.346,1.341,5.865,-0.288,10.354,1.007,17.595,-93.842,-11.73
3.815,-0.91,10.203,-1.006,11.73,1.198,10.299,1.437,11.73,-0.288,10.066,1.15,17.595,-93.842,-11.73
3.8200000000000003,-0.91,10.059,-1.054,11.73,1.15,10.251,1.485,11.73,-0.431,10.21,1.15,17.595,-93.842,-5.865
3.825,-1.006,10.011,-1.054,11.73,1.245,10.155,1.533,11.73,-0.431,10.066,1.007,17.595,-93.842,-5.865
3.83,-1.054,9.963,-0.958,11.73,1.293,10.107,1.485,11.73,-0.575,10.066,1.15,17.595,-93.842,-5.865
3.835,-1.102,9.867,-1.006,5.865,1.293,10.059,1.437,5.865,-0.575,9.922,1.15,17.595,-93.842,-11.73
3.84,-1.054,9.82,-1.102,11.73,1.293,9.915,1.533,11.73,-0.431,10.066,1.294,5.865,-93.842,-5.865
3.845,-1.102,9.772,-1.198,11.73,1.341,9.867,1.629,11.73,-0.431,10.066,1.438,5.865,-93.842,-5.865
3.85,-1.054,9.772,-1.341,11.73,1.341,9.772,1.772,11.73,-0.431,9.778,1.582,5.865,-93.842,-5.865
3.855,-1.054,9.676,-1.437,5.865,1.293,9.724,1.868,11.73,-0.719,9.778,1.582,5.865,-93.842,-5.865
3.86,-1.198,9.676,-1.533,5.865,1.293,9.772,1.964,11.73,-0.575,9.778,1.438,5.865,-93.842,-5.865
3.865,-1.198,9.676,-1.485,5.865,1.389,9.867,1.964,5.865,-0.719,9.778,1.438,5.865,-93.842,-5.865
3.87,-1.198,9.676,-1.341,5.865,1.389,9.82,1.868,5.865,-0.719,9.922,1.294,5.865,-93.842,-5.865
3.875,-1.198,9.724,-1.293,5.865,1.341,9.82,1.82,11.73,-0.863,9.778,1.438,5.865,-99.707,-5.865
3.88,-1.293,9.772,-1.341,5.865,1.437,9.915,1.772,5.865,-0.863,10.066,1.582,5.865,-99.707,-5.865
3.8850000000000002,-1.341,9.915,-1.485,5.865,1.533,10.011,1.868,5.865,-0.719,10.21,1.726,5.865,-99.707,-5.865
3.89,-1.341,10.155,-1.581,5.865,1.533,10.299,2.012,5.865,-0.863,10.354,1.726,5.865,-99.707,-5.865
3.895,-1.293,10.442,-1.677,5.865,1.533,10.682,2.108,5.865,-1.007,10.497,1.726,5.865,-99.707,-5.865
3.9,-1.485,10.538,-1.629,5.865,1.485,10.969,2.108,5.865,-0.719,10.354,1.726,5.865,-105.572,-5.865
3.9050000000000002,-1.389,10.682,-1.581,5.865,1.677,11.161,2.012,5.865,-0.575,10.497,2.013,17.595,-105.572,0.0
3.91,-1.15,10.73,-1.82,-0.0,1.437,11.304,2.156,5.865,-0.719,10.785,2.013,23.46,-105.572,5.865
3.915,-1.293,10.873,-1.964,-5.865,1.437,11.496,2.347,0.0,-0.719,10.785,1.726,29.326,-105.572,5.865
3.92,-1.245,11.017,-1.724,-5.865,1.629,11.448,2.299,-5.865,-0.863,10.641,1.438,29.326,-105.572,11.73
3.9250000000000003,-1.341,10.825,-1.485,-5.865,1.485,11.304,2.012,-5.865,-0.863,10.641,1.438,29.326,-105.572,23.46
3.93,-1.437,10.778,-1.341,-17.595,1.629,11.304,1.82,-11.73,-0.719,10.929,1.294,35.191,-105.572,29.326
3.935,-1.437,10.682,-1.198,-29.326,1.677,11.065,1.724,-23.46,-1.007,10.785,1.007,35.191,-105.572,29.326
3.94,-1.485,10.586,-1.006,-29.326,1.724,10.825,1.533,-29.326,-1.15,10.641,1.007,29.326,-111.437,23.46
3.9450000000000003,-1.581,10.586,-0.91,-23.46,1.677,10.778,1.389,-29.326,-1.15,10.785,0.863,29.326,-111.437,23.46
3.95,-1.677,10.682,-0.766,-23.46,1.724,10.921,1.293,-23.46,-1.15,11.073,0.719,35.191,-117.302,29.326
3.955,-1.629,10.873,-0.671,-29.326,1.772,10.969,1.102,-29.326,-1.294,11.504,0.719,29.326,-117.302,35.191
3.96,-1.677,11.161,-0.671,-35.191,1.677,11.113,1.054,-29.326,-1.294,11.504,0.719,29.326,-117.302,35.191
3.9650000000000003,-1.772,11.209,-0.623,-35.191,1.82,11.257,1.054,-35.191,-1.438,11.504,0.575,29.326,-123.167,35.191
3.97,-1.82,11.161,-0.527,-35.191,1.868,11.257,0.958,-35.191,-1.438,11.648,0.719,23.46,-123.167,41.056
3.975,-1.916,11.209,-0.527,-35.191,1.916,11.113,0.91,-35.191,-1.438,11.792,0.719,17.595,-129.032,41.056
3.98,-1.964,11.304,-0.623,-41.056,2.156,11.113,0.958,-41.056,-1.438,11.935,0.863,5.865,-129.032,41.056
3.985,-1.964,11.4,-0.671,-41.056,2.156,11.161,1.006,-41.056,-1.294,12.223,0.863,5.865,-129.032,41.056
3.99,-1.916,11.688,-0.719,-41.056,2.06,11.448,1.102,-41.056,-1.294,12.367,1.007,5.865,-134.897,41.056
3.995,-1.964,11.927,-0.814,-41.056,2.108,11.688,1.15,-46.921,-1.438,12.367,1.007,0.0,-134.897,46.921
4.0,-2.06,12.023,-0.862,-41.056,2.251,11.879,1.198,-41.056,-1.438,12.511,1.15,-5.865,-134.897,46.921
4.005,-2.06,12.119,-0.958,-41.056,2.299,11.975,1.245,-41.056,-1.438,12.654,1.15,-5.865,-134.897,46.921
4.01,-2.06,12.262,-1.006,-46.921,2.347,12.119,1.341,-46.921,-1.582,12.511,1.15,-11.73,-134.897,52.786
4.015,-2.108,12.31,-1.006,-46.921,2.347,12.31,1.341,-52.786,-1.582,12.367,1.15,-17.595,-134.897,52.786
4.0200000000000005,-2.203,12.262,-1.006,-46.921,2.347,12.406,1.341,-52.786,-1.582,12.511,1.15,-17.595,-140.762,58.651
4.025,-2.203,12.215,-1.006,-52.786,2.443,12.406,1.389,-58.651,-1.582,12.367,1.15,-17.595,-140.762,58.651
4.03,-2.251,12.167,-1.054,-58.651,2.443,12.358,1.437,-58.651,-1.726,12.223,1.15,-23.46,-140.762,58.651
4.035,-2.251,12.119,-0.958,-58.651,2.443,12.406,1.341,-58.651,-1.726,12.079,1.007,-23.46,-140.762,58.651
4.04,-2.347,11.975,-0.91,-58.651,2.443,12.31,1.293,-64.516,-1.869,12.079,0.863,-23.46,-146.628,64.516
4.045,-2.443,11.879,-0.719,-64.516,2.635,12.167,1.15,-64.516,-1.869,12.223,0.719,-23.46,-146.628,70.381
4.05,-2.395,11.831,-0.623,-64.516,2.635,11.927,1.054,-70.381,-2.013,12.079,0.575,-29.326,-146.628,70.381
4.055,-2.539,11.783,-0.527,-70.381,2.682,11.783,0.958,-70.381,-2.013,12.223,0.431,-29.326,-146.628,76.246
4.0600000000000005,-2.635,11.831,-0.383,-70.381,2.826,11.783,0.814,-76.246,-2.301,12.223,0.288,-35.191,-146.628,76.246
4.065,-2.682,11.831,-0.24,-76.246,2.778,11.831,0.623,-76.246,-2.445,12.079,0.288,-41.056,-152.493,76.246
4.07,-2.826,11.688,-0.096,-76.246,2.778,11.783,0.479,-76.246,-2.445,11.935,0.144,-41.056,-152.493,76.246
4.075,-2.922,11.64,-0.048,-76.246,2.97,11.688,0.335,-82.111,-2.445,11.935,0.288,-46.921,-158.358,82.111
4.08,-2.922,11.544,-0.048,-82.111,2.97,11.592,0.335,-82.111,-2.445,11.792,0.288,-52.786,-158.358,82.111
4.085,-2.922,11.448,-0.144,-82.111,3.018,11.496,0.383,-82.111,-2.301,11.648,0.575,-52.786,-158.358,82.111
4.09,-2.97,11.352,-0.335,-82.111,3.114,11.496,0.527,-87.977,-2.301,11.504,0.719,-58.651,-164.223,82.111
4.095,-2.826,11.304,-0.527,-82.111,3.066,11.496,0.719,-87.977,-2.157,11.36,0.863,-64.516,-164.223,82.111
4.1,-2.682,11.304,-0.671,-82.111,2.922,11.544,0.91,-87.977,-2.157,11.073,1.007,-64.516,-164.223,87.977
4.105,-2.635,11.209,-0.719,-82.111,2.826,11.736,1.006,-87.977,-2.157,10.785,1.007,-58.651,-170.088,87.977
4.11,-2.587,11.113,-0.766,-82.111,2.73,11.831,1.054,-87.977,-2.157,10.641,1.007,-58.651,-170.088,93.842
4.115,-2.539,10.969,-0.766,-87.977,2.682,11.783,1.054,-87.977,-2.013,10.497,1.007,-52.786,-170.088,93.842
4.12,-2.491,10.778,-0.766,-93.842,2.635,11.64,1.006,-93.842,-2.013,10.21,1.15,-46.921,-175.953,99.707
4.125,-2.443,10.538,-0.862,-93.842,2.587,11.4,1.102,-99.707,-1.869,10.066,1.15,-46.921,-175.953,105.572
4.13,-2.347,10.346,-0.91,-99.707,2.491,11.209,1.198,-105.572,-1.726,10.066,1.15,-41.056,-175.953,105.572
4.135,-2.251,10.155,-0.91,-105.572,2.491,10.825,1.198,-111.437,-1.582,10.066,1.15,-41.056,-181.818,111.437
4.14,-2.203,10.011,-0.91,-111.437,2.443,10.49,1.198,-111.437,-1.582,10.21,1.007,-41.056,-181.818,111.437
4.1450000000000005,-2.156,10.011,-0.862,-111.437,2.395,10.251,1.198,-111.437,-1.438,10.354,1.007,-46.921,-181.818,111.437
4.15,-2.012,10.011,-0.766,-111.437,2.299,10.155,1.102,-111.437,-1.294,10.497,0.863,-46.921,-181.818,111.437
4.155,-1.964,10.059,-0.719,-105.572,2.156,9.915,1.006,-111.437,-1.294,10.641,1.007,-58.651,-181.818,111.437
4.16,-1.868,10.011,-0.719,-105.572,2.156,9.772,1.006,-111.437,-1.294,10.354,1.15,-64.516,-181.818,111.437
4.165,-1.868,9.82,-0.814,-111.437,2.108,9.58,1.006,-117.302,-1.15,10.066,1.15,-70.381,-181.818,111.437
4.17,-1.82,9.58,-0.862,-105.572,2.108,9.341,1.102,-111.437,-1.15,9.922,1.15,-82.111,-181.818,111.437
4.175,-1.772,9.341,-0.958,-111.437,2.012,9.149,1.15,-111.437,-1.007,9.635,1.294,-87.977,-175.953,105.572
4.18,-1.629,9.197,-1.102,-105.572,1.916,9.053,1.293,-111.437,-0.863,9.491,1.438,-93.842,-181.818,99.707
4.1850000000000005,-1.485,9.101,-1.102,-99.707,1.772,9.005,1.341,-105.572,-0.719,9.491,1.438,-99.707,-175.953,93.842
4.19,-1.341,9.101,-1.102,-93.842,1.677,8.957,1.341,-99.707,-0.431,9.491,1.582,-105.572,-175.953,87.977
4.195,-1.15,9.197,-1.198,-87.977,1.485,9.005,1.389,-99.707,-0.288,9.491,1.582,-105.572,-175.953,82.111
4.2,-0.91,9.293,-1.293,-82.111,1.198,9.197,1.485,-87.977,-0.144,9.491,1.582,-111.437,-181.818,76.246
4.205,-0.671,9.436,-1.341,-76.246,0.91,9.532,1.533,-82.111,0.144,9.491,1.726,-111.437,-181.818,76.246
4.21,-0.479,9.676,-1.437,-70.381,0.671,9.867,1.581,-76.246,0.288,9.491,1.869,-111.437,-181.818,70.381
4.215,-0.287,9.82,-1.533,-70.381,0.431,10.155,1.677,-76.246,0.575,9.491,1.869,-105.572,-181.818,70.381
4.22,-0.048,9.82,-1.629,-70.381,0.24,10.299,1.772,-76.246,0.719,9.203,2.013,-105.572,-181.818,70.381
4.225,0.096,9.724,-1.677,-70.381,0.048,10.346,1.82,-76.246,0.719,9.059,2.013,-99.707,-187.683,76.246
4.23,0.192,9.484,-1.724,-70.381,-0.048,10.203,1.916,-76.246,0.863,8.916,2.013,-99.707,-187.683,76.246
4.235,0.24,9.197,-1.724,-76.246,-0.144,9.867,1.964,-82.111,1.294,8.916,2.013,-93.842,-187.683,82.111
4.24,0.383,8.909,-1.772,-76.246,-0.144,9.388,1.964,-82.111,1.582,8.916,2.157,-99.707,-187.683,82.111
4.245,0.671,8.622,-1.82,-82.111,-0.192,8.718,2.012,-82.111,1.726,8.772,2.301,-99.707,-187.683,82.111
4.25,0.814,8.335,-1.916,-76.246,-0.335,8.143,2.108,-82.111,1.869,8.484,2.445,-105.572,-181.818,76.246
4.255,0.91,8.047,-2.156,-76.246,-0.383,7.712,2.299,-82.111,2.013,8.197,2.588,-111.437,-175.953,70.381
4.26,1.102,7.856,-2.299,-70.381,-0.575,7.425,2.443,-76.246,2.157,8.053,2.588,-123.167,-175.953,58.651
4.265,1.245,7.76,-2.299,-58.651,-0.814,7.377,2.539,-70.381,2.301,8.053,2.588,-129.032,-170.088,52.786
4.2700000000000005,1.437,7.76,-2.347,-52.786,-1.054,7.425,2.539,-64.516,2.301,8.197,2.732,-134.897,-170.088,41.056
4.275,1.533,7.904,-2.347,-41.056,-1.198,7.52,2.539,-52.786,2.445,8.197,2.732,-134.897,-170.088,35.191
4.28,1.629,7.999,-2.443,-35.191,-1.341,7.712,2.635,-41.056,2.445,8.197,2.876,-134.897,-170.088,23.46
4.285,1.724,8.095,-2.539,-23.46,-1.485,7.951,2.73,-35.191,2.588,8.484,3.02,-140.762,-164.223,17.595
4.29,1.772,8.383,-2.635,-17.595,-1.533,8.191,2.826,-23.46,2.732,8.916,3.02,-140.762,-170.088,5.865
4.295,1.868,8.814,-2.73,-11.73,-1.581,8.622,2.874,-17.595,3.164,9.491,3.307,-140.762,-164.223,0.0
4.3,2.012,9.388,-2.922,-0.0,-1.485,9.149,3.018,-5.865,3.164,9.778,3.595,-140.762,-164.223,0.0
4.305,2.108,9.867,-3.209,5.865,-1.629,9.724,3.257,0.0,3.164,9.778,3.595,-140.762,-158.358,-5.865
4.3100000000000005,2.156,10.251,-3.353,5.865,-1.82,10.346,3.497,0.0,3.451,9.635,3.739,-134.897,-158.358,-5.865
4.315,2.347,10.203,-3.449,5.865,-1.772,10.586,3.593,5.865,3.307,9.347,3.739,-134.897,-152.493,0.0
4.32,2.347,10.011,-3.545,-0.0,-1.868,10.586,3.688,0.0,3.307,8.916,3.739,-129.032,-152.493,5.865
4.325,2.251,9.676,-3.64,-5.865,-1.772,10.346,3.832,0.0,3.164,8.628,3.595,-123.167,-146.628,11.73
4.33,2.251,9.293,-3.545,-11.73,-1.724,10.059,3.88,-5.865,3.164,8.484,3.451,-117.302,-140.762,17.595
4.335,2.203,8.957,-3.353,-11.73,-1.724,9.58,3.736,-11.73,3.02,8.484,3.307,-111.437,-140.762,17.595
4.34,2.06,8.718,-3.257,-11.73,-1.629,9.149,3.593,-17.595,2.876,8.484,3.164,-111.437,-134.897,17.595
4.345,1.964,8.574,-3.114,-17.595,-1.485,8.766,3.497,-17.595,2.876,8.628,3.02,-111.437,-134.897,11.73
4.3500000000000005,1.964,8.622,-2.874,-11.73,-1.533,8.67,3.353,-17.595,3.02,8.916,2.876,-111.437,-129.032,11.73
4.355,2.012,8.718,-2.73,-11.73,-1.581,8.574,3.161,-11.73,3.164,9.059,2.732,-111.437,-129.032,5.865
4.36,1.964,8.814,-2.682,-5.865,-1.389,8.478,3.018,-11.73,3.307,9.203,2.732,-117.302,-123.167,5.865
4.365,2.06,8.814,-2.587,-5.865,-1.437,8.383,2.97,-5.865,3.307,9.203,2.732,-123.167,-117.302,5.865
4.37,2.203,8.718,-2.587,-5.865,-1.437,8.239,2.97,-5.865,3.164,9.347,2.876,-129.032,-111.437,0.0
4.375,2.156,8.862,-2.635,-0.0,-1.724,8.191,2.97,0.0,3.595,9.059,2.588,-134.897,-105.572,0.0
4.38,2.395,8.814,-2.443,-0.0,-1.772,8.383,2.922,0.0,3.595,8.772,2.588,-140.762,-105.572,-5.865
4.385,2.635,8.574,-2.347,5.865,-2.06,8.287,2.635,0.0,3.595,8.628,2.732,-146.628,-99.707,-5.865
4.39,2.539,8.478,-2.539,11.73,-2.156,8.047,2.73,5.865,3.739,8.197,2.732,-146.628,-93.842,-5.865
4.3950000000000005,2.635,8.287,-2.587,11.73,-1.964,7.999,2.922,11.73,4.026,8.053,2.445,-152.493,-93.842,-5.865
4.4,2.922,8.095,-2.395,5.865,-2.443,7.808,2.778,5.865,3.739,7.478,2.445,-158.358,-87.977,-5.865
4.405,2.97,7.808,-2.203,5.865,-2.587,7.856,2.539,5.865,3.451,7.046,2.445,-158.358,-87.977,-5.865
4.41,2.73,7.377,-2.203,5.865,-2.539,7.472,2.491,5.865,3.307,6.471,2.301,-158.358,-82.111,0.0
4.415,2.635,7.041,-2.251,5.865,-2.299,7.377,2.587,5.865,3.883,6.04,2.157,-152.493,-82.111,-5.865
4.42,3.161,6.658,-2.06,5.865,-2.97,7.233,2.443,5.865,3.883,5.896,2.013,-146.628,-82.111,-5.865
4.425,3.114,6.562,-1.964,5.865,-2.778,7.137,2.347,5.865,3.883,5.608,1.869,-140.762,-82.111,-11.73
4.43,3.114,6.419,-1.82,11.73,-2.73,7.089,2.251,5.865,3.739,5.608,1.726,-134.897,-82.111,-17.595
4.4350000000000005,3.114,6.275,-1.629,17.595,-2.874,6.993,2.108,11.73,3.595,6.327,1.438,-129.032,-82.111,-17.595
4.44,2.874,6.61,-1.437,23.46,-2.826,6.898,1.964,17.595,3.451,7.19,1.294,-123.167,-82.111,-23.46
4.445,2.587,7.281,-1.245,29.326,-2.347,7.233,1.724,23.46,3.451,7.621,1.15,-117.302,-76.246,-35.191
4.45,2.539,7.808,-1.054,35.191,-2.06,7.856,1.533,29.326,3.451,7.909,1.007,-111.437,-76.246,-35.191
4.455,2.73,8.239,-0.91,41.056,-2.395,8.287,1.389,35.191,3.451,8.053,0.863,-111.437,-76.246,-41.056
4.46,2.826,8.526,-0.814,41.056,-2.635,8.67,1.245,35.191,3.451,8.053,0.719,-105.572,-76.246,-35.191
4.465,2.73,8.622,-0.719,35.191,-2.587,8.957,1.15,35.191,3.307,8.053,0.719,-105.572,-76.246,-35.191
4.47,2.587,8.574,-0.671,35.191,-2.395,9.101,1.054,35.191,3.451,7.765,0.719,-99.707,-70.381,-23.46
4.4750000000000005,2.539,8.383,-0.623,29.326,-2.299,8.909,1.054,29.326,3.451,7.621,0.575,-93.842,-70.381,-23.46
4.48,2.539,8.143,-0.527,29.326,-2.156,8.67,1.006,29.326,3.451,7.621,0.144,-87.977,-70.381,-23.46
4.485,2.539,7.904,-0.287,23.46,-2.108,8.287,0.862,23.46,3.595,7.765,-0.0,-87.977,-64.516,-23.46
4.49,2.539,7.808,-0.048,23.46,-2.108,7.904,0.623,23.46,3.739,7.909,-0.431,-87.977,-64.516,-23.46
4.495,2.682,7.664,0.383,23.46,-2.108,7.472,0.335,23.46,3.739,8.053,-0.863,-87.977,-58.651,-23.46
4.5,2.635,7.568,0.719,29.326,-2.108,6.993,-0.096,23.46,3.595,7.765,-0.863,-93.842,-52.786,-29.326
4.505,2.539,7.377,0.862,29.326,-1.916,6.706,-0.335,29.326,3.451,7.478,-1.007,-105.572,-46.921,-35.191
4.51,2.491,7.089,0.958,35.191,-1.964,6.61,-0.479,35.191,3.307,7.334,-1.15,-111.437,-46.921,-41.056
4.515,2.395,6.85,1.054,41.056,-2.012,6.323,-0.575,35.191,3.307,7.19,-1.15,-117.302,-41.056,-46.921
4.5200000000000005,2.299,6.658,1.102,46.921,-1.868,5.94,-0.671,41.056,3.164,6.902,-1.007,-123.167,-35.191,-52.786
4.525,2.251,6.562,1.102,52.786,-1.772,5.844,-0.671,46.921,3.307,6.615,-1.007,-129.032,-35.191,-58.651
4.53,2.347,6.61,1.054,58.651,-1.772,6.131,-0.671,52.786,3.451,6.759,-1.007,-134.897,-29.326,-70.381
4.535,2.491,6.898,0.958,70.381,-1.868,6.706,-0.575,64.516,3.739,7.19,-1.007,-129.032,-29.326,-76.246
4.54,2.635,7.568,1.006,76.246,-2.012,7.568,-0.575,70.381,3.739,7.909,-1.15,-123.167,-23.46,-82.111
4.545,2.778,8.478,1.102,82.111,-2.203,8.622,-0.623,76.246,3.739,8.916,-1.438,-117.302,-23.46,-82.111
4.55,2.826,9.628,1.341,82.111,-2.395,9.867,-0.814,82.111,3.595,9.635,-1.869,-105.572,-17.595,-82.111
4.555,2.778,10.634,1.724,82.111,-2.395,11.161,-1.15,87.977,3.451,10.066,-2.301,-93.842,-17.595,-76.246
4.5600000000000005,2.635,11.209,2.06,82.111,-2.395,12.071,-1.533,82.111,3.164,10.066,-2.588,-82.111,-17.595,-64.516
4.565,2.443,11.4,2.395,70.381,-2.203,12.55,-1.868,76.246,3.164,10.21,-2.876,-70.381,-23.46,-52.786
4.57,2.443,11.257,2.73,58.651,-2.156,12.454,-2.156,64.516,3.02,9.922,-3.307,-58.651,-23.46,-35.191
4.575,2.443,10.873,3.114,35.191,-2.395,11.927,-2.491,46.921,2.445,9.778,-3.739,-52.786,-23.46,-11.73
4.58,2.108,10.107,3.545,23.46,-2.251,10.921,-2.922,29.326,2.301,9.491,-4.026,-52.786,-23.46,0.0
4.585,1.724,9.197,3.88,5.865,-1.916,9.293,-3.305,11.73,2.301,9.203,-4.17,-58.651,-23.46,11.73
4.59,1.485,8.335,4.072,-5.865,-1.341,7.76,-3.545,0.0,2.301,8.772,-4.17,-70.381,-23.46,11.73
4.595,1.293,7.712,4.072,-11.73,-0.862,6.754,-3.593,-11.73,2.301,8.197,-4.026,-82.111,-17.595,0.0
4.6000000000000005,1.341,7.329,3.976,-5.865,-0.766,6.275,-3.545,-5.865,2.588,8.053,-3.883,-93.842,-11.73,-11.73
4.605,1.437,7.185,3.832,11.73,-0.719,6.083,-3.401,0.0,2.732,8.197,-3.883,-105.572,-11.73,-23.46
4.61,1.581,7.329,3.784,23.46,-0.766,6.275,-3.353,17.595,2.732,8.34,-3.739,-111.437,-5.865,-35.191
4.615,1.677,7.664,3.784,35.191,-1.006,6.706,-3.353,29.326,2.732,8.628,-3.739,-123.167,0.0,-46.921
4.62,1.677,8.095,3.736,46.921,-1.15,7.233,-3.353,41.056,2.732,8.628,-3.883,-129.032,5.865,-58.651
4.625,1.772,8.43,3.832,52.786,-1.102,7.904,-3.353,52.786,2.876,8.916,-4.026,-129.032,11.73,-64.516
4.63,1.868,9.005,3.976,64.516,-1.293,8.622,-3.497,58.651,2.876,8.916,-4.458,-129.032,11.73,-70.381
4.635,1.964,9.388,4.215,70.381,-1.437,9.484,-3.736,70.381,3.02,9.203,-4.889,-123.167,17.595,-70.381
4.64,2.06,9.772,4.646,76.246,-1.581,10.107,-4.119,76.246,2.876,9.491,-5.177,-117.302,17.595,-70.381
4.6450000000000005,2.06,10.107,5.077,76.246,-1.629,10.49,-4.551,76.246,2.445,9.778,-5.464,-111.437,17.595,-64.516
4.65,1.868,10.251,5.413,64.516,-1.772,10.634,-4.934,70.381,2.157,9.778,-5.752,-105.572,17.595,-58.651
4.655,1.677,10.394,5.652,58.651,-1.581,10.73,-5.173,64.516,1.869,10.21,-6.183,-105.572,11.73,-46.921
4.66,1.389,10.49,5.988,52.786,-1.485,10.825,-5.461,58.651,1.726,10.641,-6.615,-99.707,5.865,-35.191
4.665,1.198,10.634,6.419,41.056,-1.341,10.682,-5.844,46.921,1.726,10.929,-6.759,-99.707,5.865,-23.46
4.67,0.958,10.682,6.706,35.191,-1.006,10.49,-6.227,35.191,1.438,10.785,-6.902,-105.572,5.865,-23.46
4.675,0.575,10.538,6.85,29.326,-0.287,10.251,-6.419,29.326,1.294,10.641,-7.046,-105.572,5.865,-17.595
4.68,0.383,10.203,6.946,23.46,0.144,9.867,-6.514,23.46,1.007,10.641,-7.478,-111.437,11.73,-11.73
4.6850000000000005,0.048,10.059,7.329,17.595,0.431,9.484,-6.802,17.595,0.863,10.497,-7.765,-123.167,17.595,-5.865
4.69,-0.096,9.963,7.664,11.73,0.575,9.245,-7.185,17.595,1.007,10.497,-7.909,-129.032,17.595,-5.865
4.695,-0.192,9.82,7.76,5.865,0.958,9.197,-7.425,11.73,1.15,10.641,-7.765,-140.762,23.46,0.0
4.7,-0.048,9.628,7.808,5.865,0.862,8.766,-7.52,5.865,1.007,10.066,-7.334,-152.493,29.326,-5.865
4.705,0.144,9.245,7.472,5.865,0.527,8.239,-7.377,5.865,0.863,9.203,-6.902,-164.223,35.191,-5.865
4.71,0.0,8.862,7.041,11.73,0.431,8.143,-6.946,5.865,0.575,8.197,-6.902,-170.088,35.191,-11.73
4.715,-0.192,8.478,6.85,11.73,0.623,8.478,-6.658,11.73,0.719,7.765,-6.902,-170.088,41.056,-11.73
4.72,-0.096,8.335,6.802,17.595,0.671,8.814,-6.562,11.73,0.575,7.765,-6.902,-164.223,41.056,-17.595
4.7250000000000005,-0.383,8.239,6.85,23.46,0.766,9.053,-6.61,17.595,0.719,8.053,-7.334,-158.358,41.056,-17.595
4.73,0.0,8.574,7.233,17.595,0.623,9.005,-6.754,23.46,0.575,8.34,-7.478,-146.628,41.056,-17.595
4.735,0.0,8.909,7.377,23.46,0.24,9.484,-7.089,23.46,0.144,8.916,-7.909,-140.762,41.056,-17.595
4.74,-0.144,9.58,7.712,17.595,0.287,10.011,-7.233,23.46,0.431,10.066,-9.059,-134.897,41.056,-11.73
4.745,-0.24,10.73,8.526,11.73,0.192,11.113,-7.808,17.595,0.575,11.504,-10.066,-117.302,35.191,-11.73
4.75,0.096,11.783,10.011,11.73,0.527,12.789,-9.245,11.73,-0.863,11.073,-8.628,-111.437,35.191,-11.73
4.755,-0.766,10.873,8.957,11.73,0.24,11.161,-9.341,11.73,-0.575,10.21,-8.484,-117.302,29.326,0.0
4.76,-1.341,10.059,8.383,5.865,1.245,9.963,-8.191,11.73,-0.431,9.203,-8.197,-117.302,29.326,5.865
4.765,-0.958,9.484,8.287,-0.0,1.629,9.628,-8.047,0.0,-1.438,6.615,-7.909,-123.167,29.326,5.865
4.7700000000000005,-1.15,8.095,7.904,-5.865,0.814,9.341,-7.712,-5.865,-1.869,5.752,-8.053,-111.437,23.46,5.865
4.775,-1.772,6.61,8.047,-5.865,1.245,8.574,-7.568,-5.865,-0.575,8.772,-7.334,-93.842,11.73,-5.865
4.78,-1.102,8.526,7.472,5.865,1.245,8.766,-7.52,0.0,-1.15,8.916,-7.334,-87.977,5.865,-5.865
4.785,-1.341,9.101,7.137,11.73,1.341,9.197,-6.802,11.73,-1.438,8.484,-7.621,-87.977,5.865,-11.73
4.79,-1.724,9.005,7.425,11.73,1.629,9.58,-6.85,11.73,-1.294,8.197,-7.765,-76.246,0.0,-5.865
4.795,-1.581,8.862,7.664,11.73,1.677,9.772,-7.233,11.73,-1.438,7.478,-7.478,-70.381,0.0,-11.73
4.8,-1.389,8.43,7.425,11.73,1.245,9.724,-7.185,11.73,-1.438,6.471,-7.19,-58.651,-11.73,-11.73
4.805,-1.389,7.808,7.089,11.73,0.958,9.484,-6.802,11.73,-1.438,6.04,-6.902,-41.056,-17.595,-23.46
4.8100000000000005,-1.389,7.233,6.754,23.46,1.102,9.245,-6.467,17.595,-1.294,6.327,-6.615,-23.46,-29.326,-35.191
4.815,-1.533,7.233,6.419,29.326,1.293,8.718,-6.179,29.326,-1.15,6.902,-6.471,-11.73,-29.326,-41.056
4.82,-1.82,6.802,6.371,41.056,1.245,8.478,-5.94,35.191,-1.15,7.909,-6.327,-5.865,-29.326,-52.786
4.825,-2.06,6.993,6.131,52.786,0.479,10.203,-5.748,41.056,0.0,8.628,-6.327,-5.865,-35.191,-58.651
4.83,-0.431,9.58,6.993,58.651,2.682,5.748,-3.976,41.056,0.0,9.491,-6.902,5.865,-35.191,-58.651
4.835,-0.862,9.149,6.85,58.651,1.533,8.909,-6.179,52.786,-0.863,10.497,-7.19,5.865,-35.191,-52.786
4.84,-0.623,9.628,7.041,52.786,0.91,9.628,-6.467,58.651,-1.007,10.785,-7.19,0.0,-35.191,-52.786
4.845,-1.006,9.58,7.137,46.921,0.623,10.251,-6.275,52.786,-0.863,10.354,-6.759,-5.865,-29.326,-52.786
4.8500000000000005,-2.539,8.383,6.993,35.191,-0.048,11.209,-5.988,46.921,-1.294,9.347,-6.615,-35.191,-17.595,-52.786
4.855,-3.497,5.892,4.934,35.191,-2.491,14.753,-11.688,41.056,-1.15,9.347,-7.19,-70.381,-5.865,-52.786
4.86,-1.677,8.335,6.419,29.326,0.335,11.783,-4.886,41.056,-0.144,9.922,-7.046,-76.246,0.0,-46.921
4.865,-0.671,11.017,7.664,23.46,1.772,7.951,-6.467,46.921,-0.288,10.354,-7.334,-70.381,0.0,-41.056
4.87,-0.431,11.113,7.185,11.73,1.485,7.712,-7.712,52.786,-0.431,9.922,-7.765,-64.516,-11.73,-41.056
4.875,-0.383,10.155,7.185,11.73,1.437,7.808,-6.61,52.786,-0.431,9.203,-7.19,-52.786,-23.46,-41.056
4.88,-0.527,9.388,7.137,11.73,1.437,7.808,-6.993,46.921,-0.575,8.34,-7.046,-52.786,-29.326,-46.921
4.885,-0.431,8.814,6.993,23.46,0.814,8.095,-7.137,41.056,-0.288,7.621,-7.046,-46.921,-35.191,-46.921
4.89,-0.24,8.191,6.993,29.326,1.006,7.76,-6.802,46.921,0.0,7.046,-6.615,-46.921,-41.056,-46.921
4.8950000000000005,-0.144,7.712,6.754,35.191,0.91,7.616,-6.706,46.921,-0.144,6.615,-6.615,-41.056,-46.921,-52.786
4.9,-0.096,7.281,6.323,41.056,0.527,7.664,-6.275,52.786,0.144,5.896,-6.471,-35.191,-52.786,-52.786
4.905,0.0,7.041,6.419,46.921,0.479,7.52,-5.844,58.651,0.0,5.896,-6.615,-29.326,-52.786,-52.786
4.91,0.24,6.85,6.467,52.786,0.575,6.946,-6.227,70.381,0.144,5.752,-6.471,-17.595,-58.651,-58.651
4.915,0.192,6.85,6.514,58.651,0.623,7.329,-6.419,76.246,0.144,5.752,-6.327,-5.865,-64.516,-64.516
4.92,0.144,6.802,6.275,64.516,0.719,7.041,-6.179,82.111,0.144,5.752,-6.183,5.865,-70.381,-70.381
4.925,0.192,6.754,6.035,70.381,0.814,7.089,-5.988,87.977,1.438,5.033,-5.177,29.326,-70.381,-70.381
4.93,-0.192,6.419,5.892,70.381,0.862,6.946,-5.748,87.977,-0.575,5.608,-5.896,46.921,-64.516,-70.381
4.9350000000000005,0.192,6.179,5.652,76.246,0.575,6.706,-5.077,93.842,-1.15,5.608,-6.04,52.786,-70.381,-64.516
4.94,-0.479,5.844,6.035,70.381,0.575,6.419,-5.556,87.977,-0.431,5.752,-5.896,52.786,-82.111,-70.381
4.945,-0.383,5.892,5.844,70.381,0.144,6.179,-5.844,87.977,0.144,5.752,-5.608,58.651,-87.977,-70.381
4.95,-0.287,6.227,5.461,70.381,0.862,6.754,-5.413,82.111,0.431,6.04,-5.608,64.516,-93.842,-64.516
4.955,0.0,6.562,5.461,70.381,0.862,6.562,-5.173,76.246,0.431,6.327,-5.752,70.381,-93.842,-64.516
4.96,0.048,6.562,5.652,64.516,0.766,6.946,-5.173,70.381,0.431,6.615,-5.752,76.246,-93.842,-64.516
4.965,0.192,6.754,5.796,64.516,0.479,6.61,-5.365,70.381,0.144,6.615,-5.752,76.246,-87.977,-64.516
4.97,0.048,7.185,5.796,64.516,0.479,7.089,-5.317,64.516,0.144,6.902,-5.608,70.381,-87.977,-58.651
4.9750000000000005,-0.096,7.281,5.652,58.651,0.192,7.137,-5.317,58.651,0.0,7.19,-5.464,70.381,-87.977,-58.651
4.98,-0.096,7.472,5.461,58.651,0.383,6.898,-5.173,58.651,0.144,7.765,-5.321,64.516,-93.842,-58.651
4.985,-0.144,7.377,5.317,58.651,0.623,7.089,-4.934,58.651,0.288,7.765,-5.177,64.516,-93.842,-58.651
4.99,0.144,7.472,5.365,58.651,0.383,6.802,-4.934,52.786,0.719,7.909,-5.177,58.651,-99.707,-58.651
4.995,0.335,7.185,5.365,58.651,0.048,6.85,-4.838,52.786,1.007,8.053,-5.177,52.786,-99.707,-58.651
5.0,0.479,7.137,5.269,58.651,-0.096,6.898,-4.838,58.651,1.294,7.765,-5.177,52.786,-99.707,-58.651
5.005,0.766,7.281,5.221,58.651,-0.287,6.802,-4.838,58.651,1.582,7.19,-5.464,52.786,-99.707,-64.516
5.01,1.293,7.185,5.413,64.516,-0.671,6.61,-4.886,64.516,1.726,6.902,-5.464,46.921,-105.572,-64.516
5.015,1.677,6.754,5.509,70.381,-1.102,6.227,-5.077,70.381,3.02,7.046,-6.327,35.191,-105.572,-64.516
5.0200000000000005,2.443,3.88,6.467,64.516,-9.82,-4.646,-5.413,70.381,4.17,3.451,-4.314,5.865,-117.302,-46.921
5.025,4.263,4.407,4.742,52.786,0.192,6.754,-5.461,46.921,4.314,3.739,-4.458,5.865,-123.167,-23.46
5.03,3.497,5.173,4.024,35.191,-1.964,5.413,-3.832,23.46,3.595,4.17,-5.321,17.595,-117.302,-11.73
5.035,3.593,4.551,5.077,17.595,-2.778,5.556,-4.407,11.73,2.588,4.745,-5.464,23.46,-117.302,-11.73
5.04,2.874,4.982,5.652,11.73,-3.353,4.551,-5.269,11.73,2.445,5.321,-5.033,29.326,-123.167,-11.73
5.045,2.395,5.413,5.269,17.595,-2.97,4.79,-5.365,11.73,2.445,5.464,-4.745,29.326,-129.032,-11.73
5.05,2.347,5.461,4.838,17.595,-2.203,5.173,-4.694,5.865,2.588,5.464,-4.889,29.326,-134.897,-11.73
5.055,2.443,5.413,4.838,17.595,-2.06,5.317,-4.455,5.865,2.876,5.752,-5.177,29.326,-134.897,-11.73
5.0600000000000005,2.299,5.796,5.03,17.595,-2.156,5.413,-4.503,5.865,2.876,5.752,-5.177,29.326,-134.897,-11.73
5.065,2.395,5.892,5.173,23.46,-2.06,5.604,-4.79,11.73,2.732,6.04,-5.177,29.326,-134.897,-17.595
5.07,2.395,6.083,5.173,23.46,-2.06,5.748,-4.934,17.595,2.013,5.896,-5.177,29.326,-134.897,-17.595
5.075,2.587,5.94,5.173,35.191,-1.964,5.652,-4.742,23.46,2.013,5.896,-5.321,29.326,-134.897,-17.595
5.08,2.06,6.179,5.221,41.056,-1.868,6.227,-4.982,23.46,1.726,6.04,-5.033,29.326,-129.032,-17.595
5.085,2.251,6.179,5.173,46.921,-1.724,5.988,-4.407,35.191,2.157,6.183,-5.321,35.191,-129.032,-17.595
5.09,1.964,6.227,5.269,52.786,-1.533,5.892,-4.838,41.056,2.445,6.615,-5.464,35.191,-129.032,-17.595
5.095,2.06,6.467,5.413,58.651,-1.485,6.131,-4.838,52.786,2.732,6.902,-5.321,29.326,-123.167,-23.46
5.1000000000000005,2.156,6.898,5.365,70.381,-1.389,6.323,-4.982,58.651,2.732,7.19,-5.177,23.46,-117.302,-23.46
5.105,1.868,6.993,5.269,76.246,-1.437,6.562,-4.886,64.516,2.732,7.19,-5.033,23.46,-111.437,-29.326
5.11,1.916,7.233,4.455,76.246,-1.341,6.514,-4.982,70.381,3.02,7.478,-5.464,5.865,-111.437,-35.191
5.115,2.06,7.089,5.604,82.111,-1.341,6.898,-4.886,70.381,3.164,7.765,-5.464,5.865,-105.572,-35.191
5.12,2.156,7.52,5.365,82.111,-1.629,6.754,-4.934,76.246,3.307,7.765,-5.608,5.865,-105.572,-35.191
5.125,2.203,7.664,5.461,82.111,-1.485,6.993,-4.982,70.381,3.451,7.478,-5.321,0.0,-105.572,-35.191
5.13,1.964,7.425,5.413,76.246,-1.629,7.137,-5.03,70.381,3.451,7.19,-5.321,0.0,-99.707,-35.191
5.135,2.156,7.377,5.317,70.381,-1.581,7.329,-5.125,64.516,3.307,7.046,-5.321,0.0,-99.707,-35.191
5.14,2.299,7.425,5.173,70.381,-1.772,7.52,-4.79,64.516,3.307,7.046,-4.745,0.0,-99.707,-35.191
5.1450000000000005,2.443,7.233,5.03,64.516,-1.772,7.616,-4.79,58.651,3.307,6.902,-5.177,0.0,-99.707,-29.326
5.15,2.251,7.377,4.982,58.651,-1.868,7.616,-4.646,52.786,3.164,7.046,-4.889,5.865,-99.707,-23.46
5.155,2.108,7.52,5.03,52.786,-1.772,7.76,-4.694,46.921,2.732,7.046,-4.602,5.865,-105.572,-23.46
5.16,2.251,7.712,4.742,46.921,-1.916,7.904,-4.646,41.056,2.445,7.19,-4.745,5.865,-105.572,-11.73
5.165,2.203,7.712,4.838,41.056,-2.108,8.047,-4.503,35.191,3.307,7.909,-4.889,5.865,-111.437,0.0
5.17,2.299,7.999,4.982,35.191,-2.012,7.999,-4.79,29.326,4.026,8.053,-4.602,17.595,-111.437,5.865
5.175,2.251,8.287,4.742,23.46,-2.156,8.335,-4.598,23.46,3.739,8.053,-4.314,23.46,-117.302,0.0
5.18,2.108,8.478,4.455,23.46,-2.012,8.622,-4.455,17.595,3.02,8.053,-4.314,29.326,-117.302,-5.865
5.1850000000000005,2.06,8.574,4.407,23.46,-2.012,9.005,-4.215,17.595,3.307,8.053,-4.745,29.326,-123.167,-11.73
5.19,2.108,8.67,4.598,17.595,-1.964,8.957,-4.359,11.73,3.451,8.197,-4.745,29.326,-123.167,-11.73
5.195,2.539,9.101,4.886,17.595,-1.82,9.149,-4.407,11.73,3.451,8.197,-5.033,41.056,-123.167,-11.73
5.2,3.018,9.197,4.838,17.595,-2.395,9.388,-4.646,11.73,3.164,8.053,-5.177,46.921,-117.302,-11.73
5.205,3.209,9.436,4.79,23.46,-2.347,9.724,-4.503,11.73,3.02,8.053,-5.033,58.651,-111.437,-5.865
5.21,3.018,9.484,4.886,29.326,-2.299,9.724,-4.503,17.595,3.02,8.628,-4.889,70.381,-105.572,5.865
5.215,3.114,9.484,4.79,35.191,-2.347,9.724,-4.598,23.46,3.164,9.491,-4.745,76.246,-105.572,17.595
5.22,3.066,9.628,4.646,41.056,-2.491,9.915,-4.407,29.326,4.026,9.922,-4.745,76.246,-99.707,23.46
5.2250000000000005,2.73,9.915,4.551,41.056,-2.491,9.82,-4.263,35.191,4.458,9.778,-4.889,87.977,-99.707,29.326
5.23,2.491,10.203,4.359,46.921,-2.203,9.724,-4.215,41.056,3.883,9.778,-4.458,93.842,-93.842,29.326
5.235,2.539,9.915,4.551,46.921,-2.06,9.867,-4.263,41.056,3.739,9.635,-4.314,93.842,-93.842,29.326
5.24,2.395,10.011,4.598,41.056,-2.491,9.58,-4.215,41.056,3.883,9.347,-4.314,99.707,-99.707,35.191
5.245,2.778,10.155,4.359,41.056,-2.491,9.724,-4.263,41.056,3.307,8.628,-4.026,99.707,-99.707,46.921
5.25,4.646,9.053,4.167,41.056,-2.778,9.628,-4.072,35.191,4.458,6.615,-3.307,93.842,-93.842,52.786
5.255,5.03,7.664,3.88,41.056,-3.64,8.814,-3.88,35.191,5.608,6.04,-4.314,93.842,-93.842,70.381
5.26,4.886,8.43,5.365,41.056,-3.976,8.957,-4.072,29.326,7.621,6.759,-4.889,93.842,-93.842,93.842
5.265,5.461,8.814,4.838,29.326,-4.455,8.67,-4.838,23.46,8.772,6.902,-5.464,99.707,-76.246,105.572
5.2700000000000005,6.179,8.526,4.263,29.326,-4.359,8.335,-4.167,17.595,11.073,7.909,-4.026,111.437,-58.651,111.437
5.275,5.604,8.67,4.551,23.46,-4.215,8.67,-4.024,17.595,12.654,8.484,-3.307,111.437,-35.191,105.572
5.28,4.838,8.957,4.263,17.595,-3.928,8.67,-4.167,11.73,10.21,9.059,-3.883,93.842,-23.46,87.977
5.285,4.407,8.957,4.646,11.73,-3.64,8.574,-4.167,11.73,8.34,9.203,-3.164,76.246,-46.921,70.381
5.29,3.257,9.341,4.407,5.865,-3.688,8.526,-4.167,0.0,8.484,9.922,-3.02,58.651,-35.191,41.056
5.295,3.305,9.628,3.64,-5.865,-3.066,8.766,-3.928,-5.865,9.059,10.641,-3.739,46.921,-17.595,35.191
5.3,2.778,9.915,3.161,-11.73,-2.347,9.197,-2.97,-11.73,6.327,10.641,-4.026,46.921,-5.865,23.46
5.305,3.497,10.778,3.832,-17.595,-2.299,9.388,-3.114,-17.595,5.752,10.641,-4.314,41.056,-5.865,5.865
5.3100000000000005,3.018,10.825,4.167,-17.595,-3.257,10.059,-3.64,-23.46,5.896,10.641,-4.314,46.921,0.0,-5.865
5.315,2.874,11.017,3.88,-11.73,-2.73,10.107,-3.784,-17.595,6.183,11.073,-3.739,52.786,5.865,-5.865
5.32,2.97,11.4,3.64,-5.865,-2.347,10.251,-3.305,-11.73,5.896,11.073,-3.595,52.786,5.865,-11.73
5.325,3.066,11.304,3.976,-0.0,-2.635,10.538,-3.257,-11.73,6.615,10.641,-4.026,52.786,11.73,-17.595
5.33,3.497,11.352,3.832,5.865,-3.161,10.778,-3.64,0.0,7.046,10.21,-4.314,46.921,17.595,-17.595
5.335,3.976,10.969,3.88,17.595,-3.018,10.49,-3.545,5.865,6.902,9.491,-4.026,52.786,23.46,-23.46
5.34,4.072,11.065,3.784,23.46,-3.497,10.682,-3.545,17.595,6.327,9.347,-3.883,58.651,29.326,-35.191
5.345,3.832,10.73,3.688,35.191,-3.545,10.73,-3.353,23.46,5.752,9.347,-3.595,64.516,35.191,-41.056
5.3500000000000005,3.497,10.251,3.497,41.056,-3.305,10.442,-3.353,35.191,5.177,9.491,-2.876,64.516,35.191,-46.921
5.355,3.353,10.155,3.353,46.921,-3.209,10.299,-3.161,41.056,4.745,9.203,-2.732,64.516,29.326,-52.786
5.36,3.161,9.915,3.257,52.786,-3.066,10.203,-3.114,52.786,3.451,9.059,-3.02,58.651,23.46,-52.786
5.365,2.922,10.107,3.161,58.651,-2.778,10.011,-2.97,52.786,3.02,8.916,-3.307,58.651,23.46,-41.056
5.37,2.635,10.49,3.545,70.381,-2.491,10.251,-2.922,64.516,3.595,9.491,-3.739,64.516,35.191,-23.46
5.375,2.06,10.251,3.401,76.246,-2.299,10.682,-3.449,70.381,3.739,9.778,-3.739,70.381,35.191,-5.865
5.38,2.108,10.538,3.497,76.246,-1.629,10.634,-3.305,76.246,3.883,10.066,-3.739,76.246,35.191,-5.865
5.385,1.437,10.873,3.497,82.111,-1.485,10.682,-3.305,82.111,3.883,9.922,-3.739,82.111,35.191,-11.73
5.39,0.958,10.825,3.545,82.111,-0.91,10.873,-3.353,82.111,3.307,9.635,-3.595,87.977,35.191,-11.73
5.3950000000000005,0.335,10.299,3.976,87.977,-0.623,10.921,-3.497,82.111,2.732,9.203,-3.595,93.842,35.191,-11.73
5.4,-0.958,9.245,4.167,82.111,-0.24,10.394,-3.784,82.111,2.588,9.203,-3.307,99.707,35.191,-11.73
5.405,-1.629,8.43,4.646,64.516,0.048,9.867,-3.64,82.111,2.445,8.772,-3.164,93.842,35.191,-5.865
5.41,-2.539,8.239,5.365,41.056,-0.623,9.867,-3.305,70.381,2.301,9.059,-3.164,82.111,41.056,11.73
5.415,-1.868,7.329,6.419,5.865,-0.096,9.963,-3.976,58.651,2.588,9.059,-3.307,70.381,46.921,29.326
5.42,-0.048,7.76,6.562,-29.326,-0.096,9.484,-4.359,52.786,2.876,8.484,-3.883,58.651,52.786,46.921
5.425,1.054,8.526,6.419,-58.651,-0.575,9.101,-4.359,41.056,3.883,9.203,-5.752,58.651,5.865,58.651
5.43,4.167,11.209,-1.533,-70.381,-0.287,9.149,-4.598,29.326,3.883,9.491,-5.608,129.032,-5.865,58.651
5.4350000000000005,1.629,9.341,6.562,-58.651,0.24,8.862,-2.587,17.595,4.17,8.916,-6.759,175.953,35.191,46.921
5.44,1.389,8.718,6.371,-52.786,-0.766,8.957,-5.413,5.865,4.602,9.491,-4.458,187.683,23.46,29.326
5.445,0.719,9.724,3.976,-52.786,-0.287,9.197,-4.934,5.865,4.602,9.347,-3.739,193.548,17.595,11.73
5.45,0.862,9.724,4.311,-52.786,-0.431,9.101,-4.407,0.0,3.739,9.491,-3.164,181.818,11.73,5.865
5.455,1.15,10.251,3.257,-46.921,-0.383,8.862,-4.886,0.0,3.739,9.922,-2.588,158.358,5.865,5.865
5.46,1.485,10.586,2.156,-35.191,-0.383,8.957,-4.551,5.865,4.314,10.354,-2.157,134.897,5.865,5.865
5.465,1.629,10.49,2.108,-29.326,-0.527,8.909,-4.311,5.865,4.745,10.354,-2.157,111.437,11.73,11.73
5.47,1.533,9.963,2.443,-17.595,-0.719,8.67,-4.167,11.73,4.458,9.635,-2.301,93.842,11.73,5.865
5.4750000000000005,1.724,9.82,2.395,-17.595,-0.862,8.287,-4.024,11.73,3.883,9.347,-2.445,76.246,5.865,5.865
5.48,1.533,9.341,2.587,-11.73,-0.862,8.095,-4.024,17.595,3.451,8.628,-2.445,64.516,5.865,0.0
5.485,1.054,9.101,2.922,-11.73,-0.814,7.856,-3.976,17.595,3.451,8.772,-2.588,46.921,0.0,0.0
5.49,1.054,8.814,2.635,-11.73,-0.814,7.951,-3.88,11.73,3.451,8.772,-2.732,41.056,0.0,5.865
5.495,0.862,8.67,2.826,-17.595,-0.575,7.76,-3.88,5.865,3.164,8.628,-3.02,29.326,5.865,11.73
5.5,0.91,8.622,2.874,-17.595,-0.431,7.568,-3.928,0.0,3.02,8.197,-3.164,23.46,11.73,11.73
5.505,0.862,8.43,3.114,-17.595,-0.096,7.712,-4.072,0.0,2.732,7.909,-3.739,5.865,11.73,11.73
5.51,1.245,8.047,4.598,-17.595,0.048,7.52,-4.024,-5.865,2.445,7.478,-3.307,0.0,-5.865,5.865
5.515,1.245,8.047,3.449,-17.595,0.048,7.377,-4.119,-11.73,2.445,7.046,-3.739,-5.865,-11.73,5.865
5.5200000000000005,1.533,7.76,3.305,-11.73,-0.192,7.52,-4.119,-11.73,2.732,7.478,-3.883,-11.73,-11.73,11.73
5.525,1.15,8.143,3.401,-5.865,-0.048,7.329,-4.119,-11.73,2.157,7.909,-3.883,-11.73,-11.73,11.73
5.53,0.766,8.43,3.449,-0.0,0.24,7.568,-4.072,-11.73,2.157,8.484,-3.739,-5.865,-11.73,5.865
5.535,0.096,8.622,3.401,11.73,0.527,7.808,-4.167,-5.865,2.013,9.059,-3.595,0.0,-11.73,5.865
5.54,-0.287,8.909,3.401,11.73,0.814,7.951,-4.215,0.0,1.869,9.347,-3.451,0.0,-11.73,0.0
5.545,-0.91,8.814,3.449,17.595,1.15,7.808,-4.119,5.865,1.438,9.347,-3.164,-5.865,-5.865,-5.865
5.55,-1.15,8.766,3.497,17.595,1.581,7.664,-4.167,5.865,0.863,9.491,-3.164,-17.595,-5.865,-5.865
5.555,-1.341,8.718,3.497,17.595,1.724,7.616,-4.215,11.73,0.575,9.347,-3.164,-23.46,-5.865,0.0
5.5600000000000005,-1.437,8.718,3.497,11.73,1.724,7.568,-4.215,11.73,0.719,9.203,-3.307,-35.191,-5.865,0.0
5.565,-1.533,8.526,3.497,11.73,1.677,7.664,-4.167,11.73,0.719,9.203,-3.451,-46.921,-11.73,5.865
5.57,-1.437,8.574,3.545,11.73,1.629,7.616,-4.072,11.73,0.863,9.347,-3.739,-52.786,-5.865,5.865
5.575,-1.389,8.526,3.784,5.865,1.677,7.52,-4.263,11.73,1.007,9.491,-3.739,-64.516,-11.73,11.73
5.58,-1.245,8.67,3.928,5.865,1.772,7.329,-4.455,11.73,1.15,9.347,-3.595,-64.516,-11.73,11.73
5.585,-1.054,8.574,3.928,-0.0,1.677,7.616,-4.503,11.73,1.438,9.203,-3.02,-70.381,-11.73,11.73
5.59,-0.766,8.574,4.072,-0.0,1.581,7.856,-4.551,11.73,1.15,9.203,-3.164,-82.111,-11.73,5.865
5.595,-0.719,8.766,3.832,5.865,1.629,8.047,-4.694,11.73,0.863,9.347,-3.451,-93.842,-17.595,5.865
5.6000000000000005,-0.958,8.814,3.784,5.865,1.724,8.239,-4.646,17.595,0.863,9.203,-3.307,-93.842,-17.595,5.865
5.605,-1.054,8.909,3.688,11.73,1.964,8.526,-4.503,17.595,0.863,9.203,-3.451,-99.707,-23.46,5.865
5.61,-1.198,9.053,3.832,17.595,2.108,8.718,-4.503,23.46,1.007,9.059,-3.883,-93.842,-29.326,0.0
5.615,-1.868,9.58,-1.964,29.326,2.299,8.957,-4.598,29.326,0.863,9.059,-5.033,-70.381,-41.056,-5.865
5.62,-1.485,9.628,4.838,29.326,2.539,9.245,-4.024,29.326,1.007,9.347,-4.458,-58.651,-46.921,-11.73
5.625,-1.916,9.628,3.736,35.191,2.778,9.484,-4.934,35.191,0.575,9.778,-4.458,-41.056,-35.191,-17.595
5.63,-1.724,10.011,3.736,41.056,2.73,9.532,-4.742,41.056,1.294,10.21,-4.17,-29.326,-29.326,-17.595
5.635,-1.964,10.203,3.736,41.056,3.114,9.963,-4.551,41.056,1.582,10.354,-4.314,-23.46,-29.326,-11.73
5.64,-1.677,10.299,3.88,46.921,2.682,9.867,-4.742,46.921,1.438,10.354,-5.033,-17.595,-29.326,-17.595
5.6450000000000005,-1.293,10.586,4.024,46.921,2.491,9.82,-4.886,46.921,1.582,10.066,-5.321,0.0,-23.46,-11.73
5.65,-1.102,10.634,4.072,52.786,2.299,9.963,-4.982,52.786,1.869,9.922,-5.033,23.46,-23.46,-11.73
5.655,-0.91,10.538,4.024,58.651,2.06,9.963,-5.03,52.786,1.438,9.635,-4.889,41.056,-29.326,-17.595
5.66,-0.862,10.634,3.64,58.651,1.82,9.867,-4.886,52.786,0.719,8.916,-4.602,58.651,-29.326,-17.595
5.665,-1.054,10.538,3.449,58.651,1.677,9.867,-4.551,52.786,0.863,9.203,-3.739,76.246,-35.191,-17.595
5.67,-1.054,10.538,3.209,58.651,1.724,9.867,-4.407,52.786,1.15,9.347,-4.026,93.842,-41.056,-17.595
5.675,-1.245,10.73,2.874,58.651,1.724,9.915,-4.024,52.786,1.15,9.491,-3.883,111.437,-46.921,-17.595
5.68,-1.724,10.586,3.209,64.516,1.868,9.724,-3.928,52.786,1.869,10.21,-3.307,123.167,-64.516,-23.46
5.6850000000000005,-1.916,10.107,3.401,64.516,2.108,9.724,-4.311,52.786,2.445,11.073,-3.451,129.032,-76.246,-23.46
5.69,-1.772,9.58,3.161,58.651,2.203,9.628,-4.311,52.786,2.445,11.216,-3.307,129.032,-93.842,-23.46
5.695,-1.533,9.628,3.066,52.786,2.299,9.293,-3.928,52.786,2.157,11.073,-2.876,123.167,-99.707,-23.46
5.7,-1.341,9.436,3.161,52.786,1.964,9.053,-3.88,52.786,1.869,10.641,-2.732,117.302,-117.302,-17.595
5.705,-0.958,9.388,3.545,52.786,1.677,9.101,-4.167,52.786,1.726,10.21,-2.445,117.302,-129.032,-17.595
5.71,-0.719,9.388,3.784,52.786,1.629,9.005,-4.503,58.651,1.582,10.066,-2.013,117.302,-146.628,-11.73
5.715,-0.671,9.341,3.88,52.786,1.581,8.909,-4.598,58.651,1.582,9.922,-1.582,111.437,-152.493,-11.73
5.72,-0.766,9.149,3.88,58.651,1.485,8.957,-4.694,58.651,1.438,10.066,-1.438,111.437,-158.358,-5.865
5.7250000000000005,-0.766,9.149,3.832,52.786,1.581,8.862,-4.646,58.651,1.438,10.066,-1.294,105.572,-164.223,-5.865
5.73,-0.814,9.053,3.736,58.651,1.629,8.909,-4.598,58.651,1.582,10.066,-1.15,99.707,-170.088,0.0
5.735,-0.958,9.149,3.832,58.651,1.629,8.909,-4.551,64.516,1.438,10.21,-0.863,93.842,-170.088,0.0
5.74,-0.91,9.149,3.784,58.651,1.677,8.862,-4.598,64.516,1.294,10.497,-0.719,93.842,-170.088,0.0
5.745,-0.814,9.101,3.736,64.516,1.724,8.957,-4.503,64.516,1.582,10.497,-0.431,87.977,-164.223,0.0
5.75,-0.719,9.197,3.736,64.516,1.629,8.957,-4.551,70.381,1.869,10.641,-0.431,82.111,-164.223,0.0
5.755,-0.623,9.293,3.832,64.516,1.629,9.101,-4.646,70.381,2.013,10.785,-0.575,82.111,-158.358,5.865
5.76,-0.479,9.436,3.928,64.516,1.629,9.197,-4.694,70.381,2.013,10.929,-0.719,87.977,-164.223,5.865
5.765,-0.287,9.484,3.88,70.381,1.629,9.197,-4.694,76.246,1.582,10.497,-1.007,93.842,-164.223,5.865
5.7700000000000005,-0.24,9.724,3.88,76.246,1.437,9.58,-4.694,76.246,2.732,11.36,-0.863,105.572,-170.088,11.73
5.775,-0.096,10.107,3.832,82.111,1.245,9.724,-4.646,82.111,2.876,11.36,-1.582,123.167,-170.088,11.73
5.78,-0.096,10.346,3.832,87.977,1.389,9.724,-4.646,87.977,3.02,11.504,-1.15,134.897,-170.088,17.595
5.785,-0.335,10.394,3.784,93.842,1.485,9.867,-4.646,93.842,3.451,11.648,-0.863,146.628,-175.953,23.46
5.79,-0.527,10.586,3.736,99.707,1.533,10.059,-4.646,93.842,3.307,11.36,-0.719,152.493,-175.953,29.326
5.795,-0.719,10.778,3.593,105.572,1.629,10.059,-4.551,99.707,3.164,11.073,-0.288,146.628,-181.818,35.191
5.8,-0.862,10.778,3.497,105.572,1.724,10.107,-4.455,99.707,3.164,10.497,0.288,146.628,-181.818,35.191
5.805,-0.91,10.825,3.305,105.572,1.82,10.107,-4.311,99.707,3.02,10.066,0.575,140.762,-181.818,41.056
5.8100000000000005,-0.958,10.73,3.209,105.572,1.772,10.107,-4.215,99.707,2.876,10.066,1.007,129.032,-181.818,41.056
5.815,-0.862,10.73,3.114,105.572,1.724,10.059,-4.119,99.707,2.732,9.778,1.294,117.302,-181.818,41.056
5.82,-0.719,10.921,3.066,105.572,1.629,10.155,-4.024,105.572,2.876,9.491,1.582,105.572,-170.088,35.191
5.825,-0.527,10.969,3.161,105.572,1.485,10.251,-4.072,99.707,2.876,9.059,1.582,99.707,-170.088,35.191
5.83,-0.479,11.257,3.257,105.572,1.533,10.394,-4.167,105.572,2.876,8.772,1.438,99.707,-164.223,29.326
5.835,-0.527,11.496,3.257,105.572,1.581,10.442,-4.215,99.707,2.876,8.628,1.582,99.707,-164.223,23.46
5.84,-0.671,11.736,3.209,99.707,1.724,10.586,-4.167,99.707,3.02,8.772,1.726,99.707,-164.223,29.326
5.845,-0.862,11.736,3.114,99.707,1.964,10.49,-4.072,93.842,3.164,9.059,1.869,105.572,-164.223,29.326
5.8500000000000005,-1.15,11.4,3.066,93.842,1.916,10.394,-4.072,93.842,3.451,9.347,2.301,111.437,-164.223,29.326
5.855,-1.437,11.257,2.922,93.842,2.156,10.299,-3.928,87.977,3.739,9.922,2.301,123.167,-158.358,35.191
5.86,-1.293,11.065,2.922,93.842,2.299,10.155,-3.784,87.977,4.026,10.354,2.445,123.167,-152.493,35.191
5.865,-1.724,11.017,2.73,87.977,2.299,10.346,-3.832,82.111,4.458,10.641,2.588,134.897,-152.493,41.056
5.87,-1.82,10.778,2.635,87.977,1.964,10.394,-3.784,76.246,4.745,10.785,2.445,158.358,-146.628,46.921
5.875,-1.629,10.873,2.443,87.977,1.82,10.394,-3.593,76.246,4.745,10.21,2.445,175.953,-146.628,52.786
5.88,-1.581,10.634,2.491,93.842,2.012,10.155,-3.497,76.246,4.745,9.922,2.876,193.548,-140.762,64.516
5.885,-1.581,10.49,2.347,99.707,2.06,10.011,-3.353,82.111,5.033,9.203,2.876,211.144,-140.762,76.246
5.89,-1.437,10.203,2.251,111.437,1.916,9.676,-3.305,82.111,4.602,8.484,3.02,205.279,-140.762,93.842
5.8950000000000005,-1.629,9.676,2.299,123.167,1.964,9.628,-3.161,87.977,4.314,7.909,3.595,205.279,-140.762,99.707
5.9,-1.581,9.341,2.203,129.032,1.868,9.197,-3.257,99.707,4.17,7.334,4.026,211.144,-134.897,99.707
5.905,-1.389,9.293,2.203,129.032,1.677,9.005,-3.161,105.572,4.17,6.902,4.314,222.874,-129.032,99.707
5.91,-1.198,9.197,2.395,129.032,1.485,8.67,-3.257,111.437,4.314,6.327,4.458,222.874,-123.167,105.572
5.915,-0.814,9.053,2.443,129.032,1.485,8.383,-3.257,117.302,4.458,6.04,4.602,222.874,-105.572,105.572
5.92,-0.527,8.814,2.443,129.032,1.437,8.239,-3.209,117.302,4.314,5.896,4.458,217.009,-93.842,99.707
5.925,-0.479,8.718,2.395,134.897,1.293,8.239,-3.114,123.167,4.17,5.752,4.314,205.279,-76.246,99.707
5.93,-0.431,8.67,2.299,140.762,1.198,8.191,-3.114,129.032,4.314,5.752,4.17,193.548,-64.516,93.842
5.9350000000000005,-0.479,8.526,2.251,140.762,1.198,7.999,-3.018,134.897,4.458,5.464,3.739,181.818,-52.786,93.842
5.94,-0.623,8.43,2.108,146.628,1.341,7.808,-2.874,134.897,4.17,5.177,3.595,181.818,-46.921,87.977
5.945,-0.862,8.191,2.012,146.628,1.581,7.664,-2.778,134.897,3.595,4.602,3.451,181.818,-41.056,87.977
5.95,-1.102,7.808,2.012,146.628,1.82,7.664,-2.778,134.897,4.17,4.745,3.595,181.818,-46.921,87.977
5.955,-1.293,7.616,1.916,146.628,2.012,7.712,-2.73,134.897,4.458,4.745,3.02,181.818,-41.056,87.977
5.96,-1.629,7.664,1.82,146.628,2.108,7.712,-2.443,134.897,4.314,4.602,3.02,181.818,-41.056,93.842
5.965,-1.964,7.568,1.868,146.628,2.491,7.712,-2.395,129.032,4.314,4.314,3.451,175.953,-46.921,93.842
5.97,-2.347,7.472,1.581,146.628,2.778,7.712,-2.491,129.032,4.17,4.026,3.451,170.088,-52.786,99.707
5.9750000000000005,-2.587,7.377,1.485,140.762,2.922,7.568,-2.347,129.032,4.314,4.17,3.451,164.223,-52.786,99.707
5.98,-2.826,7.52,1.341,134.897,2.97,7.904,-2.203,123.167,4.17,4.026,3.739,152.493,-58.651,105.572
5.985,-2.97,7.808,1.341,123.167,3.161,7.999,-2.251,117.302,4.17,3.595,3.883,146.628,-64.516,111.437
5.99,-2.922,8.191,1.341,111.437,3.257,8.191,-2.299,105.572,4.17,3.451,4.17,152.493,-64.516,117.302
5.995,-2.778,8.526,1.389,105.572,3.161,8.478,-2.347,93.842,4.17,3.164,4.745,164.223,-70.381,117.302
6.0,-2.587,8.862,1.437,99.707,3.114,8.766,-2.443,87.977,4.17,3.02,5.464,175.953,-76.246,123.167
6.005,-2.491,8.957,1.533,93.842,3.161,8.909,-2.539,87.977,4.17,2.588,5.896,181.818,-76.246,123.167
6.01,-2.539,9.053,1.533,93.842,3.209,9.005,-2.491,82.111,4.17,2.301,6.471,193.548,-76.246,129.032
6.015000000000001,-2.491,9.053,1.677,93.842,3.305,9.005,-2.539,82.111,4.314,2.301,6.902,199.413,-82.111,129.032
6.0200000000000005,-2.395,8.957,1.82,93.842,3.353,8.957,-2.682,82.111,4.458,2.157,7.478,205.279,-82.111,129.032
6.025,-2.203,8.766,1.964,93.842,3.305,9.053,-2.826,82.111,4.745,2.157,7.909,211.144,-82.111,129.032
6.03,-2.012,8.67,2.06,105.572,3.161,9.245,-3.018,82.111,4.745,2.588,8.053,217.009,-82.111,123.167
6.035,-1.82,8.862,2.108,105.572,3.305,9.149,-3.114,87.977,5.177,2.876,8.053,217.009,-70.381,117.302
6.04,-1.772,8.814,2.06,117.302,3.209,9.293,-3.114,99.707,5.177,3.164,7.909,217.009,-64.516,105.572
