time_aligned_sec,L_Acc_X_aligned,L_Acc_Y_aligned,L_Acc_Z_aligned,L_Gyro_Z_aligned,R_Acc_X_aligned,R_Acc_Y_aligned,R_Acc_Z_aligned,R_Gyro_Z_aligned,T_Acc_X_aligned,T_Acc_Y_aligned,T_Acc_Z_aligned,T_Gyro_X_aligned,T_Gyro_Y_aligned,T_Gyro_Z_aligned
0.0,-2.491,7.137,6.323,-0.0,3.114,7.041,-6.035,0.0,-3.02,7.334,-6.615,46.921,41.056,0.0
0.005,-2.395,7.137,6.275,-5.865,3.114,7.089,-6.083,0.0,-2.876,7.334,-6.615,46.921,41.056,0.0
0.01,-2.395,7.089,6.275,-0.0,3.161,7.185,-6.035,0.0,-3.02,7.478,-6.615,46.921,41.056,0.0
0.015,-2.491,7.329,6.323,-0.0,3.114,7.185,-6.035,0.0,-2.732,7.19,-6.471,46.921,41.056,5.865
0.02,-2.347,7.329,6.371,-5.865,3.114,7.233,-6.083,0.0,-2.876,7.19,-6.471,41.056,41.056,5.865
0.025,-2.347,7.281,6.371,-5.865,3.018,7.233,-6.131,0.0,-2.732,7.19,-6.327,46.921,41.056,5.865
0.03,-2.491,7.329,6.323,-5.865,3.018,7.281,-6.131,0.0,-2.732,7.19,-6.327,46.921,41.056,5.865
0.035,-2.395,7.329,6.323,-5.865,3.161,7.281,-6.083,0.0,-2.876,7.19,-6.327,46.921,41.056,5.865
0.04,-2.443,7.329,6.371,-0.0,3.114,7.329,-6.083,0.0,-2.732,7.19,-6.183,41.056,41.056,5.865
0.045,-2.347,7.233,6.275,-5.865,3.066,7.281,-6.083,0.0,-2.876,7.19,-6.327,46.921,41.056,5.865
0.05,-2.347,7.137,6.179,-0.0,3.018,7.185,-5.988,0.0,-2.732,7.19,-6.327,41.056,41.056,5.865
0.055,-2.395,7.137,6.083,-0.0,3.018,7.185,-5.892,0.0,-2.588,7.046,-6.183,41.056,41.056,5.865
0.06,-2.299,7.137,6.035,-5.865,3.018,7.281,-5.844,0.0,-2.876,7.334,-6.327,46.921,41.056,0.0
0.065,-2.347,7.089,5.988,-5.865,3.018,7.233,-5.796,0.0,-2.732,7.478,-6.327,46.921,41.056,5.865
0.07,-2.443,7.185,5.988,-5.865,3.018,7.233,-5.748,0.0,-2.732,7.478,-6.327,41.056,41.056,5.865
0.075,-2.347,7.233,5.988,-5.865,3.114,7.185,-5.748,0.0,-2.876,7.478,-6.327,41.056,41.056,5.865
0.08,-2.395,7.233,6.035,-5.865,3.018,7.137,-5.796,0.0,-2.732,7.478,-6.327,41.056,41.056,5.865
0.085,-2.491,7.185,6.035,-5.865,3.018,7.137,-5.796,-5.865,-2.876,7.334,-6.327,41.056,41.056,5.865
0.09,-2.491,7.329,5.94,-5.865,3.161,7.137,-5.748,-5.865,-2.732,7.334,-6.327,41.056,41.056,5.865
0.095,-2.395,7.281,5.892,-5.865,3.114,7.185,-5.652,-5.865,-2.732,7.19,-6.183,41.056,41.056,5.865
0.1,-2.395,7.281,5.892,-5.865,3.066,7.137,-5.652,-5.865,-2.732,7.046,-6.04,41.056,41.056,0.0
0.105,-2.491,7.281,5.796,-5.865,3.066,7.137,-5.652,-5.865,-2.732,7.046,-6.04,41.056,41.056,5.865
0.11,-2.491,7.233,5.652,-5.865,3.114,7.089,-5.509,-5.865,-2.588,7.046,-6.04,41.056,41.056,5.865
0.115,-2.491,7.233,5.604,-5.865,3.209,7.137,-5.413,-5.865,-2.876,7.19,-5.896,46.921,41.056,5.865
0.12,-2.443,7.281,5.604,-5.865,3.114,7.185,-5.365,-5.865,-2.732,7.334,-6.04,46.921,41.056,5.865
0.125,-2.443,7.472,5.604,-5.865,3.066,7.233,-5.365,-5.865,-2.732,7.334,-6.04,46.921,41.056,5.865
0.13,-2.491,7.52,5.604,-5.865,3.066,7.377,-5.365,-5.865,-2.876,7.334,-5.896,46.921,41.056,5.865
0.135,-2.443,7.52,5.604,-5.865,3.066,7.377,-5.317,-5.865,-2.876,7.478,-5.896,41.056,41.056,5.865
0.14,-2.395,7.52,5.556,-5.865,3.018,7.377,-5.365,-5.865,-2.876,7.478,-5.896,41.056,41.056,5.865
0.145,-2.491,7.52,5.604,-5.865,3.018,7.377,-5.317,0.0,-2.732,7.478,-5.896,41.056,41.056,5.865
0.15,-2.395,7.52,5.509,-5.865,3.066,7.425,-5.317,0.0,-2.876,7.478,-5.752,41.056,41.056,5.865
0.155,-2.347,7.472,5.509,-5.865,3.018,7.425,-5.269,0.0,-2.876,7.334,-5.608,41.056,41.056,5.865
0.16,-2.347,7.377,5.461,-5.865,2.922,7.377,-5.221,0.0,-2.876,7.334,-5.608,35.191,41.056,5.865
0.165,-2.251,7.281,5.413,-0.0,2.922,7.281,-5.221,0.0,-2.876,7.478,-5.608,35.191,41.056,5.865
0.17,-2.251,7.281,5.365,-5.865,2.922,7.281,-5.125,0.0,-2.876,7.478,-5.608,35.191,41.056,5.865
0.17500000000000002,-2.299,7.425,5.317,-5.865,2.97,7.377,-5.125,0.0,-2.876,7.621,-5.608,35.191,35.191,5.865
0.18,-2.299,7.52,5.365,-5.865,2.922,7.472,-5.077,0.0,-2.876,7.621,-5.608,35.191,35.191,5.865
0.185,-2.299,7.52,5.365,-5.865,2.922,7.52,-5.077,0.0,-2.876,7.765,-5.608,29.326,35.191,5.865
0.19,-2.299,7.472,5.413,-5.865,2.874,7.52,-5.125,-5.865,-2.876,7.765,-5.608,29.326,35.191,5.865
0.195,-2.347,7.472,5.461,-5.865,2.874,7.472,-5.173,-5.865,-2.732,7.621,-5.464,29.326,35.191,5.865
0.2,-2.347,7.377,5.509,-5.865,2.97,7.472,-5.269,-5.865,-2.732,7.478,-5.464,29.326,35.191,5.865
0.20500000000000002,-2.395,7.233,5.604,-5.865,3.018,7.329,-5.317,-5.865,-2.732,7.478,-5.464,29.326,35.191,5.865
0.21,-2.395,7.089,5.652,-5.865,3.066,7.233,-5.365,-5.865,-2.588,7.334,-5.321,29.326,35.191,5.865
0.215,-2.491,6.993,5.796,-5.865,3.114,7.041,-5.461,-5.865,-2.588,7.334,-5.321,29.326,35.191,5.865
0.22,-2.539,6.993,5.892,-11.73,3.161,6.85,-5.556,-5.865,-2.732,7.478,-5.321,29.326,35.191,5.865
0.225,-2.539,6.946,6.083,-11.73,3.114,6.802,-5.7,-5.865,-2.588,7.478,-5.321,29.326,35.191,5.865
0.23,-2.635,6.946,6.323,-11.73,3.209,6.802,-5.892,-5.865,-2.732,7.478,-5.321,29.326,35.191,5.865
0.23500000000000001,-2.73,6.946,6.514,-17.595,3.353,6.898,-6.083,-11.73,-2.732,7.478,-5.464,29.326,29.326,5.865
0.24,-2.826,6.946,6.754,-17.595,3.497,6.898,-6.371,-11.73,-2.732,7.478,-5.464,29.326,29.326,5.865
0.245,-2.922,6.993,7.041,-17.595,3.688,6.946,-6.658,-11.73,-2.732,7.478,-5.464,29.326,29.326,5.865
0.25,-3.018,7.089,7.329,-23.46,3.784,6.946,-6.898,-17.595,-2.732,7.334,-5.608,29.326,29.326,5.865
0.255,-3.114,7.233,7.76,-23.46,3.784,6.946,-7.233,-17.595,-2.876,7.19,-5.608,29.326,29.326,11.73
0.26,-3.353,7.52,8.287,-23.46,3.832,7.041,-7.712,-23.46,-2.876,7.046,-5.752,29.326,29.326,11.73
0.265,-3.688,7.808,8.814,-29.326,4.119,7.233,-8.191,-23.46,-2.876,7.19,-5.896,29.326,29.326,11.73
0.27,-3.928,7.999,9.484,-29.326,4.598,7.472,-8.766,-29.326,-3.02,7.046,-6.04,29.326,29.326,11.73
0.275,-4.215,8.143,10.394,-29.326,4.838,7.712,-9.58,-29.326,-3.02,7.046,-6.183,29.326,29.326,11.73
0.28,-4.455,8.287,11.448,-29.326,5.173,7.856,-10.49,-29.326,-3.02,6.902,-6.471,29.326,29.326,17.595
0.28500000000000003,-4.79,8.335,12.646,-29.326,5.7,8.143,-11.64,-29.326,-3.02,6.902,-6.759,23.46,29.326,17.595
0.29,-5.03,8.335,13.939,-35.191,6.467,8.383,-12.933,-29.326,-3.02,6.902,-7.046,23.46,29.326,17.595
0.295,-5.365,8.143,15.328,-35.191,7.137,8.478,-14.322,-35.191,-3.307,7.046,-7.19,23.46,35.191,23.46
0.3,-5.652,7.951,16.573,-35.191,7.904,8.335,-15.711,-35.191,-3.451,7.334,-7.621,23.46,35.191,23.46
0.305,-5.94,7.712,17.531,-41.056,8.478,7.904,-16.957,-35.191,-3.739,7.621,-8.197,23.46,35.191,23.46
0.31,-5.94,7.281,18.106,-41.056,8.862,7.329,-17.915,-35.191,-4.026,8.053,-8.628,23.46,35.191,29.326
0.315,-5.892,7.233,18.106,-41.056,9.005,6.898,-18.394,-41.056,-4.17,8.197,-9.347,17.595,35.191,29.326
0.32,-5.317,7.137,17.579,-46.921,8.814,6.85,-18.202,-41.056,-4.602,8.484,-10.21,5.865,35.191,29.326
0.325,-4.742,7.137,16.813,-46.921,8.239,6.802,-17.675,-46.921,-4.745,8.484,-11.216,5.865,35.191,29.326
0.33,-4.024,7.377,15.759,-46.921,7.472,6.993,-16.909,-46.921,-4.745,8.34,-12.511,5.865,41.056,35.191
0.335,-3.161,7.425,14.226,-46.921,6.323,7.137,-15.711,-46.921,-4.745,8.053,-13.805,5.865,41.056,35.191
0.34,-2.682,7.712,12.454,-52.786,5.173,7.281,-14.131,-46.921,-4.602,7.909,-15.243,5.865,52.786,35.191
0.34500000000000003,-2.156,7.856,10.394,-52.786,4.407,7.664,-12.31,-46.921,-4.745,7.765,-16.537,5.865,64.516,41.056
0.35000000000000003,-1.198,7.999,8.383,-52.786,3.449,7.951,-10.251,-46.921,-4.745,7.765,-17.544,5.865,82.111,41.056
0.355,-0.287,8.095,6.323,-46.921,1.916,8.095,-8.191,-46.921,-4.602,7.478,-18.263,17.595,105.572,41.056
0.36,0.335,8.287,4.024,-46.921,0.623,8.191,-5.988,-46.921,-4.458,7.478,-18.406,5.865,129.032,46.921
0.365,1.054,8.478,1.581,-46.921,-0.479,8.43,-3.545,-46.921,-3.883,7.19,-17.831,5.865,152.493,46.921
0.37,1.724,8.622,-0.719,-46.921,-1.389,8.718,-1.054,-46.921,-3.451,7.19,-17.112,5.865,181.818,52.786
0.375,2.347,8.814,-2.874,-52.786,-2.299,9.149,1.245,-46.921,-2.876,7.478,-15.962,5.865,205.279,52.786
0.38,2.922,9.101,-4.886,-52.786,-3.018,9.532,3.401,-46.921,-2.301,7.478,-14.524,5.865,228.739,52.786
0.385,3.545,9.388,-6.85,-52.786,-3.736,9.867,5.461,-46.921,-2.013,7.765,-12.654,5.865,246.334,58.651
0.39,3.928,9.676,-8.814,-46.921,-4.455,10.107,7.472,-46.921,-1.869,7.765,-10.641,5.865,263.93,52.786
0.395,4.551,9.82,-10.73,-46.921,-5.125,10.299,9.436,-46.921,-1.294,7.909,-8.484,5.865,275.66,52.786
0.4,4.934,10.011,-12.55,-46.921,-5.796,10.394,11.4,-46.921,-0.719,8.197,-6.327,5.865,287.39,52.786
0.405,5.221,9.963,-14.226,-46.921,-6.419,10.394,13.268,-41.056,-0.431,8.34,-4.026,5.865,287.39,52.786
0.41000000000000003,5.461,9.915,-15.759,-41.056,-6.993,10.011,14.993,-41.056,0.0,8.34,-1.582,5.865,287.39,52.786
0.41500000000000004,5.509,9.82,-17.005,-35.191,-7.425,9.676,16.478,-35.191,0.575,8.484,0.863,17.595,281.525,52.786
0.42,5.509,9.772,-17.819,-35.191,-7.76,9.341,17.675,-35.191,1.15,8.484,3.02,23.46,269.795,52.786
0.425,5.317,9.867,-18.346,-29.326,-7.808,9.149,18.489,-29.326,1.726,8.628,5.033,29.326,263.93,52.786
0.43,5.03,10.107,-18.25,-23.46,-7.664,9.149,18.873,-23.46,2.301,9.059,7.046,35.191,252.199,52.786
0.435,4.742,10.155,-18.202,-11.73,-7.425,9.149,18.777,-17.595,2.588,9.347,8.916,46.921,234.604,52.786
0.44,4.694,10.346,-17.723,-0.0,-6.946,9.341,18.585,-5.865,3.02,9.635,10.929,52.786,222.874,52.786
0.445,4.407,9.963,-16.717,5.865,-6.706,9.532,17.915,0.0,3.307,9.922,12.798,58.651,205.279,46.921
0.45,4.072,9.724,-15.807,11.73,-6.419,9.149,16.861,5.865,3.307,10.066,14.524,64.516,187.683,46.921
0.455,4.072,9.388,-14.418,11.73,-5.988,8.814,15.807,11.73,3.307,10.354,16.106,70.381,164.223,41.056
0.46,3.353,9.197,-12.933,23.46,-5.509,8.766,14.274,17.595,3.307,10.497,17.4,70.381,140.762,41.056
0.465,3.161,9.101,-11.4,35.191,-4.886,8.718,12.837,23.46,3.164,10.641,18.406,64.516,117.302,35.191
0.47000000000000003,2.874,8.814,-8.957,41.056,-4.455,9.005,10.873,35.191,2.876,10.929,18.982,58.651,82.111,29.326
0.47500000000000003,2.156,8.239,-6.035,46.921,-3.736,8.766,8.191,41.056,2.588,11.216,18.982,52.786,52.786,23.46
0.48,1.389,7.76,-2.73,46.921,-2.73,8.43,5.077,46.921,2.013,11.504,18.982,41.056,17.595,17.595
0.485,0.479,7.568,1.006,46.921,-1.533,8.047,1.629,41.056,2.445,11.504,18.55,29.326,-17.595,5.865
0.49,-0.766,7.281,4.742,52.786,0.0,7.76,-2.203,46.921,2.013,11.073,17.687,5.865,-46.921,0.0
0.495,-1.964,6.467,8.67,52.786,1.581,6.993,-6.179,46.921,1.726,10.785,16.681,5.865,-76.246,-5.865
0.5,-3.497,6.131,12.741,41.056,3.736,6.371,-10.251,46.921,2.157,10.497,15.387,-5.865,-105.572,-11.73
0.505,-4.886,5.796,16.861,35.191,5.892,6.179,-14.274,35.191,1.726,10.066,13.805,-17.595,-129.032,-17.595
0.51,-6.323,5.796,20.453,29.326,8.095,6.323,-18.394,29.326,1.294,9.778,12.511,-23.46,-152.493,-35.191
0.515,-7.76,5.604,23.663,29.326,10.299,6.035,-21.795,29.326,1.438,9.203,10.21,-29.326,-175.953,-41.056
0.52,-9.005,5.317,24.333,23.46,12.215,6.035,-24.525,29.326,0.863,8.34,7.478,-29.326,-199.413,-46.921
0.525,-9.82,5.125,24.333,11.73,13.699,5.796,-24.669,17.595,0.431,7.765,4.17,-29.326,-211.144,-46.921
0.53,-10.251,4.886,24.333,5.865,14.657,5.604,-24.669,11.73,-0.144,7.478,0.431,-23.46,-228.739,-46.921
0.535,-10.586,4.838,24.333,-5.865,15.28,5.556,-24.669,0.0,-0.863,7.334,-3.307,-17.595,-240.469,-46.921
0.54,-10.49,5.077,24.333,-11.73,15.472,5.461,-24.669,-5.865,-1.869,6.471,-7.334,-17.595,-246.334,-52.786
0.545,-9.532,4.742,24.333,-29.326,14.37,4.982,-24.669,-17.595,-2.588,6.04,-11.648,-17.595,-246.334,-41.056
0.55,-9.053,4.407,24.333,-41.056,13.173,4.311,-24.669,-29.326,-3.451,5.464,-15.818,-11.73,-234.604,-35.191
0.555,-8.574,4.551,24.333,-46.921,12.406,3.88,-24.669,-41.056,-4.314,5.321,-19.844,-5.865,-222.874,-35.191
0.56,-7.137,4.598,23.327,-52.786,11.257,3.736,-24.669,-46.921,-5.464,5.033,-23.296,0.0,-199.413,-29.326
0.5650000000000001,-6.131,4.598,20.98,-58.651,9.149,2.539,-24.669,-46.921,-6.471,4.602,-26.315,5.865,-170.088,-23.46
0.5700000000000001,-6.179,6.658,18.489,-70.381,8.909,4.407,-20.789,-64.516,-7.19,4.314,-28.472,5.865,-129.032,-17.595
0.5750000000000001,-5.604,7.904,15.711,-46.921,8.766,6.035,-18.01,-58.651,-7.478,4.026,-30.054,23.46,-93.842,-5.865
0.58,-3.018,7.185,12.262,-29.326,6.467,6.371,-15.041,-35.191,-7.765,4.026,-30.773,29.326,-46.921,5.865
0.585,-0.431,5.413,7.856,-35.191,2.539,4.886,-11.161,-23.46,-8.053,4.458,-30.342,41.056,-5.865,11.73
0.59,0.575,5.269,5.892,-52.786,0.335,3.88,-6.993,-41.056,-7.621,4.602,-29.335,46.921,41.056,23.46
0.595,-0.814,6.946,3.066,-52.786,1.389,8.622,-5.556,-52.786,-7.19,4.458,-27.753,46.921,76.246,41.056
0.6,-0.287,8.43,-0.719,-35.191,2.108,9.197,-1.916,-41.056,-7.046,4.745,-26.172,46.921,111.437,46.921
0.605,2.347,8.718,-2.73,-41.056,0.0,8.957,1.341,-29.326,-6.759,5.321,-24.302,41.056,140.762,52.786
0.61,3.257,9.293,-5.269,-52.786,-3.114,9.532,3.257,-41.056,-5.177,4.602,-21.57,35.191,164.223,58.651
0.615,3.209,10.442,-8.718,-58.651,-4.167,10.059,6.371,-52.786,-4.889,7.334,-19.269,23.46,181.818,70.381
0.62,3.736,11.544,-11.64,-64.516,-4.407,10.969,9.915,-58.651,-5.177,9.059,-16.393,5.865,205.279,52.786
0.625,4.263,12.502,-13.843,-64.516,-5.125,12.454,12.502,-64.516,-3.883,8.484,-12.798,0.0,222.874,29.326
0.63,4.646,13.22,-15.568,-58.651,-5.892,13.125,14.657,-64.516,-2.157,7.478,-8.484,-17.595,228.739,35.191
0.635,4.886,13.747,-16.861,-46.921,-6.706,13.412,16.286,-58.651,1.438,4.314,-6.04,-35.191,228.739,52.786
0.64,4.934,13.747,-17.915,-41.056,-7.137,13.556,17.579,-46.921,-0.575,4.458,-3.595,-35.191,234.604,52.786
0.645,4.982,13.699,-18.346,-35.191,-7.185,13.364,18.537,-35.191,-1.15,7.334,0.431,-11.73,240.469,41.056
0.65,4.79,13.412,-18.681,-23.46,-6.706,13.173,18.921,-29.326,1.294,8.197,2.732,5.865,240.469,41.056
0.655,4.503,13.125,-18.968,-11.73,-6.562,13.316,19.16,-17.595,2.013,8.628,5.033,17.595,240.469,52.786
0.66,4.838,12.598,-18.729,-5.865,-6.754,12.789,19.495,-11.73,1.582,10.066,8.628,23.46,228.739,64.516
0.665,5.173,12.406,-18.058,-0.0,-7.233,12.167,18.873,0.0,1.869,11.216,11.792,29.326,211.144,70.381
0.67,4.551,12.215,-18.058,5.865,-7.568,11.975,18.537,5.865,2.301,12.223,14.092,35.191,193.548,70.381
0.675,4.455,12.023,-16.621,17.595,-6.419,12.215,18.106,11.73,2.301,13.373,15.962,41.056,175.953,64.516
0.68,4.263,11.736,-14.514,23.46,-5.748,12.215,16.19,17.595,2.301,14.38,17.4,41.056,146.628,52.786
0.685,3.688,11.352,-12.55,23.46,-5.7,12.215,14.322,17.595,2.301,14.668,18.406,41.056,117.302,46.921
0.6900000000000001,3.497,12.215,-11.352,35.191,-5.7,12.119,12.167,29.326,2.445,14.236,18.838,35.191,87.977,35.191
0.6950000000000001,2.97,11.592,-9.293,41.056,-4.167,11.257,11.161,35.191,2.445,13.949,19.269,29.326,58.651,29.326
0.7000000000000001,2.203,10.394,-5.892,41.056,-3.88,10.059,8.239,41.056,2.013,13.661,19.557,29.326,29.326,17.595
0.705,1.629,9.532,-2.587,46.921,-2.778,9.772,4.886,41.056,2.013,13.517,19.557,29.326,-5.865,5.865
0.71,0.24,8.718,1.485,46.921,-1.054,9.245,1.198,41.056,2.445,13.23,18.838,23.46,-35.191,0.0
0.715,-0.623,8.191,5.03,46.921,0.383,8.43,-2.73,46.921,1.869,12.942,18.838,17.595,-70.381,-5.865
0.72,-2.06,7.76,8.622,46.921,2.156,8.622,-6.467,41.056,2.445,12.223,17.687,5.865,-99.707,-11.73
0.725,-3.545,7.137,12.454,46.921,4.311,8.191,-10.059,41.056,2.157,11.935,15.53,5.865,-129.032,-17.595
0.73,-4.886,6.514,16.047,46.921,6.323,7.233,-13.891,46.921,2.301,11.935,13.805,5.865,-152.493,-23.46
0.735,-6.179,5.892,19.256,41.056,8.143,6.371,-17.436,41.056,1.869,12.079,12.223,5.865,-175.953,-35.191
0.74,-7.568,5.461,21.795,29.326,9.963,5.796,-20.501,35.191,1.438,13.373,10.785,5.865,-193.548,-41.056
0.745,-8.478,5.556,23.711,23.46,11.592,5.461,-22.944,29.326,0.575,11.648,7.478,5.865,-217.009,-41.056
0.75,-9.436,4.742,24.333,17.595,12.885,5.556,-24.669,23.46,0.863,10.066,4.17,-5.865,-234.604,-41.056
0.755,-9.388,3.832,24.333,5.865,13.46,4.646,-24.669,17.595,0.0,9.059,-0.0,-5.865,-246.334,-46.921
0.76,-9.436,3.449,24.333,-0.0,13.22,3.88,-24.669,5.865,-0.719,8.34,-3.739,-11.73,-252.199,-46.921
0.765,-9.053,3.449,24.19,-0.0,12.789,3.401,-24.669,0.0,-1.294,7.334,-7.478,-5.865,-258.064,-46.921
0.77,-8.43,3.545,23.184,-0.0,11.879,3.066,-24.669,5.865,-2.445,6.902,-11.36,0.0,-246.334,-46.921
0.775,-8.718,3.832,22.848,-11.73,11.736,2.778,-24.669,0.0,-3.451,6.327,-15.243,5.865,-234.604,-46.921
0.78,-8.335,4.455,22.226,-17.595,11.736,3.066,-24.669,-11.73,-4.314,5.752,-18.694,5.865,-217.009,-41.056
0.785,-7.377,4.598,20.597,-17.595,11.113,3.688,-24.669,-17.595,-5.608,5.177,-21.57,5.865,-193.548,-35.191
0.79,-7.041,5.03,18.921,-17.595,9.963,3.88,-20.214,-17.595,-6.04,5.464,-23.727,5.865,-164.223,-23.46
0.795,-5.988,5.269,16.909,-17.595,9.388,4.072,-18.394,-11.73,-7.19,4.314,-25.309,17.595,-134.897,-17.595
0.8,-4.886,5.03,14.657,-29.326,7.999,4.455,-16.43,-23.46,-7.478,3.451,-25.884,23.46,-99.707,-11.73
0.805,-3.784,5.03,11.544,-29.326,6.419,4.934,-13.891,-29.326,-7.478,3.164,-26.028,23.46,-64.516,0.0
0.81,-2.874,5.94,8.526,-29.326,4.838,5.604,-10.634,-29.326,-7.765,3.164,-25.165,29.326,-29.326,0.0
0.8150000000000001,-1.916,7.233,5.988,-35.191,3.353,6.658,-7.808,-29.326,-6.902,3.739,-23.871,29.326,0.0,0.0
0.8200000000000001,-0.623,7.76,3.066,-52.786,1.916,7.472,-5.125,-41.056,-7.046,4.026,-23.439,23.46,29.326,11.73
0.8250000000000001,-0.144,8.478,0.287,-64.516,0.719,8.383,-2.108,-58.651,-7.19,4.745,-22.864,17.595,58.651,17.595
0.8300000000000001,-0.048,9.293,-1.964,-58.651,0.144,9.005,0.575,-58.651,-5.752,5.033,-21.426,5.865,87.977,23.46
0.835,1.245,10.155,-3.449,-58.651,-0.479,9.197,2.922,-58.651,-6.471,5.608,-19.557,0.0,111.437,17.595
0.84,0.862,11.304,-4.598,-52.786,-1.15,10.873,3.545,-58.651,-5.033,5.896,-17.544,-5.865,134.897,23.46
0.845,0.814,12.454,-6.371,-41.056,-1.341,11.352,5.461,-46.921,-4.314,5.321,-15.243,-17.595,152.493,29.326
0.85,1.389,12.981,-7.712,-29.326,-1.677,11.975,7.041,-35.191,-3.451,4.889,-12.223,-23.46,170.088,35.191
0.855,2.06,13.125,-8.718,-17.595,-2.682,12.262,8.383,-23.46,-2.876,5.033,-9.059,-23.46,181.818,29.326
0.86,1.964,13.173,-9.82,-11.73,-3.209,12.981,9.388,-17.595,-2.732,6.471,-6.327,-17.595,193.548,35.191
0.865,1.82,12.694,-10.251,-5.865,-3.066,12.981,10.394,-5.865,-1.294,7.478,-3.595,-11.73,193.548,52.786
0.87,1.868,12.215,-10.011,-5.865,-3.257,12.454,10.586,-5.865,-1.007,8.053,-0.575,-5.865,193.548,64.516
0.875,1.198,12.119,-9.676,-5.865,-2.73,12.55,10.251,-5.865,-1.007,8.916,1.726,0.0,187.683,64.516
0.88,1.054,12.119,-9.053,-0.0,-1.964,12.406,9.963,0.0,-0.575,10.066,4.026,0.0,181.818,64.516
0.885,0.958,11.975,-8.287,5.865,-1.772,12.406,9.197,5.865,0.0,11.504,4.458,0.0,170.088,58.651
0.89,0.575,11.736,-7.425,11.73,-1.485,12.119,8.383,11.73,-0.863,13.086,6.471,0.0,164.223,46.921
0.895,0.192,11.448,-6.658,11.73,-0.958,11.879,7.52,11.73,-0.431,13.805,7.909,-5.865,146.628,35.191
0.9,0.0,11.065,-5.748,17.595,-0.527,11.496,6.754,17.595,0.0,13.949,9.059,-11.73,129.032,23.46
0.905,-0.24,10.634,-4.694,23.46,-0.192,11.257,5.748,17.595,0.0,13.661,10.066,-23.46,111.437,17.595
0.91,-0.575,10.203,-3.545,23.46,0.287,10.969,4.646,23.46,-0.288,13.23,10.641,-23.46,87.977,5.865
0.915,-0.958,9.915,-2.395,29.326,0.766,10.586,3.449,23.46,-0.144,12.511,10.497,-29.326,70.381,11.73
0.92,-1.15,9.484,-1.15,23.46,1.293,10.155,2.299,29.326,-0.431,12.223,10.21,-29.326,46.921,11.73
0.925,-1.485,9.197,0.144,23.46,1.724,9.82,1.006,23.46,-0.575,12.079,9.635,-29.326,23.46,0.0
0.93,-2.299,9.293,1.15,23.46,2.491,9.82,-0.192,23.46,-0.575,12.079,8.772,-23.46,5.865,0.0
0.935,-2.539,9.101,2.347,23.46,3.401,9.724,-1.293,23.46,-0.863,11.935,7.909,-23.46,-11.73,-5.865
0.9400000000000001,-2.73,8.862,3.401,23.46,3.593,9.293,-2.491,23.46,-1.15,11.648,7.19,-23.46,-23.46,-11.73
0.9450000000000001,-3.018,8.718,4.072,23.46,3.88,8.909,-3.449,23.46,-1.294,11.216,6.327,-23.46,-41.056,-11.73
0.9500000000000001,-3.305,8.718,4.646,17.595,4.407,8.862,-4.072,17.595,-1.294,10.641,5.321,-23.46,-52.786,-17.595
0.9550000000000001,-3.257,8.766,5.077,11.73,4.646,8.957,-4.598,17.595,-1.438,10.21,4.026,-17.595,-64.516,-17.595
0.96,-3.449,8.957,5.413,11.73,4.598,9.053,-5.03,11.73,-1.726,9.778,2.876,-17.595,-70.381,-23.46
0.965,-3.593,9.293,5.748,11.73,4.694,9.293,-5.365,11.73,-1.869,9.347,1.582,-11.73,-76.246,-23.46
0.97,-3.688,9.58,5.892,11.73,4.838,9.532,-5.604,11.73,-1.869,8.916,0.288,-5.865,-82.111,-17.595
0.975,-3.784,9.724,5.988,17.595,4.934,9.628,-5.7,17.595,-2.588,9.059,-0.863,0.0,-87.977,-17.595
0.98,-3.88,9.772,6.035,23.46,4.934,9.724,-5.796,17.595,-2.588,8.772,-2.013,5.865,-87.977,-23.46
0.985,-3.832,9.628,5.94,29.326,4.934,9.676,-5.796,23.46,-2.876,8.772,-3.164,5.865,-82.111,-23.46
0.99,-3.736,9.436,5.988,35.191,4.742,9.388,-5.748,29.326,-3.02,8.628,-3.883,5.865,-82.111,-17.595
0.995,-3.784,9.436,6.179,35.191,4.551,9.149,-5.844,35.191,-3.307,8.484,-4.458,5.865,-76.246,-17.595
1.0,-3.928,9.532,6.179,35.191,4.79,9.101,-5.94,35.191,-3.307,8.628,-5.033,17.595,-70.381,-11.73
1.0050000000000001,-4.167,9.341,6.083,29.326,5.077,9.245,-5.94,29.326,-3.451,8.772,-5.321,17.595,-64.516,-11.73
1.01,-4.119,9.245,6.083,29.326,5.317,9.197,-5.844,29.326,-3.595,9.059,-5.608,23.46,-58.651,-11.73
1.0150000000000001,-4.024,9.149,6.035,23.46,5.269,9.149,-5.844,23.46,-3.883,9.635,-5.896,23.46,-52.786,-11.73
1.02,-4.167,9.149,5.748,29.326,5.269,9.197,-5.748,29.326,-4.026,9.922,-5.896,23.46,-46.921,-11.73
1.025,-4.072,9.101,5.413,29.326,5.365,9.245,-5.461,29.326,-4.17,10.066,-6.04,23.46,-41.056,-17.595
1.03,-3.928,9.149,5.077,29.326,5.269,9.388,-5.077,29.326,-4.17,9.922,-5.896,23.46,-41.056,-23.46
1.035,-3.976,9.341,4.646,29.326,5.125,9.628,-4.742,29.326,-4.17,9.635,-5.896,17.595,-35.191,-29.326
1.04,-3.88,9.58,4.311,29.326,5.125,9.772,-4.311,29.326,-4.17,9.778,-6.183,17.595,-35.191,-35.191
1.045,-3.832,9.676,4.024,29.326,4.934,9.915,-3.976,29.326,-4.17,9.778,-6.183,5.865,-35.191,-29.326
1.05,-3.832,9.724,3.736,29.326,4.838,9.963,-3.688,29.326,-4.314,9.491,-6.04,5.865,-35.191,-23.46
1.055,-3.832,9.724,3.353,29.326,4.886,9.963,-3.401,29.326,-4.314,9.347,-6.04,5.865,-29.326,-23.46
1.06,-3.64,9.82,3.114,23.46,4.79,10.107,-3.018,29.326,-4.17,9.203,-6.04,5.865,-29.326,-23.46
1.065,-3.736,9.915,2.922,23.46,4.503,10.155,-2.826,23.46,-4.314,9.059,-5.896,5.865,-23.46,-23.46
1.07,-3.88,9.963,2.778,29.326,4.646,10.155,-2.587,29.326,-4.314,9.059,-5.464,5.865,-17.595,-23.46
1.075,-3.832,10.011,2.97,29.326,4.694,10.011,-2.587,29.326,-4.026,8.916,-5.177,5.865,-11.73,-23.46
1.08,-3.928,10.155,3.161,29.326,4.598,9.82,-2.778,29.326,-4.17,9.059,-4.745,5.865,-5.865,-23.46
1.085,-4.024,10.442,3.114,29.326,4.79,9.915,-2.874,29.326,-4.17,9.203,-4.458,5.865,-5.865,-23.46
1.09,-4.311,10.825,3.018,35.191,4.934,10.251,-2.826,29.326,-4.17,9.491,-4.17,17.595,0.0,-23.46
1.095,-4.167,10.825,3.066,35.191,5.125,10.682,-2.778,35.191,-4.17,9.635,-3.739,17.595,5.865,-23.46
1.1,-4.119,10.73,3.018,35.191,4.982,10.825,-2.778,35.191,-4.17,9.491,-3.451,23.46,5.865,-23.46
1.105,-4.215,10.73,2.922,41.056,4.982,10.921,-2.73,41.056,-4.17,9.491,-3.164,23.46,5.865,-23.46
1.11,-4.167,10.586,2.874,41.056,5.077,10.969,-2.635,41.056,-4.17,9.778,-2.876,29.326,11.73,-23.46
1.115,-4.119,10.538,2.97,41.056,4.982,10.873,-2.635,41.056,-4.314,9.922,-2.732,29.326,11.73,-23.46
1.12,-4.263,10.538,2.922,41.056,5.077,10.778,-2.682,41.056,-4.314,10.21,-2.876,29.326,11.73,-23.46
1.125,-4.215,10.586,3.018,41.056,5.269,10.73,-2.73,46.921,-4.602,10.354,-3.02,29.326,11.73,-23.46
1.1300000000000001,-4.119,10.394,2.97,41.056,5.221,10.73,-2.778,46.921,-4.458,10.785,-3.02,29.326,11.73,-23.46
1.135,-4.215,10.346,2.874,46.921,5.03,10.586,-2.682,46.921,-4.889,11.073,-3.02,23.46,11.73,-29.326
1.1400000000000001,-4.072,10.107,2.778,46.921,5.077,10.442,-2.587,46.921,-4.745,11.073,-3.02,17.595,11.73,-35.191
1.145,-4.119,9.82,2.778,46.921,4.982,10.346,-2.539,46.921,-4.602,10.785,-3.02,17.595,11.73,-35.191
1.1500000000000001,-4.215,9.676,2.73,46.921,5.077,10.107,-2.491,46.921,-4.745,10.641,-2.876,5.865,11.73,-35.191
1.155,-4.263,9.676,2.635,46.921,5.221,10.059,-2.443,46.921,-4.745,10.497,-2.876,17.595,11.73,-41.056
1.16,-4.167,9.532,2.682,46.921,5.077,9.867,-2.395,52.786,-4.602,10.354,-2.876,17.595,11.73,-41.056
1.165,-4.119,9.484,2.635,46.921,4.886,9.628,-2.395,52.786,-4.602,10.354,-2.876,23.46,11.73,-41.056
1.17,-4.119,9.484,2.587,46.921,4.886,9.58,-2.347,52.786,-4.745,10.641,-3.02,23.46,11.73,-41.056
1.175,-4.072,9.388,2.539,52.786,4.838,9.58,-2.299,52.786,-4.458,10.497,-3.02,23.46,11.73,-41.056
1.18,-4.167,9.532,2.587,52.786,4.79,9.628,-2.299,52.786,-4.745,10.354,-2.876,23.46,17.595,-46.921
1.185,-4.311,9.293,2.203,58.651,5.03,9.676,-2.203,52.786,-4.602,10.066,-2.732,23.46,17.595,-46.921
1.19,-3.545,8.909,2.443,58.651,4.646,8.814,-1.964,64.516,-4.602,9.778,-2.732,29.326,17.595,-46.921
1.195,-3.976,8.335,2.203,58.651,4.311,8.718,-2.156,58.651,-4.602,9.491,-2.732,29.326,17.595,-46.921
1.2,-3.832,7.999,1.868,58.651,4.646,8.143,-1.724,58.651,-4.602,9.491,-2.588,35.191,17.595,-46.921
1.205,-3.688,7.808,2.108,52.786,4.551,8.143,-1.677,58.651,-4.602,9.491,-2.588,35.191,23.46,-46.921
1.21,-3.832,7.999,1.916,58.651,4.455,8.191,-1.772,58.651,-4.602,9.491,-2.588,35.191,23.46,-46.921
1.215,-3.688,8.383,1.82,52.786,4.503,8.287,-1.533,58.651,-4.602,9.491,-2.588,35.191,23.46,-46.921
1.22,-3.497,8.43,1.724,52.786,4.215,8.478,-1.485,52.786,-4.602,9.491,-2.445,41.056,23.46,-46.921
1.225,-3.497,8.287,1.581,52.786,4.024,8.478,-1.389,58.651,-4.602,9.491,-2.588,35.191,23.46,-52.786
1.23,-3.449,8.095,1.533,52.786,3.976,8.383,-1.245,52.786,-5.033,9.635,-2.157,41.056,23.46,-58.651
1.235,-3.449,7.951,1.485,52.786,3.976,8.287,-1.198,52.786,-4.17,9.203,-2.301,35.191,23.46,-58.651
1.24,-3.545,7.856,1.485,52.786,4.024,8.143,-1.198,52.786,-4.458,8.484,-2.301,35.191,17.595,-58.651
1.245,-3.545,7.904,1.581,52.786,4.119,8.047,-1.198,52.786,-4.458,8.053,-1.726,29.326,17.595,-58.651
1.25,-3.545,7.856,1.629,52.786,4.119,7.951,-1.293,52.786,-4.026,7.621,-2.013,29.326,17.595,-52.786
1.2550000000000001,-3.593,7.76,1.629,52.786,4.119,7.856,-1.341,52.786,-4.314,7.765,-1.869,35.191,17.595,-52.786
1.26,-3.593,7.616,1.629,46.921,4.167,7.76,-1.341,52.786,-4.314,8.34,-1.726,35.191,17.595,-52.786
1.2650000000000001,-3.545,7.472,1.724,46.921,4.167,7.568,-1.341,46.921,-4.17,8.484,-1.726,41.056,17.595,-52.786
1.27,-3.545,7.425,1.772,46.921,4.119,7.377,-1.437,52.786,-4.17,8.34,-1.582,35.191,17.595,-52.786
1.2750000000000001,-3.593,7.425,1.772,46.921,4.119,7.329,-1.437,46.921,-4.026,8.053,-1.438,35.191,17.595,-52.786
1.28,-3.545,7.281,1.724,46.921,4.167,7.233,-1.389,52.786,-4.026,7.909,-1.438,41.056,11.73,-52.786
1.285,-3.449,7.041,1.581,46.921,3.928,7.041,-1.341,46.921,-4.026,7.765,-1.438,41.056,11.73,-46.921
1.29,-3.545,6.946,1.581,46.921,3.928,6.898,-1.245,46.921,-4.026,7.765,-1.438,41.056,11.73,-46.921
1.295,-3.64,7.137,1.629,46.921,4.024,6.898,-1.293,46.921,-4.026,7.909,-1.582,41.056,11.73,-52.786
1.3,-3.593,7.233,1.629,46.921,4.119,6.993,-1.293,46.921,-4.026,7.909,-1.582,41.056,5.865,-46.921
1.305,-3.545,7.233,1.629,46.921,4.024,7.089,-1.293,46.921,-4.026,7.621,-1.582,41.056,5.865,-46.921
1.31,-3.64,7.137,1.533,46.921,4.024,7.089,-1.245,46.921,-4.026,7.478,-1.582,41.056,5.865,-46.921
1.315,-3.593,6.946,1.485,46.921,4.119,6.993,-1.198,46.921,-4.026,7.478,-1.726,41.056,5.865,-46.921
1.32,-3.497,6.85,1.629,46.921,3.784,6.802,-1.245,46.921,-4.17,7.478,-1.582,41.056,5.865,-46.921
1.325,-4.024,6.658,1.868,46.921,4.455,6.898,-1.389,46.921,-4.026,7.478,-1.582,41.056,0.0,-46.921
1.33,-3.784,6.419,1.916,46.921,4.551,6.562,-1.629,46.921,-4.026,7.19,-1.582,41.056,0.0,-46.921
1.335,-3.497,6.227,1.868,46.921,4.167,6.035,-1.581,46.921,-4.026,7.046,-1.438,35.191,0.0,-46.921
1.34,-3.736,6.131,1.724,41.056,4.024,6.131,-1.485,46.921,-4.17,7.19,-1.438,35.191,0.0,-46.921
1.345,-3.88,6.179,1.868,41.056,4.551,6.275,-1.389,41.056,-4.17,7.478,-1.582,29.326,-5.865,-46.921
1.35,-3.832,6.227,2.156,35.191,4.598,6.227,-1.677,41.056,-4.026,7.478,-1.582,29.326,-5.865,-46.921
1.355,-3.832,6.323,2.156,35.191,4.407,6.083,-1.868,35.191,-4.17,7.334,-1.438,29.326,-5.865,-46.921
1.36,-3.88,6.227,2.06,35.191,4.455,6.131,-1.82,35.191,-4.17,7.19,-1.438,23.46,-11.73,-46.921
1.365,-3.784,6.035,1.964,35.191,4.407,6.083,-1.724,35.191,-4.026,6.902,-1.582,23.46,-11.73,-46.921
1.37,-3.64,5.7,1.868,35.191,4.215,5.844,-1.581,35.191,-4.314,6.615,-1.869,23.46,-17.595,-46.921
1.375,-3.545,5.365,1.868,35.191,4.024,5.556,-1.533,35.191,-4.458,6.615,-1.869,23.46,-17.595,-46.921
1.3800000000000001,-3.545,4.934,1.82,35.191,3.976,5.365,-1.485,35.191,-4.026,6.327,-1.869,23.46,-17.595,-41.056
1.385,-3.545,4.455,1.868,29.326,4.024,4.982,-1.533,35.191,-4.026,6.183,-1.726,17.595,-17.595,-41.056
1.3900000000000001,-3.545,3.928,1.868,29.326,4.072,4.551,-1.533,29.326,-4.17,6.04,-1.726,17.595,-17.595,-35.191
1.395,-3.545,3.497,1.964,23.46,4.072,3.976,-1.533,29.326,-4.314,6.327,-2.013,17.595,-17.595,-35.191
1.4000000000000001,-3.545,3.161,1.964,23.46,4.024,3.449,-1.581,23.46,-4.314,6.471,-2.157,17.595,-17.595,-35.191
1.405,-3.593,2.826,1.916,17.595,4.072,3.066,-1.581,17.595,-4.314,6.327,-2.013,17.595,-17.595,-35.191
1.41,-3.545,2.491,1.868,11.73,4.119,2.73,-1.533,17.595,-4.314,6.183,-1.869,5.865,-17.595,-35.191
1.415,-3.401,2.156,1.868,5.865,3.976,2.347,-1.533,11.73,-4.17,5.896,-1.869,5.865,-17.595,-35.191
1.42,-3.305,1.868,1.82,-0.0,3.784,1.916,-1.533,5.865,-4.026,5.464,-1.726,5.865,-17.595,-35.191
1.425,-3.257,1.724,1.724,-5.865,3.688,1.677,-1.437,0.0,-4.026,4.889,-1.726,5.865,-17.595,-29.326
1.43,-3.114,1.485,1.581,-5.865,3.64,1.533,-1.293,0.0,-3.883,4.314,-1.869,5.865,-23.46,-29.326
1.435,-2.826,1.198,1.629,-11.73,3.401,1.341,-1.198,-5.865,-3.739,3.883,-1.869,5.865,-23.46,-29.326
1.44,-2.73,0.91,1.82,-23.46,3.114,1.054,-1.293,-17.595,-3.883,3.451,-1.869,17.595,-23.46,-23.46
1.445,-2.635,0.719,1.916,-29.326,3.066,0.814,-1.437,-23.46,-3.739,3.164,-1.869,17.595,-23.46,-17.595
1.45,-2.443,0.383,2.06,-35.191,2.97,0.479,-1.581,-29.326,-3.739,2.876,-1.869,17.595,-17.595,-17.595
1.455,-2.156,-0.144,2.156,-41.056,2.73,-0.048,-1.677,-41.056,-3.739,2.588,-1.869,17.595,-17.595,-11.73
1.46,-1.916,-0.719,2.156,-46.921,2.443,-0.527,-1.82,-46.921,-3.739,2.301,-1.869,17.595,-17.595,-5.865
1.465,-1.533,-1.581,2.108,-58.651,2.156,-1.102,-1.772,-52.786,-3.595,2.013,-1.726,17.595,-17.595,0.0
1.47,-1.102,-2.682,2.06,-64.516,1.724,-1.82,-1.677,-58.651,-3.451,1.726,-1.726,17.595,-17.595,5.865
1.475,-0.671,-3.784,2.108,-76.246,1.245,-2.778,-1.677,-70.381,-3.451,1.582,-1.582,5.865,-17.595,5.865
1.48,-0.479,-4.934,2.108,-87.977,0.862,-4.024,-1.724,-82.111,-3.164,1.15,-1.582,5.865,-17.595,11.73
1.485,-0.144,-6.035,2.347,-105.572,0.671,-5.413,-1.724,-93.842,-3.02,0.863,-1.726,5.865,-17.595,23.46
1.49,0.287,-7.185,2.826,-123.167,0.335,-6.802,-2.06,-111.437,-2.876,0.719,-1.726,5.865,-17.595,29.326
1.495,0.719,-7.951,3.161,-146.628,-0.144,-8.287,-2.491,-129.032,-2.732,0.431,-2.013,5.865,-17.595,35.191
1.5,1.198,-8.143,3.497,-170.088,-0.575,-9.005,-2.826,-152.493,-2.301,0.144,-2.013,5.865,-17.595,41.056
1.5050000000000001,1.629,-7.712,3.928,-193.548,-1.006,-9.005,-3.257,-175.953,-2.013,-0.575,-2.157,5.865,-11.73,46.921
1.51,2.012,-6.706,4.407,-217.009,-1.485,-8.383,-3.688,-199.413,-1.726,-1.438,-2.013,5.865,-11.73,58.651
1.5150000000000001,2.347,-5.796,4.934,-234.604,-1.868,-7.472,-4.215,-228.739,-1.15,-2.732,-2.013,5.865,-11.73,70.381
1.52,2.587,-4.694,5.509,-258.064,-2.108,-6.898,-4.742,-246.334,-0.575,-3.883,-2.013,5.865,-11.73,76.246
1.5250000000000001,2.97,-2.06,6.035,-269.795,-2.203,-4.982,-5.413,-263.93,-0.288,-4.889,-2.013,5.865,-11.73,87.977
1.53,3.305,1.15,6.131,-281.525,-2.491,-1.724,-5.796,-281.525,0.0,-5.896,-2.157,5.865,-5.865,105.572
1.5350000000000001,3.401,4.646,6.275,-287.39,-2.587,1.437,-5.94,-287.39,0.575,-6.902,-2.732,17.595,0.0,123.167
1.54,-0.575,13.987,7.281,-287.39,-3.114,5.365,-6.275,-287.39,1.15,-7.621,-3.02,5.865,0.0,140.762
1.545,-0.766,24.142,-2.682,-252.199,18.825,22.8,-3.593,-287.39,1.726,-7.909,-3.307,5.865,5.865,164.223
1.55,-1.341,24.19,-13.891,-187.683,-12.598,24.429,4.119,-228.739,2.157,-7.621,-3.883,0.0,11.73,187.683
1.555,-5.413,15.184,-14.705,5.865,-17.388,24.429,15.568,-152.493,2.445,-6.615,-4.314,-5.865,17.595,211.144
1.56,-5.748,9.197,-12.837,228.739,8.047,24.429,15.376,87.977,2.876,-5.321,-4.889,-17.595,23.46,234.604
1.565,-12.933,14.322,4.119,263.93,10.107,18.968,8.574,263.93,3.164,-4.314,-5.321,-23.46,29.326,252.199
1.57,-20.166,10.634,18.298,175.953,20.214,9.532,-9.82,246.334,3.595,-2.445,-6.04,-35.191,35.191,269.795
1.575,-19.831,6.562,14.993,70.381,24.573,4.503,-19.304,140.762,3.739,0.863,-6.183,-41.056,41.056,281.525
1.58,-13.125,9.388,8.622,-23.46,24.573,7.185,-12.694,41.056,3.595,4.17,-6.327,-41.056,46.921,287.39
1.585,-5.221,18.202,7.185,-99.707,16.142,14.849,-8.143,-52.786,3.883,8.197,-6.615,-46.921,52.786,287.39
1.59,-5.413,24.094,5.077,-152.493,7.999,23.04,-6.898,-117.302,-4.314,72.044,-0.431,-17.595,58.651,269.795
1.595,-4.742,24.19,2.826,-170.088,5.94,24.429,-4.263,-164.223,-18.119,74.201,15.387,164.223,146.628,205.279
1.6,-3.018,23.423,2.06,-152.493,4.119,24.429,-2.347,-164.223,-13.949,22.864,15.674,-99.707,35.191,58.651
1.605,-2.108,17.388,2.347,-105.572,2.06,22.561,-1.772,-140.762,-2.445,-5.752,14.38,-181.818,-129.032,-193.548
1.61,-2.06,11.879,3.593,-64.516,1.198,15.089,-2.299,-93.842,-10.641,11.36,0.575,-58.651,-140.762,-275.66
1.615,-1.293,8.143,4.742,-46.921,1.198,8.766,-3.736,-58.651,-15.962,15.099,-16.825,5.865,-123.167,-199.413
1.62,-1.533,7.472,4.119,-41.056,1.293,6.419,-4.359,-41.056,-16.106,7.478,-17.687,-17.595,-82.111,-93.842
1.625,-1.341,9.676,2.97,-46.921,2.108,8.43,-3.545,-41.056,-11.648,4.745,-10.21,-46.921,-5.865,5.865
1.6300000000000001,-1.293,12.837,2.108,-41.056,2.347,12.071,-2.491,-46.921,-4.602,12.511,-7.909,-41.056,58.651,87.977
1.635,-1.054,14.226,1.102,-41.056,1.964,14.322,-1.629,-41.056,-6.327,23.583,-5.608,-5.865,105.572,146.628
1.6400000000000001,-1.245,13.556,-0.431,-35.191,1.389,14.657,-0.383,-41.056,-7.334,27.753,-3.02,17.595,123.167,170.088
1.645,-1.82,11.448,-1.245,-29.326,1.677,13.652,1.054,-35.191,-5.752,25.021,-1.869,29.326,111.437,158.358
1.6500000000000001,-2.395,9.149,-1.198,-11.73,2.539,11.496,1.581,-23.46,-4.458,19.701,-1.869,35.191,93.842,123.167
1.655,-2.97,7.425,-0.91,-0.0,3.401,8.957,1.341,-5.865,-4.17,14.524,-2.876,41.056,70.381,76.246
1.6600000000000001,-2.874,6.514,-0.91,5.865,3.976,7.089,1.15,5.865,-2.445,10.354,-4.458,29.326,52.786,46.921
1.665,-2.778,6.658,-1.245,11.73,4.072,6.514,1.293,11.73,-2.157,7.621,-4.314,5.865,35.191,41.056
1.67,-2.156,7.185,-1.772,11.73,3.449,6.658,1.724,11.73,-1.582,8.197,-3.307,5.865,29.326,46.921
1.675,-1.868,7.568,-2.251,5.865,2.395,6.85,2.299,11.73,-1.869,11.36,-2.301,5.865,29.326,46.921
1.68,-1.677,7.856,-2.443,-0.0,1.916,7.185,2.682,5.865,-1.869,13.805,-1.294,23.46,29.326,41.056
1.685,-1.724,7.664,-2.06,-0.0,1.677,6.993,2.73,0.0,-2.301,13.805,0.288,29.326,23.46,35.191
1.69,-1.581,7.52,-1.389,-5.865,1.724,6.658,2.251,0.0,-2.445,11.792,1.294,35.191,17.595,29.326
1.695,-1.629,7.999,-0.91,-5.865,1.677,6.706,1.629,-5.865,-2.876,9.635,1.438,41.056,11.73,17.595
1.7,-1.82,8.287,-0.623,-11.73,1.724,7.664,1.102,-5.865,-3.02,7.765,1.007,46.921,5.865,5.865
1.705,-2.156,8.766,-0.144,-11.73,2.251,8.383,0.814,-11.73,-2.876,6.759,1.007,46.921,5.865,-5.865
1.71,-1.677,7.856,0.814,-11.73,2.778,8.478,0.048,-11.73,-2.732,6.615,1.294,46.921,17.595,-5.865
1.715,-1.772,7.137,1.054,-11.73,2.156,6.802,-0.575,-11.73,-2.732,7.478,1.726,46.921,17.595,-11.73
1.72,-7.425,5.077,2.347,-5.865,2.539,7.52,-0.766,-11.73,-2.732,7.909,2.445,46.921,23.46,-5.865
1.725,-2.012,7.856,3.784,29.326,6.179,4.646,-2.826,0.0,-2.588,8.484,2.588,41.056,17.595,0.0
1.73,1.006,9.245,1.245,46.921,1.15,7.951,-2.73,41.056,-2.588,8.628,2.445,29.326,11.73,5.865
1.735,-0.719,8.047,0.096,29.326,-0.623,9.628,-0.383,46.921,-2.445,8.34,1.726,23.46,5.865,5.865
1.74,-1.198,8.047,0.719,11.73,1.006,8.526,0.192,23.46,-2.588,8.34,1.294,5.865,0.0,5.865
1.745,-2.012,8.43,1.341,11.73,2.587,8.957,-0.671,17.595,-2.588,8.772,0.863,0.0,-5.865,11.73
1.75,-1.629,8.718,0.575,5.865,2.778,9.149,-0.958,17.595,-2.301,8.628,0.431,-5.865,-11.73,11.73
1.7550000000000001,-1.102,9.341,-0.144,5.865,2.108,8.862,0.0,11.73,-2.876,8.34,-0.431,-5.865,-17.595,11.73
1.76,-1.581,9.628,0.192,5.865,1.868,9.341,0.527,5.865,-2.157,7.621,-0.863,-5.865,-17.595,11.73
1.7650000000000001,-2.539,9.101,2.156,5.865,2.97,9.149,-0.431,5.865,-2.301,8.053,-1.294,-11.73,-23.46,11.73
1.77,-3.114,8.287,4.024,-0.0,4.263,8.383,-2.635,5.865,-7.046,7.334,-4.026,-23.46,-11.73,-11.73
1.7750000000000001,-2.251,8.191,3.353,5.865,3.88,7.904,-3.832,5.865,0.863,9.059,-1.726,-29.326,-17.595,-46.921
1.78,-2.012,8.766,2.299,11.73,2.587,8.239,-2.587,11.73,-1.294,7.909,-0.144,-35.191,-17.595,-35.191
1.7850000000000001,-1.868,9.676,2.347,5.865,2.395,9.101,-2.012,11.73,-1.582,7.621,-0.288,-29.326,-23.46,-11.73
1.79,-2.587,10.011,2.73,5.865,2.922,10.49,-2.156,5.865,-2.157,7.909,-1.294,-23.46,-29.326,-11.73
1.795,-3.018,9.82,3.305,5.865,4.167,10.49,-2.73,5.865,-2.013,8.628,-0.863,-17.595,-23.46,-11.73
1.8,-2.443,9.484,3.257,5.865,4.119,9.772,-3.161,5.865,-1.726,9.347,0.144,-11.73,-23.46,0.0
1.805,-2.347,9.484,3.018,5.865,3.449,9.867,-2.97,11.73,-1.582,10.066,0.144,-11.73,-23.46,-5.865
1.81,-2.539,9.484,2.97,11.73,3.449,9.915,-2.73,11.73,-2.445,9.778,-1.582,-17.595,-23.46,0.0
1.815,-2.539,9.293,3.305,11.73,3.449,9.724,-2.778,11.73,-3.02,8.772,-3.739,-23.46,-17.595,0.0
1.82,-2.491,9.245,3.545,11.73,3.209,9.436,-3.114,11.73,-2.876,8.484,-3.739,-29.326,-11.73,-5.865
1.825,-2.635,9.341,3.161,11.73,3.209,9.436,-3.209,17.595,-2.301,8.772,-2.301,-29.326,-11.73,-5.865
1.83,-3.114,9.436,3.209,11.73,3.449,9.628,-2.778,11.73,-2.588,9.203,-2.157,-29.326,-11.73,-5.865
1.835,-3.114,9.58,2.97,11.73,4.024,9.628,-2.922,11.73,-2.445,9.635,-2.588,-29.326,-11.73,-5.865
1.84,-2.682,9.867,2.443,11.73,3.928,9.963,-2.539,11.73,-3.164,9.778,-3.307,-23.46,-5.865,-5.865
1.845,-2.73,10.011,2.491,5.865,3.353,10.059,-2.06,11.73,-2.732,9.491,-3.307,-23.46,-5.865,-5.865
1.85,-3.114,9.915,2.826,5.865,3.64,9.82,-2.299,11.73,-2.588,9.203,-3.164,-17.595,0.0,-5.865
1.855,-3.161,10.011,2.826,5.865,4.024,9.676,-2.635,5.865,-2.732,9.347,-2.876,-17.595,5.865,-11.73
1.86,-3.018,10.107,2.539,5.865,3.976,9.82,-2.443,5.865,-2.876,9.203,-3.164,-11.73,5.865,-11.73
1.865,-2.922,10.203,2.491,-0.0,3.832,10.059,-2.251,5.865,-3.02,9.203,-3.451,-11.73,11.73,-11.73
1.87,-2.826,10.251,2.443,-0.0,3.688,10.203,-2.203,5.865,-3.02,9.203,-3.307,-5.865,11.73,-11.73
1.875,-2.826,10.251,2.491,-0.0,3.545,10.251,-2.203,5.865,-3.451,9.491,-3.164,-5.865,5.865,-5.865
1.8800000000000001,-2.682,10.346,2.587,-0.0,3.449,10.346,-2.251,5.865,-3.451,9.491,-3.02,-5.865,5.865,-5.865
1.885,-2.73,10.442,2.635,-0.0,3.401,10.442,-2.347,5.865,-3.307,9.635,-2.588,-5.865,11.73,-5.865
1.8900000000000001,-2.778,10.49,2.635,-0.0,3.497,10.538,-2.395,0.0,-3.164,10.21,-2.445,0.0,11.73,-5.865
1.895,-2.826,10.538,2.682,-0.0,3.64,10.586,-2.395,5.865,-3.451,10.21,-2.732,0.0,11.73,-5.865
1.9000000000000001,-2.73,10.682,2.778,5.865,3.593,10.682,-2.443,5.865,-3.595,10.21,-2.876,-5.865,11.73,0.0
1.905,-2.73,10.921,2.826,5.865,3.64,10.825,-2.491,5.865,-3.451,10.354,-2.588,-5.865,11.73,0.0
1.9100000000000001,-2.874,11.017,2.874,5.865,3.449,10.921,-2.682,11.73,-3.307,10.354,-2.445,-11.73,11.73,0.0
1.915,-2.97,11.113,2.826,11.73,3.88,11.257,-2.635,11.73,-3.307,10.354,-2.445,-11.73,11.73,0.0
1.92,-2.97,11.257,2.826,11.73,3.928,11.448,-2.587,11.73,-3.451,10.354,-2.445,-11.73,11.73,0.0
1.925,-2.682,11.64,3.64,17.595,3.832,11.544,-2.635,11.73,-3.307,10.354,-2.588,-11.73,11.73,0.0
1.93,-3.449,11.736,3.353,17.595,3.545,11.4,-3.401,17.595,-3.164,10.497,-2.588,-11.73,11.73,0.0
1.935,-3.593,11.831,3.018,17.595,4.598,12.119,-2.97,17.595,-3.164,10.497,-2.588,-11.73,11.73,0.0
1.94,-3.449,11.831,3.066,23.46,4.742,12.598,-2.778,23.46,-3.307,10.641,-2.588,-11.73,11.73,0.0
1.945,-3.353,11.783,3.209,29.326,4.455,12.358,-2.874,29.326,-3.307,10.641,-2.732,-11.73,11.73,0.0
1.95,-3.545,11.831,3.257,29.326,4.311,12.023,-3.018,29.326,-3.164,10.929,-2.732,-11.73,11.73,-5.865
1.955,-3.736,11.879,3.209,29.326,4.598,11.975,-3.018,29.326,-3.164,11.073,-2.876,-11.73,11.73,-5.865
1.96,-3.928,11.975,3.161,29.326,4.886,12.023,-2.97,29.326,-3.451,11.073,-2.876,-11.73,11.73,-5.865
1.965,-3.976,11.879,2.922,35.191,5.03,12.119,-2.874,29.326,-3.451,11.216,-2.732,-11.73,11.73,-11.73
1.97,-3.832,11.592,2.682,35.191,5.03,12.071,-2.635,35.191,-3.164,11.935,-3.451,-11.73,11.73,-11.73
1.975,-3.736,11.065,2.299,41.056,4.79,11.64,-2.299,41.056,-3.883,11.792,-3.451,-11.73,11.73,-17.595
1.98,-3.449,10.442,1.82,46.921,4.503,11.113,-1.868,46.921,-3.883,11.504,-3.02,-11.73,11.73,-17.595
1.985,-3.114,9.963,1.389,52.786,4.119,10.586,-1.437,46.921,-3.883,11.36,-3.02,-11.73,17.595,-23.46
1.99,-3.018,9.628,0.862,52.786,3.832,10.155,-0.958,52.786,-3.883,11.648,-3.164,-5.865,17.595,-23.46
1.995,-2.97,9.293,0.383,52.786,3.832,9.915,-0.383,52.786,-4.026,11.792,-3.164,0.0,17.595,-23.46
2.0,-2.635,9.101,-0.287,52.786,3.64,9.676,0.144,52.786,-4.17,11.935,-3.164,5.865,17.595,-23.46
2.005,-2.347,8.909,-0.958,52.786,3.209,9.341,0.766,52.786,-4.314,11.935,-3.164,5.865,17.595,-23.46
2.0100000000000002,-2.108,8.622,-1.724,52.786,2.826,9.053,1.485,52.786,-4.314,11.935,-3.02,5.865,23.46,-29.326
2.015,-1.868,8.43,-2.682,52.786,2.395,8.862,2.299,52.786,-4.17,11.792,-2.732,5.865,23.46,-35.191
2.02,-1.533,8.143,-3.64,52.786,1.964,8.574,3.305,52.786,-4.314,11.216,-2.301,5.865,23.46,-41.056
2.025,-1.054,7.856,-4.503,52.786,1.341,8.335,4.263,52.786,-4.026,10.497,-1.869,5.865,29.326,-46.921
2.0300000000000002,-0.862,7.568,-5.221,52.786,0.719,8.047,5.125,52.786,-3.595,9.922,-1.438,5.865,29.326,-46.921
2.035,-0.527,7.281,-5.461,52.786,0.24,7.472,5.748,52.786,-3.451,9.491,-1.007,5.865,29.326,-46.921
2.04,-0.431,6.898,-5.413,46.921,-0.24,6.85,5.892,52.786,-3.307,9.059,-0.431,5.865,29.326,-52.786
2.045,-0.623,6.754,-5.317,46.921,-0.24,6.419,5.796,46.921,-3.164,8.916,0.144,17.595,29.326,-52.786
2.05,-0.575,6.514,-4.982,41.056,-0.096,6.179,5.652,46.921,-2.876,8.916,0.863,17.595,29.326,-52.786
2.055,-0.575,6.323,-4.311,41.056,0.0,6.131,5.173,46.921,-2.876,8.628,1.726,23.46,29.326,-52.786
2.06,-0.671,6.131,-3.545,41.056,0.24,6.083,4.407,41.056,-2.588,8.484,2.588,23.46,23.46,-52.786
2.065,-0.766,5.748,-2.874,41.056,0.479,5.94,3.688,41.056,-2.445,8.053,3.595,23.46,23.46,-52.786
2.07,-1.006,5.365,-1.964,41.056,0.91,5.844,2.922,41.056,-2.157,7.909,4.602,29.326,17.595,-52.786
2.075,-1.054,4.982,-0.814,35.191,1.15,5.604,1.916,35.191,-2.157,7.621,5.321,29.326,5.865,-52.786
2.08,-1.293,4.742,0.527,35.191,1.341,5.173,0.719,35.191,-2.013,7.478,5.752,29.326,0.0,-52.786
2.085,-1.677,4.598,1.916,23.46,1.724,4.838,-0.671,29.326,-1.726,7.334,5.752,29.326,-17.595,-46.921
2.09,-2.299,4.551,3.401,17.595,2.395,4.455,-2.108,23.46,-2.013,7.334,5.608,29.326,-29.326,-46.921
2.095,-2.97,4.455,4.982,11.73,3.209,4.215,-3.64,11.73,-1.869,7.046,5.464,23.46,-41.056,-41.056
2.1,-3.497,4.359,6.61,11.73,4.072,3.88,-5.269,11.73,-1.726,6.615,4.745,17.595,-58.651,-41.056
2.105,-3.976,4.311,8.143,11.73,4.742,3.497,-6.898,11.73,-1.726,6.327,4.026,5.865,-70.381,-41.056
2.11,-4.359,4.119,9.676,5.865,5.413,3.257,-8.43,11.73,-1.438,5.896,3.307,5.865,-76.246,-41.056
2.115,-4.742,3.976,11.065,5.865,5.988,3.114,-9.915,5.865,-1.582,5.321,2.445,5.865,-87.977,-35.191
2.12,-5.077,3.88,12.262,-0.0,6.658,3.066,-11.304,5.865,-1.582,4.889,1.294,5.865,-93.842,-35.191
2.125,-5.317,4.072,13.22,-5.865,7.185,3.305,-12.454,0.0,-1.726,4.602,-0.0,17.595,-93.842,-29.326
2.13,-5.556,4.455,13.987,-17.595,7.664,3.928,-13.412,-11.73,-1.869,4.602,-1.438,17.595,-99.707,-23.46
2.1350000000000002,-5.652,5.317,14.562,-23.46,7.999,4.742,-14.131,-17.595,-2.301,4.745,-3.02,23.46,-99.707,-17.595
2.14,-5.652,6.61,14.801,-35.191,8.191,5.94,-14.657,-29.326,-2.876,4.889,-4.602,23.46,-99.707,-11.73
2.145,-5.652,7.856,14.753,-35.191,8.239,7.472,-14.849,-35.191,-3.307,5.033,-6.183,17.595,-93.842,-11.73
2.15,-5.604,8.862,14.322,-35.191,8.335,8.766,-14.657,-35.191,-3.739,5.177,-7.765,5.865,-93.842,-5.865
2.1550000000000002,-5.413,9.58,13.652,-35.191,8.095,9.724,-14.178,-41.056,-3.883,5.033,-9.347,0.0,-87.977,-5.865
2.16,-5.077,9.963,12.981,-29.326,7.664,10.107,-13.508,-35.191,-4.026,4.602,-10.785,-11.73,-76.246,-5.865
2.165,-4.694,9.82,11.927,-29.326,6.993,9.963,-12.694,-29.326,-4.314,4.314,-12.079,-17.595,-64.516,0.0
2.17,-4.215,9.436,10.682,-23.46,6.323,9.532,-11.592,-23.46,-4.314,4.17,-13.23,-29.326,-52.786,5.865
2.1750000000000003,-3.736,9.245,9.149,-23.46,5.652,9.245,-10.251,-17.595,-4.458,4.17,-14.092,-35.191,-35.191,17.595
2.18,-3.257,9.293,7.425,-23.46,4.982,9.245,-8.622,-17.595,-4.458,4.745,-14.668,-35.191,-17.595,23.46
2.185,-2.682,9.484,5.556,-29.326,4.263,9.388,-6.85,-23.46,-4.602,5.752,-14.955,-35.191,0.0,29.326
2.19,-2.108,9.58,3.497,-29.326,3.401,9.628,-4.886,-23.46,-4.602,7.046,-15.099,-29.326,23.46,35.191
2.195,-1.581,9.82,1.437,-35.191,2.635,9.867,-2.73,-29.326,-4.602,8.197,-14.668,-23.46,46.921,41.056
2.2,-1.293,10.155,-0.575,-35.191,2.156,10.442,-0.671,-29.326,-4.745,9.059,-14.092,-17.595,64.516,41.056
2.205,-1.054,10.49,-2.491,-35.191,1.964,11.161,1.341,-29.326,-4.602,9.778,-13.23,-11.73,82.111,35.191
2.21,-0.575,10.73,-4.263,-29.326,1.293,11.352,3.209,-29.326,-4.458,10.066,-12.367,-5.865,99.707,29.326
2.215,0.0,10.73,-5.94,-23.46,0.335,11.113,4.982,-23.46,-4.17,9.635,-11.073,-5.865,111.437,23.46
2.22,0.383,10.586,-7.76,-23.46,-0.527,10.921,6.754,-23.46,-3.739,9.347,-9.491,-5.865,123.167,23.46
2.225,0.671,10.538,-9.436,-23.46,-1.198,10.682,8.622,-23.46,-3.307,9.203,-7.765,-11.73,129.032,23.46
2.23,0.814,10.586,-10.778,-23.46,-1.677,10.682,10.251,-23.46,-3.02,9.347,-5.896,-5.865,134.897,29.326
2.235,0.958,10.682,-11.64,-17.595,-2.012,10.682,11.496,-17.595,-2.588,9.491,-3.883,-5.865,140.762,29.326
2.24,1.006,10.73,-12.023,-11.73,-2.347,10.442,12.262,-11.73,-2.157,9.491,-1.726,-5.865,146.628,35.191
2.245,0.91,10.73,-12.119,-11.73,-2.491,10.155,12.55,-11.73,-1.726,9.635,0.288,0.0,146.628,35.191
2.25,0.719,10.634,-11.927,-5.865,-2.299,10.011,12.55,-5.865,-1.726,9.922,2.301,5.865,140.762,35.191
2.255,0.575,10.586,-11.592,-0.0,-2.012,9.963,12.262,0.0,-1.582,10.497,4.17,5.865,140.762,29.326
2.2600000000000002,0.335,10.49,-11.113,-0.0,-1.629,10.107,11.831,0.0,-1.438,10.641,5.896,23.46,134.897,29.326
2.265,0.335,10.394,-10.49,5.865,-1.293,10.011,11.352,5.865,-1.15,10.641,7.765,23.46,129.032,29.326
2.27,0.383,10.346,-9.628,11.73,-1.389,9.915,10.634,5.865,-1.15,10.641,9.491,29.326,117.302,23.46
2.275,0.144,10.394,-8.622,11.73,-1.245,10.107,9.676,11.73,-1.007,10.785,10.929,29.326,99.707,23.46
2.2800000000000002,-0.048,10.538,-7.185,11.73,-0.766,10.586,8.526,11.73,-1.15,11.073,11.935,29.326,82.111,23.46
2.285,-0.575,10.586,-5.556,11.73,-0.24,11.113,6.946,11.73,-1.15,11.36,12.511,23.46,58.651,17.595
2.29,-1.006,10.682,-3.736,11.73,0.575,11.304,5.221,11.73,-1.294,11.648,12.654,17.595,35.191,11.73
2.295,-1.533,10.825,-1.533,11.73,1.581,11.64,3.209,11.73,-1.438,11.648,12.511,5.865,11.73,11.73
2.3000000000000003,-2.203,10.778,0.814,5.865,2.251,11.4,0.91,5.865,-1.438,11.36,12.223,0.0,-11.73,5.865
2.305,-3.066,10.682,3.161,-0.0,3.305,11.113,-1.389,0.0,-1.438,11.216,11.648,-5.865,-35.191,0.0
2.31,-4.072,10.778,5.461,-0.0,4.646,11.161,-3.832,0.0,-1.582,11.216,11.073,-17.595,-52.786,-5.865
2.315,-4.934,10.825,7.664,5.865,6.035,11.017,-6.131,0.0,-1.438,10.929,10.354,-23.46,-70.381,-5.865
2.32,-5.365,10.73,9.676,11.73,6.993,10.682,-8.287,5.865,-1.438,10.641,9.347,-29.326,-93.842,-11.73
2.325,-5.844,10.346,11.209,11.73,7.52,10.299,-10.203,11.73,-1.438,10.354,8.053,-29.326,-111.437,-11.73
2.33,-6.323,9.867,12.262,17.595,8.191,9.867,-11.544,11.73,-1.726,10.354,6.327,-29.326,-123.167,-11.73
2.335,-6.61,9.388,13.029,17.595,8.766,9.58,-12.502,17.595,-1.726,10.066,4.602,-23.46,-134.897,-11.73
2.34,-6.802,9.197,13.604,23.46,9.149,9.484,-13.22,17.595,-2.157,10.21,2.445,-17.595,-146.628,-11.73
2.345,-6.85,8.957,13.939,23.46,9.293,9.341,-13.699,23.46,-2.588,10.497,-0.0,-11.73,-152.493,-5.865
2.35,-6.85,8.67,14.083,17.595,9.293,9.053,-13.987,23.46,-3.164,10.497,-2.445,-5.865,-152.493,0.0
2.355,-6.802,8.622,13.939,17.595,9.245,8.718,-14.035,17.595,-3.739,10.641,-4.889,0.0,-152.493,5.865
2.36,-6.706,8.622,13.652,11.73,9.005,8.478,-13.795,17.595,-4.602,10.929,-7.046,5.865,-146.628,0.0
2.365,-6.323,8.43,13.029,11.73,8.766,8.526,-13.412,11.73,-5.033,11.073,-9.203,5.865,-140.762,-5.865
2.37,-6.514,8.862,12.358,11.73,8.526,8.67,-12.741,11.73,-5.321,10.785,-10.929,0.0,-129.032,-11.73
2.375,-5.748,8.957,11.736,17.595,8.383,8.862,-12.071,17.595,-5.608,10.21,-12.223,-5.865,-117.302,-17.595
2.38,-5.461,8.909,10.825,11.73,7.377,8.814,-11.448,17.595,-5.896,9.491,-13.086,-5.865,-99.707,-17.595
2.3850000000000002,-5.269,8.766,9.724,11.73,7.137,8.814,-10.394,17.595,-5.896,9.059,-13.661,-5.865,-82.111,-17.595
2.39,-4.838,8.718,8.478,11.73,6.802,8.909,-9.245,11.73,-6.04,8.772,-14.092,-5.865,-70.381,-17.595
2.395,-4.646,8.862,7.281,11.73,6.371,9.005,-7.999,11.73,-6.04,8.484,-14.236,-5.865,-46.921,-17.595
2.4,-4.167,9.053,5.988,11.73,5.892,9.149,-6.754,11.73,-6.04,8.484,-14.236,-5.865,-29.326,-17.595
2.4050000000000002,-3.161,8.814,4.215,11.73,4.79,9.197,-5.461,17.595,-6.04,8.484,-13.949,0.0,-17.595,-11.73
2.41,-2.108,8.622,3.066,5.865,2.682,7.616,-3.449,17.595,-5.752,8.484,-13.373,0.0,0.0,-11.73
2.415,-3.88,9.388,1.772,-5.865,3.497,8.43,-2.299,5.865,-6.04,8.628,-12.654,0.0,17.595,-11.73
2.42,-4.263,10.634,1.102,-0.0,5.988,11.927,-1.245,0.0,-5.608,9.059,-12.079,0.0,29.326,-17.595
2.4250000000000003,-2.682,11.352,1.15,17.595,4.646,11.783,-0.862,11.73,-5.177,8.916,-11.216,0.0,46.921,-17.595
2.43,-2.06,10.921,0.479,29.326,2.395,10.634,-0.814,29.326,-5.177,8.628,-10.066,-5.865,52.786,-11.73
2.435,-2.395,10.346,-1.15,23.46,2.108,10.203,0.287,29.326,-4.745,8.484,-8.916,-5.865,64.516,-11.73
2.44,-2.395,10.155,-2.251,17.595,2.682,10.682,1.868,23.46,-4.602,8.628,-7.621,0.0,76.246,-11.73
2.445,-2.06,10.442,-2.587,23.46,2.635,11.065,2.682,23.46,-4.314,8.916,-6.327,0.0,82.111,-11.73
2.45,-1.916,10.778,-2.73,23.46,2.203,11.161,2.874,23.46,-4.602,9.491,-4.602,0.0,87.977,-11.73
2.455,-2.108,11.017,-3.066,23.46,2.012,11.017,3.161,23.46,-2.876,9.347,-3.164,0.0,87.977,-5.865
2.46,-2.156,11.257,-3.353,23.46,2.203,11.209,3.497,23.46,-3.164,8.197,-2.013,-5.865,82.111,5.865
2.465,-2.012,11.304,-3.497,29.326,2.156,11.352,3.736,29.326,-4.314,9.347,-1.15,-5.865,87.977,5.865
2.47,-2.012,11.257,-3.593,29.326,1.964,11.352,3.88,29.326,-3.883,11.504,-1.007,5.865,93.842,-11.73
2.475,-2.156,11.113,-3.64,29.326,2.108,11.448,3.976,29.326,-3.451,11.648,-0.575,5.865,93.842,-23.46
2.48,-2.203,11.065,-3.353,35.191,2.251,11.4,3.88,35.191,-3.307,10.641,1.007,5.865,82.111,-23.46
2.485,-2.203,11.113,-2.97,35.191,2.347,11.352,3.545,35.191,-3.164,9.778,2.301,5.865,76.246,-17.595
2.49,-2.395,11.065,-2.635,41.056,2.491,11.352,3.209,41.056,-3.02,9.778,2.732,5.865,70.381,-17.595
2.495,-2.539,11.065,-2.156,46.921,2.73,11.304,2.826,46.921,-3.02,10.497,3.02,17.595,64.516,-23.46
2.5,-2.587,11.017,-1.581,46.921,2.826,11.161,2.299,46.921,-3.164,11.073,3.164,23.46,58.651,-17.595
2.505,-2.826,10.969,-1.054,46.921,2.922,11.113,1.772,46.921,-3.307,11.36,3.595,23.46,52.786,-17.595
2.5100000000000002,-3.066,10.921,-0.431,52.786,3.305,11.065,1.198,52.786,-3.164,11.504,3.739,23.46,41.056,-23.46
2.515,-3.257,10.778,0.335,52.786,3.497,10.921,0.479,52.786,-3.164,11.36,3.883,23.46,35.191,-23.46
2.52,-3.449,10.586,0.958,52.786,3.832,10.73,-0.24,52.786,-3.164,11.073,3.883,23.46,23.46,-23.46
2.525,-3.688,10.346,1.581,52.786,4.167,10.586,-0.862,52.786,-3.307,11.073,3.595,23.46,17.595,-29.326
2.5300000000000002,-3.88,10.155,2.203,58.651,4.503,10.394,-1.485,52.786,-3.164,11.073,3.307,23.46,5.865,-35.191
2.535,-3.976,10.011,2.778,58.651,4.646,10.155,-2.108,58.651,-3.307,11.073,2.876,23.46,0.0,-41.056
2.54,-4.167,9.915,3.257,64.516,4.838,9.963,-2.682,58.651,-3.451,11.073,2.445,29.326,-5.865,-41.056
2.545,-4.263,9.724,3.64,64.516,5.077,9.82,-3.114,64.516,-3.451,11.073,1.869,29.326,-11.73,-46.921
2.5500000000000003,-4.311,9.388,4.024,70.381,5.221,9.628,-3.545,64.516,-3.595,11.073,1.294,29.326,-17.595,-46.921
2.555,-4.407,9.101,4.311,70.381,5.317,9.293,-3.88,70.381,-3.883,11.073,0.719,29.326,-23.46,-46.921
2.56,-4.455,8.766,4.551,70.381,5.365,9.005,-4.167,70.381,-4.026,10.929,-0.0,29.326,-29.326,-46.921
2.565,-4.551,8.383,4.742,70.381,5.509,8.718,-4.407,70.381,-4.17,10.785,-0.719,29.326,-35.191,-46.921
2.57,-4.646,7.999,4.79,70.381,5.604,8.383,-4.551,70.381,-4.17,10.497,-1.294,29.326,-35.191,-52.786
2.575,-4.646,7.76,4.886,70.381,5.748,8.143,-4.598,70.381,-4.458,10.21,-1.869,23.46,-35.191,-52.786
2.58,-4.694,7.664,4.982,64.516,5.748,7.951,-4.694,70.381,-4.458,10.21,-2.588,29.326,-41.056,-58.651
2.585,-4.694,7.52,4.838,64.516,5.796,7.664,-4.694,70.381,-4.602,10.066,-3.164,23.46,-41.056,-58.651
2.59,-4.646,7.52,4.646,64.516,5.7,7.52,-4.551,70.381,-4.602,9.922,-3.451,23.46,-41.056,-64.516
2.595,-4.503,7.185,4.359,58.651,5.365,7.281,-4.311,64.516,-4.745,9.635,-3.883,23.46,-35.191,-64.516
2.6,-4.742,7.233,4.119,58.651,5.461,7.185,-4.072,58.651,-4.745,9.203,-4.314,23.46,-35.191,-70.381
2.605,-4.742,7.329,3.832,64.516,5.94,7.616,-3.736,64.516,-4.745,8.916,-4.458,23.46,-35.191,-70.381
2.61,-4.263,7.137,3.784,64.516,5.461,7.329,-3.545,64.516,-4.889,8.484,-4.745,23.46,-35.191,-70.381
2.615,-4.215,6.898,3.449,64.516,4.886,7.089,-3.449,70.381,-4.889,7.909,-4.889,23.46,-29.326,-70.381
2.62,-4.263,6.802,3.066,64.516,4.838,6.802,-3.066,64.516,-4.745,7.621,-4.889,23.46,-29.326,-70.381
2.625,-4.311,6.706,2.826,58.651,4.838,6.61,-2.682,64.516,-4.889,7.478,-5.033,23.46,-23.46,-64.516
2.63,-4.263,6.754,2.73,58.651,4.838,6.562,-2.491,58.651,-4.889,7.621,-4.889,23.46,-17.595,-64.516
2.6350000000000002,-4.263,6.802,2.682,52.786,4.838,6.562,-2.347,58.651,-4.889,7.478,-4.745,23.46,-17.595,-64.516
2.64,-4.311,6.706,2.587,58.651,4.838,6.467,-2.347,58.651,-4.889,7.478,-4.458,23.46,-11.73,-58.651
2.645,-4.311,6.467,2.491,52.786,4.934,6.371,-2.251,58.651,-4.745,7.046,-4.314,23.46,-11.73,-58.651
2.65,-4.215,6.179,2.299,58.651,4.886,6.275,-2.108,58.651,-5.033,7.19,-3.883,23.46,-5.865,-64.516
2.6550000000000002,-4.167,5.988,2.108,58.651,4.886,6.179,-1.964,58.651,-4.745,7.19,-3.739,29.326,-5.865,-64.516
2.66,-4.024,5.892,2.012,58.651,4.838,6.179,-1.772,58.651,-4.602,6.902,-3.595,29.326,0.0,-64.516
2.665,-3.928,5.748,1.82,52.786,4.598,6.179,-1.629,58.651,-4.745,6.902,-3.164,29.326,0.0,-64.516
2.67,-3.88,5.892,1.629,52.786,4.503,6.083,-1.389,52.786,-4.745,6.902,-2.876,23.46,0.0,-58.651
2.6750000000000003,-3.832,5.892,1.485,46.921,4.503,6.227,-1.293,52.786,-4.745,6.902,-2.732,23.46,0.0,-58.651
2.68,-3.784,5.844,1.245,46.921,4.311,6.131,-1.102,46.921,-4.889,7.046,-2.588,23.46,-5.865,-58.651
2.685,-3.784,5.7,0.91,41.056,4.311,6.035,-0.814,46.921,-4.745,7.046,-2.588,17.595,-5.865,-58.651
2.69,-3.688,5.556,0.814,46.921,4.311,5.94,-0.527,46.921,-4.745,6.759,-2.445,5.865,-5.865,-52.786
2.695,-3.64,5.509,0.814,41.056,4.072,5.7,-0.479,46.921,-4.602,6.327,-2.301,5.865,-5.865,-52.786
2.7,-3.688,5.413,0.671,41.056,4.024,5.509,-0.431,41.056,-4.602,5.896,-2.157,5.865,-5.865,-58.651
2.705,-3.688,5.317,0.575,35.191,4.024,5.317,-0.24,41.056,-4.458,5.752,-2.013,5.865,-5.865,-58.651
2.71,-3.593,5.269,0.527,35.191,3.976,5.269,-0.24,41.056,-4.458,5.608,-1.869,5.865,-5.865,-52.786
2.715,-3.545,5.077,0.527,35.191,3.928,5.221,-0.144,41.056,-4.314,5.608,-1.582,5.865,-5.865,-52.786
2.72,-3.497,4.79,0.575,35.191,3.832,4.982,-0.144,35.191,-4.314,5.752,-1.438,17.595,-5.865,-46.921
2.725,-3.449,4.311,0.719,35.191,3.784,4.598,-0.24,35.191,-4.314,5.752,-1.294,17.595,-5.865,-46.921
2.73,-3.353,3.688,0.91,35.191,3.688,4.024,-0.431,35.191,-4.314,5.608,-0.863,23.46,-5.865,-46.921
2.735,-3.305,3.066,1.006,35.191,3.688,3.449,-0.575,35.191,-4.17,5.464,-0.719,23.46,-5.865,-41.056
2.74,-3.209,2.395,1.15,29.326,3.64,2.874,-0.671,29.326,-4.17,5.464,-0.719,29.326,-5.865,-41.056
2.745,-3.161,1.772,1.15,23.46,3.688,2.395,-0.766,29.326,-4.314,5.464,-0.575,29.326,-5.865,-41.056
2.75,-3.066,1.15,1.198,17.595,3.64,1.772,-0.814,23.46,-4.314,5.464,-0.431,29.326,-11.73,-35.191
2.755,-2.922,0.575,1.198,11.73,3.497,1.15,-0.814,17.595,-4.17,5.321,-0.431,29.326,-11.73,-35.191
2.7600000000000002,-2.73,0.0,1.293,5.865,3.305,0.527,-0.814,11.73,-4.17,5.177,-0.431,29.326,-17.595,-35.191
2.765,-2.587,-0.383,1.389,-5.865,3.066,0.0,-0.958,5.865,-4.026,5.033,-0.431,23.46,-17.595,-35.191
2.77,-2.539,-0.575,1.389,-11.73,2.922,-0.527,-1.006,-5.865,-4.026,4.458,-0.575,23.46,-23.46,-35.191
2.775,-2.443,-0.766,1.581,-23.46,2.778,-0.862,-1.006,-17.595,-3.883,3.883,-0.719,23.46,-23.46,-35.191
2.7800000000000002,-2.299,-0.91,1.916,-29.326,2.635,-1.054,-1.293,-23.46,-3.739,3.164,-0.863,23.46,-29.326,-29.326
2.785,-2.108,-1.198,2.251,-35.191,2.395,-1.485,-1.581,-35.191,-3.451,2.445,-1.007,23.46,-29.326,-23.46
2.79,-2.06,-1.724,2.587,-41.056,2.203,-2.06,-1.964,-41.056,-3.307,1.726,-1.15,23.46,-29.326,-23.46
2.795,-1.916,-2.635,3.018,-52.786,2.156,-2.778,-2.299,-46.921,-3.307,1.007,-1.15,23.46,-29.326,-17.595
2.8000000000000003,-1.724,-3.784,3.545,-58.651,2.012,-3.688,-2.778,-52.786,-3.02,0.431,-1.15,29.326,-23.46,-11.73
2.805,-1.485,-4.886,4.072,-70.381,2.012,-4.694,-3.305,-64.516,-2.876,-0.144,-1.15,29.326,-23.46,-5.865
2.81,-1.102,-5.796,4.694,-82.111,1.82,-5.7,-3.832,-76.246,-2.732,-0.575,-1.294,29.326,-23.46,0.0
2.815,-0.671,-6.754,5.365,-99.707,1.533,-6.467,-4.551,-87.977,-2.732,-0.575,-1.294,35.191,-23.46,11.73
2.82,-0.096,-7.76,5.988,-117.302,1.15,-7.377,-5.221,-105.572,-2.588,-0.719,-1.438,29.326,-23.46,23.46
2.825,0.24,-8.718,6.61,-134.897,0.671,-8.43,-5.844,-123.167,-2.445,-0.719,-1.726,29.326,-23.46,29.326
2.83,0.575,-9.58,7.137,-158.358,0.383,-9.436,-6.419,-140.762,-2.301,-0.719,-2.013,29.326,-23.46,35.191
2.835,0.766,-10.299,7.616,-181.818,0.24,-10.49,-6.946,-164.223,-2.301,-1.15,-2.445,23.46,-23.46,41.056
2.84,1.15,-10.969,8.143,-205.279,0.192,-11.448,-7.472,-193.548,-2.013,-2.013,-2.876,5.865,-23.46,52.786
2.845,2.012,-11.4,8.957,-228.739,-0.287,-12.55,-8.047,-217.009,-1.726,-3.164,-3.307,5.865,-23.46,58.651
2.85,3.114,-10.155,9.484,-258.064,-1.485,-12.741,-8.909,-240.469,-1.294,-4.458,-3.883,0.0,-23.46,70.381
2.855,3.832,-7.233,9.484,-281.525,-2.347,-10.921,-9.341,-269.795,-0.719,-5.608,-4.458,-5.865,-17.595,82.111
2.86,4.598,-3.353,8.67,-310.85,-3.161,-7.137,-9.101,-299.12,-0.144,-6.615,-5.321,-11.73,-11.73,93.842
2.865,5.461,0.287,7.808,-322.581,-4.167,-2.874,-8.287,-316.715,0.575,-7.765,-5.896,-11.73,-5.865,111.437
2.87,6.275,3.449,7.185,-328.446,-5.556,0.719,-7.472,-328.446,1.007,-8.772,-6.615,-11.73,0.0,129.032
2.875,-1.15,16.526,-3.928,-328.446,-6.802,3.64,-6.898,-328.446,1.582,-9.491,-7.046,-11.73,11.73,152.493
2.88,5.221,24.19,-22.034,76.246,20.741,23.615,16.19,-299.12,2.013,-10.066,-7.621,-17.595,23.46,175.953
2.8850000000000002,3.88,24.19,-24.669,152.493,-20.405,24.429,23.95,87.977,2.445,-10.497,-8.197,-17.595,35.191,199.413
2.89,4.694,11.688,-24.094,111.437,-23.758,13.604,24.333,99.707,3.164,-10.785,-8.772,-23.46,52.786,222.874
2.895,-9.101,11.592,-3.593,263.93,2.299,20.884,16.621,152.493,4.314,-9.922,-9.635,-35.191,70.381,252.199
2.9,-18.777,8.478,12.406,328.446,19.687,18.01,-2.874,310.85,5.177,-7.621,-9.635,-46.921,82.111,281.525
2.9050000000000002,-20.453,-1.293,16.573,217.009,24.573,1.916,-15.136,310.85,5.464,-3.883,-8.916,-52.786,99.707,304.985
2.91,-16.526,1.533,14.61,64.516,24.573,-0.91,-16.765,164.223,5.896,-0.288,-7.909,-58.651,111.437,328.446
2.915,-11.927,14.657,11.161,-41.056,21.076,6.514,-13.795,17.595,6.04,3.307,-7.19,-58.651,117.302,328.446
2.92,-11.592,24.046,8.287,-87.977,15.52,21.268,-10.538,-76.246,5.321,8.772,-6.759,-58.651,123.167,328.446
2.9250000000000003,-8.143,24.19,6.227,-105.572,12.885,24.429,-7.76,-123.167,-4.602,73.913,18.55,-29.326,170.088,164.223
2.93,-2.491,24.19,4.119,-117.302,8.335,24.429,-5.604,-158.358,-23.152,73.194,34.656,41.056,152.493,-134.897
2.935,-3.832,19.926,2.778,-129.032,2.539,24.429,-3.257,-164.223,2.876,22.433,28.616,-99.707,-70.381,-87.977
2.94,-3.64,13.843,4.982,-111.437,3.401,20.501,-2.874,-146.628,-3.02,1.582,8.34,-187.683,-228.739,-222.874
2.945,-3.449,9.628,8.335,-82.111,3.305,13.316,-5.748,-105.572,-13.517,8.916,-10.066,-134.897,-234.604,-328.446
2.95,-3.928,9.628,11.017,-70.381,3.832,7.329,-9.197,-76.246,-14.811,-1.15,-17.112,-99.707,-181.818,-252.199
2.955,-3.018,10.059,9.245,-76.246,3.593,6.658,-10.969,-76.246,-12.223,-2.876,-16.106,-99.707,-99.707,-93.842
2.96,-3.88,13.891,5.269,-64.516,4.359,10.586,-7.568,-76.246,-9.347,7.909,-12.654,-87.977,-11.73,29.326
2.965,-2.203,15.424,3.114,-35.191,4.503,15.424,-4.455,-52.786,-10.929,22.577,-9.203,-58.651,58.651,82.111
2.97,-0.814,14.178,0.671,-11.73,1.772,15.999,-2.156,-29.326,-10.785,31.205,-6.615,-29.326,99.707,99.707
2.975,-0.575,11.496,-0.766,-11.73,0.096,14.131,0.24,-11.73,-6.183,27.753,-4.458,-5.865,111.437,117.302
2.98,-2.395,9.724,-0.287,-11.73,1.198,12.215,1.054,-11.73,-6.327,20.563,-2.445,5.865,93.842,134.897
2.985,-3.88,8.862,0.719,11.73,3.88,10.634,0.24,-5.865,-5.896,14.38,-4.026,23.46,70.381,123.167
2.99,-4.119,8.335,1.054,29.326,5.7,9.532,-0.671,17.595,-4.17,10.641,-7.334,41.056,52.786,93.842
2.995,-3.449,7.76,0.287,41.056,5.413,8.43,-0.671,35.191,-5.608,12.079,-10.354,46.921,41.056,76.246
3.0,-2.97,8.047,-1.006,41.056,4.119,7.76,0.383,41.056,-3.164,11.504,-10.21,23.46,29.326,82.111
3.005,-2.203,8.383,-1.868,41.056,3.018,7.951,1.629,41.056,-4.458,13.23,-5.896,0.0,23.46,70.381
3.0100000000000002,-2.156,8.957,-1.916,35.191,2.108,8.383,2.299,35.191,-3.451,15.099,-3.595,-5.865,23.46,46.921
3.015,-2.156,9.101,-1.245,29.326,2.012,8.766,2.108,35.191,-2.732,14.38,-1.007,-5.865,23.46,17.595
3.02,-2.156,8.909,-0.479,29.326,2.108,8.718,1.341,29.326,-1.438,11.36,0.719,0.0,11.73,11.73
3.025,-2.108,8.67,0.335,23.46,2.156,8.478,0.527,29.326,-2.588,9.491,0.575,5.865,0.0,11.73
3.0300000000000002,-2.012,8.526,0.719,23.46,2.203,8.383,-0.144,23.46,-3.451,8.628,-0.575,23.46,-5.865,0.0
3.035,-1.868,8.335,1.006,23.46,2.156,8.383,-0.527,23.46,-3.883,8.34,-1.007,35.191,0.0,-23.46
3.04,-1.772,8.047,1.102,17.595,2.156,8.43,-0.719,17.595,-3.451,7.909,-0.575,41.056,11.73,-35.191
3.045,-1.868,7.808,1.293,11.73,2.203,8.287,-0.862,17.595,-3.595,8.053,0.863,41.056,17.595,-41.056
3.0500000000000003,-1.964,7.712,1.677,5.865,2.299,7.999,-1.102,11.73,-3.02,8.484,1.869,41.056,23.46,-41.056
3.055,-2.156,7.664,1.772,5.865,2.491,7.76,-1.437,11.73,-3.164,9.059,2.157,35.191,23.46,-35.191
3.06,-2.251,7.951,1.82,-0.0,2.73,7.76,-1.533,5.865,-3.164,9.491,1.726,29.326,17.595,-29.326
3.065,-2.395,8.287,1.82,-0.0,2.826,7.951,-1.533,5.865,-3.164,9.491,0.863,29.326,5.865,-23.46
3.0700000000000003,-2.491,8.526,1.677,-0.0,2.874,8.191,-1.437,0.0,-3.02,9.059,-0.0,23.46,0.0,-23.46
3.075,-2.587,8.766,1.581,5.865,3.018,8.67,-1.341,5.865,-2.876,8.772,-0.575,17.595,-11.73,-23.46
3.08,-2.347,8.862,1.772,5.865,2.874,8.574,-1.341,5.865,-2.588,8.34,-0.863,5.865,-17.595,-17.595
3.085,-2.491,9.149,1.916,11.73,2.635,8.67,-1.533,11.73,-2.301,8.053,-1.007,5.865,-17.595,-17.595
3.09,-2.587,9.388,2.203,11.73,2.97,9.101,-1.724,11.73,-2.301,7.621,-1.15,5.865,-23.46,-11.73
3.095,-2.587,9.436,2.443,11.73,3.114,9.436,-1.964,11.73,-2.445,7.621,-1.582,17.595,-23.46,-11.73
3.1,-2.539,9.532,2.826,11.73,3.305,9.724,-2.347,17.595,-2.588,7.621,-1.726,23.46,-23.46,-5.865
3.105,-2.587,9.724,3.114,11.73,3.209,9.82,-2.73,11.73,-2.588,8.053,-1.726,23.46,-23.46,0.0
3.11,-2.682,9.963,3.257,11.73,3.401,10.203,-2.922,11.73,-2.876,8.484,-1.726,17.595,-29.326,0.0
3.115,-2.73,10.059,3.593,5.865,3.545,10.538,-3.114,11.73,-3.02,8.772,-1.582,17.595,-29.326,0.0
3.12,-2.874,10.011,3.784,5.865,3.736,10.442,-3.497,5.865,-3.02,8.916,-1.582,5.865,-29.326,0.0
3.125,-2.874,9.82,3.736,-0.0,3.832,10.442,-3.593,5.865,-3.02,9.203,-1.582,5.865,-29.326,-5.865
3.13,-2.874,9.724,3.688,-0.0,3.832,10.299,-3.497,0.0,-3.02,9.347,-1.869,5.865,-35.191,-11.73
3.1350000000000002,-2.874,9.867,3.593,-5.865,3.688,10.155,-3.449,0.0,-3.164,9.491,-2.013,5.865,-35.191,-11.73
3.14,-2.874,10.107,3.401,-5.865,3.688,10.251,-3.305,0.0,-3.02,9.491,-2.301,5.865,-41.056,-11.73
3.145,-2.826,10.442,3.161,-5.865,3.593,10.394,-3.114,-5.865,-3.02,9.347,-2.732,5.865,-41.056,-11.73
3.15,-2.826,10.538,2.97,-5.865,3.497,10.586,-2.874,0.0,-3.02,9.635,-3.02,5.865,-41.056,-11.73
3.1550000000000002,-2.73,10.442,2.922,-0.0,3.401,10.586,-2.73,0.0,-3.02,9.635,-3.164,5.865,-41.056,-11.73
3.16,-2.778,10.49,2.778,5.865,3.257,10.442,-2.635,5.865,-3.02,9.778,-3.595,5.865,-35.191,-5.865
3.165,-2.73,10.586,2.682,5.865,3.305,10.394,-2.539,5.865,-3.164,9.778,-3.739,17.595,-35.191,-5.865
3.17,-2.73,10.634,2.539,11.73,3.305,10.538,-2.395,11.73,-3.02,9.491,-3.883,23.46,-35.191,0.0
3.1750000000000003,-2.682,10.73,2.395,11.73,3.305,10.634,-2.251,11.73,-3.164,9.347,-3.739,23.46,-29.326,0.0
3.18,-2.635,10.778,2.299,17.595,3.257,10.634,-2.108,17.595,-3.164,9.635,-3.595,29.326,-23.46,5.865
3.185,-2.587,10.778,2.203,17.595,3.161,10.682,-2.012,17.595,-3.307,9.922,-3.451,35.191,-23.46,5.865
3.19,-2.539,10.682,2.156,17.595,3.161,10.586,-1.916,17.595,-3.307,10.354,-3.164,35.191,-23.46,5.865
3.1950000000000003,-2.539,10.634,2.203,17.595,3.114,10.538,-1.916,17.595,-3.307,10.641,-3.02,35.191,-23.46,5.865
3.2,-2.587,10.634,2.108,11.73,3.161,10.49,-1.916,17.595,-3.307,10.641,-2.876,35.191,-23.46,0.0
3.205,-2.539,10.682,2.108,11.73,3.161,10.49,-1.868,17.595,-3.307,10.641,-2.732,35.191,-23.46,-5.865
3.21,-2.443,10.586,2.108,11.73,3.161,10.682,-1.868,17.595,-3.307,10.785,-2.588,35.191,-23.46,-5.865
3.215,-2.443,10.538,2.203,11.73,3.161,10.73,-1.82,11.73,-3.307,10.929,-2.588,35.191,-23.46,-11.73
3.22,-2.443,10.49,2.299,11.73,3.114,10.634,-2.012,11.73,-3.307,10.929,-2.301,29.326,-29.326,-11.73
3.225,-2.443,10.394,2.395,11.73,3.209,10.586,-2.06,11.73,-3.307,11.073,-2.301,29.326,-29.326,-11.73
3.23,-2.443,10.394,2.443,5.865,3.209,10.634,-2.156,11.73,-3.164,11.073,-2.157,23.46,-29.326,-17.595
3.235,-2.395,10.49,2.443,11.73,3.066,10.682,-2.203,11.73,-3.164,10.929,-2.157,23.46,-29.326,-17.595
3.24,-2.347,10.538,2.491,11.73,3.066,10.778,-2.203,11.73,-3.02,10.785,-2.157,17.595,-29.326,-17.595
3.245,-2.299,10.538,2.539,11.73,2.97,10.825,-2.251,11.73,-3.164,10.929,-2.013,17.595,-35.191,-11.73
3.25,-2.299,10.442,2.539,11.73,2.922,10.73,-2.299,11.73,-3.02,10.929,-2.013,5.865,-35.191,-11.73
3.255,-2.251,10.346,2.587,17.595,2.874,10.634,-2.299,17.595,-2.876,10.641,-2.013,5.865,-35.191,-11.73
3.2600000000000002,-2.203,10.299,2.587,17.595,2.778,10.442,-2.347,17.595,-2.876,10.641,-2.157,5.865,-35.191,-11.73
3.265,-2.156,10.251,2.491,23.46,2.682,10.299,-2.299,23.46,-2.876,10.497,-2.301,5.865,-35.191,-11.73
3.27,-2.156,10.251,2.443,23.46,2.682,10.251,-2.251,23.46,-2.876,10.354,-2.301,5.865,-29.326,-11.73
3.275,-2.156,10.442,2.395,23.46,2.635,10.251,-2.203,23.46,-2.876,10.354,-2.445,5.865,-29.326,-11.73
3.2800000000000002,-2.203,10.682,2.299,23.46,2.682,10.346,-2.108,23.46,-2.876,10.354,-2.445,5.865,-29.326,-11.73
3.285,-2.251,10.921,2.203,29.326,2.826,10.634,-2.012,29.326,-2.876,10.497,-2.445,17.595,-29.326,-11.73
3.29,-2.251,11.017,2.156,23.46,2.922,10.778,-1.916,29.326,-2.876,10.641,-2.445,17.595,-29.326,-11.73
3.295,-2.347,11.065,2.251,29.326,3.018,10.873,-1.916,29.326,-2.876,10.497,-2.445,23.46,-29.326,-11.73
3.3000000000000003,-2.443,11.304,2.299,29.326,3.114,10.873,-2.012,29.326,-2.876,10.354,-2.588,23.46,-35.191,-11.73
3.305,-2.491,11.64,2.251,23.46,3.161,11.065,-2.06,29.326,-2.732,10.354,-2.588,23.46,-35.191,-17.595
3.31,-2.922,11.975,2.012,23.46,3.257,11.448,-2.012,29.326,-2.732,10.354,-2.445,23.46,-35.191,-17.595
3.315,-2.203,12.215,2.347,29.326,3.401,11.783,-1.868,29.326,-2.732,10.354,-2.445,23.46,-35.191,-23.46
3.3200000000000003,-2.299,12.167,2.299,29.326,2.778,12.119,-2.108,29.326,-2.732,10.641,-2.301,23.46,-35.191,-23.46
3.325,-2.203,12.071,2.299,23.46,2.874,12.167,-2.012,29.326,-2.732,10.929,-2.157,23.46,-41.056,-23.46
3.33,-2.06,11.927,2.539,23.46,2.73,12.167,-2.108,23.46,-2.732,11.216,-2.157,17.595,-41.056,-23.46
3.335,-1.964,11.927,2.73,23.46,2.587,12.071,-2.347,23.46,-2.732,11.36,-2.013,5.865,-41.056,-23.46
3.34,-2.012,12.023,2.539,23.46,2.491,11.975,-2.491,23.46,-2.732,11.36,-2.157,5.865,-41.056,-23.46
3.345,-1.772,12.55,2.012,29.326,2.778,12.933,-1.485,23.46,-2.876,11.648,-2.301,5.865,-41.056,-23.46
3.35,-2.922,13.268,1.82,41.056,3.593,13.029,-1.677,29.326,-3.02,11.935,-2.157,5.865,-41.056,-23.46
3.355,-1.916,14.562,2.635,58.651,3.018,14.37,-1.82,41.056,-3.451,12.079,-1.869,0.0,-41.056,-23.46
3.36,-1.868,15.041,2.97,64.516,2.012,14.226,-2.587,58.651,-2.588,12.654,-2.157,-5.865,-41.056,-23.46
3.365,-2.443,15.136,2.73,64.516,2.06,14.37,-2.73,64.516,-3.02,12.223,-2.157,-5.865,-41.056,-23.46
3.37,-2.826,14.993,2.443,70.381,3.066,14.801,-2.443,64.516,-2.876,12.079,-2.157,-11.73,-41.056,-23.46
3.375,-2.587,14.514,2.491,82.111,3.497,14.993,-2.251,70.381,-2.732,11.935,-2.445,-11.73,-46.921,-23.46
3.38,-2.347,13.987,2.491,87.977,3.353,14.849,-2.299,82.111,-2.588,11.935,-2.588,-11.73,-46.921,-23.46
3.3850000000000002,-2.395,13.316,2.587,93.842,3.401,14.514,-2.347,93.842,-2.732,12.079,-2.588,-11.73,-46.921,-23.46
3.39,-2.347,12.694,2.682,99.707,3.449,14.083,-2.443,99.707,-2.445,12.511,-1.869,-5.865,-52.786,-23.46
3.395,-2.251,12.31,2.778,93.842,3.449,13.508,-2.539,93.842,-3.595,12.367,-1.582,-5.865,-52.786,-35.191
3.4,-2.203,11.927,2.874,93.842,3.401,13.077,-2.635,93.842,-3.02,14.524,-2.301,0.0,-52.786,-52.786
3.4050000000000002,-2.156,11.592,2.922,93.842,3.257,12.598,-2.73,93.842,-3.02,15.674,-2.732,5.865,-58.651,-64.516
3.41,-2.156,11.113,2.778,87.977,3.114,12.023,-2.682,93.842,-3.451,15.818,-2.732,0.0,-64.516,-64.516
3.415,-2.06,10.73,2.635,87.977,2.922,11.304,-2.539,93.842,-3.595,15.387,-2.301,-11.73,-70.381,-64.516
3.42,-1.82,10.394,2.347,87.977,2.682,10.921,-2.299,87.977,-3.307,14.811,-2.445,-11.73,-76.246,-76.246
3.4250000000000003,-1.724,10.107,2.012,82.111,2.443,10.682,-2.012,87.977,-2.732,13.949,-2.445,-11.73,-76.246,-87.977
3.43,-1.581,9.867,1.677,82.111,2.251,10.442,-1.677,87.977,-2.732,12.942,-2.588,-5.865,-76.246,-93.842
3.435,-1.389,9.628,1.389,82.111,1.964,10.251,-1.341,82.111,-2.588,12.079,-2.732,0.0,-76.246,-93.842
3.44,-1.15,9.293,1.198,82.111,1.629,10.059,-1.102,82.111,-2.445,11.792,-2.732,5.865,-70.381,-93.842
3.4450000000000003,-1.054,8.862,1.15,82.111,1.341,9.676,-0.91,82.111,-2.301,11.36,-2.876,17.595,-64.516,-93.842
3.45,-1.006,8.43,1.198,76.246,1.245,9.149,-0.91,82.111,-2.445,11.216,-2.876,29.326,-58.651,-87.977
3.455,-0.958,8.047,1.341,76.246,1.15,8.526,-1.006,76.246,-2.445,11.073,-2.876,35.191,-58.651,-87.977
3.46,-1.054,7.664,1.485,76.246,1.293,7.999,-1.15,76.246,-2.588,10.785,-2.588,41.056,-52.786,-87.977
3.465,-1.102,7.425,1.581,70.381,1.389,7.52,-1.293,76.246,-2.301,10.354,-2.445,46.921,-52.786,-87.977
3.47,-1.102,7.185,1.581,70.381,1.437,7.233,-1.389,70.381,-2.157,9.922,-2.013,46.921,-52.786,-82.111
3.475,-0.958,7.041,1.533,70.381,1.389,6.993,-1.341,70.381,-2.157,9.635,-1.726,52.786,-52.786,-82.111
3.48,-1.054,7.137,1.485,70.381,1.293,7.137,-1.293,70.381,-2.013,9.347,-1.438,52.786,-52.786,-82.111
3.485,-0.958,7.281,1.437,70.381,1.341,7.281,-1.245,70.381,-1.869,9.059,-1.15,64.516,-52.786,-82.111
3.49,-0.91,7.377,1.341,70.381,1.198,7.472,-1.15,70.381,-1.726,8.628,-1.007,64.516,-58.651,-82.111
3.495,-0.862,7.137,1.245,70.381,1.102,7.281,-1.054,70.381,-1.726,8.34,-1.007,70.381,-58.651,-82.111
3.5,-0.719,6.946,1.341,64.516,1.054,7.137,-1.006,64.516,-1.582,8.197,-1.15,76.246,-64.516,-76.246
3.505,-0.814,6.754,1.341,58.651,1.102,7.185,-1.102,58.651,-1.582,7.765,-1.294,76.246,-64.516,-76.246
3.5100000000000002,-0.766,6.419,1.485,52.786,1.15,6.754,-1.15,58.651,-1.582,7.621,-1.438,76.246,-70.381,-70.381
3.515,-1.15,6.514,1.677,46.921,1.293,6.754,-1.341,52.786,-1.582,7.478,-1.438,76.246,-70.381,-70.381
3.52,-1.293,6.85,2.012,46.921,1.772,6.946,-1.581,46.921,-1.438,7.19,-1.438,76.246,-70.381,-70.381
3.525,-1.341,6.802,2.203,46.921,1.724,6.85,-1.868,46.921,-1.582,7.19,-1.438,76.246,-76.246,-70.381
3.5300000000000002,-1.341,6.706,2.299,41.056,1.677,6.371,-2.06,46.921,-1.582,7.334,-1.294,76.246,-76.246,-70.381
3.535,-1.724,6.706,2.251,41.056,1.916,6.467,-2.108,41.056,-1.438,7.478,-1.15,76.246,-76.246,-70.381
3.54,-1.772,6.61,2.156,41.056,2.299,6.514,-2.012,41.056,-1.438,7.19,-1.15,76.246,-82.111,-70.381
3.545,-1.629,6.419,2.108,41.056,2.203,6.227,-1.916,41.056,-1.294,6.759,-1.15,82.111,-82.111,-64.516
3.5500000000000003,-1.724,6.419,2.012,41.056,2.06,6.275,-1.916,41.056,-1.294,6.615,-1.15,82.111,-87.977,-58.651
3.555,-1.916,6.371,1.772,41.056,2.251,6.467,-1.724,41.056,-1.15,6.327,-1.294,87.977,-87.977,-58.651
3.56,-1.677,6.179,1.82,41.056,2.203,6.323,-1.533,41.056,-1.294,6.327,-1.438,87.977,-87.977,-46.921
3.565,-1.533,5.796,1.916,35.191,1.82,5.94,-1.629,41.056,-1.582,6.615,-1.869,93.842,-87.977,-46.921
3.5700000000000003,-1.629,5.556,2.012,29.326,1.724,5.7,-1.724,35.191,-1.869,7.046,-2.013,93.842,-87.977,-46.921
3.575,-1.772,5.556,2.156,23.46,1.964,5.7,-1.82,23.46,-1.726,7.19,-2.157,93.842,-87.977,-41.056
3.58,-2.012,5.652,2.347,17.595,2.299,5.892,-2.012,23.46,-1.869,7.046,-2.157,93.842,-87.977,-41.056
3.585,-2.203,5.7,2.635,11.73,2.587,5.892,-2.251,23.46,-2.157,6.902,-2.013,87.977,-87.977,-41.056
3.59,-2.251,5.652,2.874,11.73,2.73,5.796,-2.539,17.595,-2.013,6.759,-1.869,87.977,-87.977,-41.056
3.595,-2.299,5.556,3.066,11.73,2.874,5.7,-2.778,11.73,-2.013,6.615,-1.869,82.111,-87.977,-35.191
3.6,-2.203,5.317,3.066,5.865,2.778,5.365,-2.874,11.73,-2.301,6.471,-1.582,82.111,-87.977,-41.056
3.605,-2.251,4.982,3.066,5.865,2.826,5.317,-2.874,11.73,-2.157,6.327,-1.582,82.111,-87.977,-41.056
3.61,-2.299,4.598,3.114,5.865,2.874,5.125,-2.922,5.865,-2.013,5.896,-1.726,82.111,-93.842,-35.191
3.615,-2.156,4.407,3.066,-0.0,2.874,4.886,-2.922,5.865,-2.157,5.608,-1.869,82.111,-93.842,-29.326
3.62,-2.203,4.215,2.97,-5.865,2.874,4.646,-2.826,0.0,-2.157,5.321,-2.013,82.111,-93.842,-23.46
3.625,-2.395,4.072,2.97,-11.73,2.826,4.455,-2.826,-5.865,-2.301,5.464,-2.157,82.111,-99.707,-17.595
3.63,-2.491,3.976,3.114,-17.595,3.114,4.311,-2.826,-11.73,-2.445,5.608,-2.445,87.977,-99.707,-17.595
3.6350000000000002,-2.635,4.215,3.066,-29.326,3.209,4.263,-2.97,-17.595,-2.445,5.752,-2.732,87.977,-99.707,-11.73
3.64,-2.73,4.455,3.066,-35.191,3.449,4.263,-2.874,-29.326,-2.588,5.752,-2.876,87.977,-99.707,-11.73
3.645,-2.635,4.886,3.018,-41.056,3.449,4.455,-2.874,-41.056,-2.445,5.464,-2.876,87.977,-93.842,-11.73
3.65,-2.587,5.365,2.922,-41.056,3.257,4.886,-2.778,-41.056,-2.445,5.033,-3.02,87.977,-93.842,-5.865
3.6550000000000002,-2.587,5.748,2.778,-46.921,3.209,5.413,-2.682,-46.921,-2.445,4.458,-3.02,87.977,-93.842,0.0
3.66,-2.635,6.179,2.635,-52.786,3.257,5.892,-2.539,-46.921,-2.301,4.17,-3.02,87.977,-93.842,0.0
3.665,-2.635,6.658,2.539,-52.786,3.305,6.467,-2.395,-52.786,-2.301,4.026,-2.876,93.842,-87.977,5.865
3.67,-2.73,7.185,2.491,-58.651,3.305,6.946,-2.299,-52.786,-2.445,3.739,-2.876,99.707,-87.977,11.73
3.6750000000000003,-2.73,7.568,2.491,-58.651,3.257,7.329,-2.347,-58.651,-2.588,3.739,-2.876,99.707,-87.977,17.595
3.68,-2.635,7.904,2.347,-64.516,3.114,7.616,-2.251,-64.516,-2.588,4.026,-3.02,99.707,-82.111,23.46
3.685,-2.587,8.287,2.203,-64.516,2.97,7.951,-2.108,-64.516,-2.876,4.458,-3.02,105.572,-82.111,35.191
3.69,-2.587,8.622,2.06,-70.381,3.018,8.335,-1.964,-64.516,-2.732,5.033,-2.876,99.707,-76.246,41.056
3.6950000000000003,-2.587,8.909,2.012,-70.381,2.97,8.718,-1.82,-70.381,-2.732,5.464,-2.876,99.707,-70.381,46.921
3.7,-2.539,9.245,2.012,-70.381,3.066,9.149,-1.82,-70.381,-2.732,5.752,-2.732,99.707,-70.381,46.921
3.705,-2.539,9.628,2.108,-76.246,3.161,9.58,-1.868,-76.246,-2.876,6.04,-2.588,99.707,-70.381,52.786
3.71,-2.539,9.963,2.251,-76.246,3.209,10.059,-2.012,-76.246,-2.876,6.471,-2.445,99.707,-70.381,52.786
3.715,-2.73,10.203,2.251,-76.246,3.305,10.346,-2.108,-76.246,-3.02,7.046,-2.445,99.707,-70.381,58.651
3.72,-2.826,10.346,2.203,-70.381,3.449,10.49,-2.06,-76.246,-3.164,7.478,-2.445,99.707,-70.381,58.651
3.725,-2.826,10.346,2.06,-64.516,3.545,10.538,-2.012,-70.381,-3.164,7.909,-2.157,99.707,-70.381,64.516
3.73,-2.922,10.203,1.916,-58.651,3.64,10.49,-1.82,-64.516,-3.164,8.34,-2.013,93.842,-70.381,70.381
3.735,-2.826,9.963,1.724,-58.651,3.688,10.442,-1.724,-58.651,-3.164,8.628,-1.869,93.842,-70.381,70.381
3.74,-2.682,9.532,1.485,-52.786,3.497,10.107,-1.485,-58.651,-3.164,8.916,-1.869,93.842,-76.246,70.381
3.745,-2.491,9.149,1.245,-46.921,3.257,9.772,-1.198,-52.786,-3.164,9.059,-1.869,93.842,-76.246,76.246
3.75,-2.395,8.766,1.006,-46.921,3.114,9.484,-0.958,-52.786,-3.02,9.347,-2.013,93.842,-82.111,76.246
3.755,-2.635,10.251,0.383,-52.786,2.97,9.149,-0.719,-52.786,-3.02,9.635,-2.157,93.842,-82.111,76.246
3.7600000000000002,-3.353,14.274,-1.15,-58.651,3.784,12.406,0.335,-52.786,-3.164,10.066,-2.157,93.842,-82.111,76.246
3.765,-3.114,11.209,-0.383,-52.786,3.784,16.717,1.82,-64.516,-3.307,10.354,-2.013,93.842,-82.111,70.381
3.77,-2.539,11.161,1.389,-23.46,2.635,10.107,-0.24,-46.921,-3.164,10.497,-2.013,93.842,-82.111,70.381
3.775,-2.299,11.448,1.533,-11.73,1.724,9.484,-1.341,-17.595,-3.307,10.21,-1.869,93.842,-82.111,64.516
3.7800000000000002,-2.539,11.113,1.102,-23.46,2.539,10.107,-1.293,-17.595,-3.164,10.066,-1.582,93.842,-82.111,58.651
3.785,-3.401,11.113,0.527,-29.326,3.209,10.682,-0.766,-23.46,-3.02,9.635,-1.438,99.707,-82.111,52.786
3.79,-3.593,11.257,0.287,-29.326,3.928,11.017,-0.287,-29.326,-2.876,9.059,-1.15,99.707,-82.111,52.786
3.795,-3.161,11.304,0.192,-23.46,4.024,11.161,-0.096,-29.326,-2.876,8.628,-0.863,99.707,-82.111,52.786
3.8000000000000003,-2.874,11.257,0.24,-17.595,3.688,11.304,0.0,-23.46,-3.02,8.772,-0.575,105.572,-82.111,52.786
3.805,-2.73,10.969,0.24,-11.73,3.161,11.161,-0.096,-11.73,-3.164,12.511,0.719,111.437,-82.111,58.651
3.81,-2.635,10.49,0.287,-11.73,2.874,10.873,-0.096,-5.865,-4.026,12.079,1.294,123.167,-76.246,64.516
3.815,-2.73,10.107,0.144,-11.73,2.922,10.682,-0.096,-5.865,-4.17,12.079,-0.863,140.762,-76.246,29.326
3.8200000000000003,-2.874,9.82,0.048,-17.595,3.305,10.682,0.0,-11.73,-3.883,12.942,-1.15,129.032,-87.977,11.73
3.825,-3.066,9.58,-0.048,-17.595,3.64,10.538,0.096,-17.595,-3.02,11.935,-1.007,111.437,-99.707,23.46
3.83,-3.018,9.149,0.048,-17.595,3.688,10.394,0.192,-17.595,-4.026,11.36,-0.431,99.707,-105.572,29.326
3.835,-3.018,8.622,0.24,-23.46,3.449,10.059,0.096,-23.46,-4.314,11.504,-0.144,93.842,-111.437,29.326
3.84,-2.97,8.383,-0.048,-23.46,3.066,9.772,0.096,-23.46,-3.883,11.648,0.144,93.842,-117.302,23.46
3.845,-3.114,7.951,-0.383,-17.595,3.784,8.766,0.287,-17.595,-3.451,11.504,-0.0,87.977,-117.302,17.595
3.85,-3.018,7.664,-0.479,-17.595,3.784,8.574,0.479,-17.595,-3.595,11.216,0.144,87.977,-117.302,11.73
3.855,-2.826,7.233,-0.431,-23.46,3.64,8.335,0.527,-17.595,-3.451,10.641,-0.0,82.111,-123.167,5.865
3.86,-2.682,6.898,-0.527,-23.46,3.257,7.904,0.479,-23.46,-3.307,9.922,0.144,82.111,-123.167,11.73
3.865,-3.161,7.52,-2.635,-29.326,3.114,7.329,0.623,-29.326,-3.307,9.347,0.144,87.977,-129.032,11.73
3.87,-2.682,6.754,-2.778,-35.191,5.604,8.622,3.976,-29.326,-3.451,9.059,0.288,93.842,-129.032,17.595
3.875,-3.018,6.706,-0.814,-41.056,4.072,7.089,2.778,-41.056,-3.595,8.772,0.288,99.707,-129.032,23.46
3.88,-2.97,7.281,0.144,-58.651,2.97,6.035,0.719,-46.921,-3.451,8.484,0.144,105.572,-129.032,23.46
3.8850000000000002,-2.73,8.574,-0.287,-58.651,2.491,5.509,-0.383,-58.651,-3.451,7.909,0.431,111.437,-134.897,23.46
3.89,-3.401,9.341,-0.814,-64.516,4.455,7.185,0.766,-64.516,-3.307,7.765,0.575,123.167,-134.897,17.595
3.895,-3.305,9.293,-1.245,-64.516,4.838,8.143,1.006,-64.516,-3.307,7.19,0.719,129.032,-129.032,23.46
3.9,-1.916,8.957,-1.724,-64.516,4.886,9.245,1.102,-64.516,-3.307,6.759,0.863,134.897,-129.032,23.46
3.9050000000000002,-1.772,8.909,-2.012,-46.921,5.03,10.059,1.916,-58.651,-3.164,6.471,0.863,140.762,-129.032,23.46
3.91,-2.299,9.724,-1.437,-29.326,3.88,9.963,2.491,-41.056,-2.732,6.759,1.007,146.628,-129.032,29.326
3.915,-2.251,10.059,-1.102,-17.595,2.874,9.772,1.293,-23.46,-1.869,5.896,2.732,152.493,-129.032,35.191
3.92,-2.108,10.778,-0.862,-17.595,2.635,9.915,1.102,-11.73,-3.883,7.046,1.726,158.358,-111.437,41.056
3.9250000000000003,-2.108,11.113,-0.862,-23.46,2.587,10.49,1.102,-17.595,-4.17,8.34,0.431,158.358,-111.437,52.786
3.93,-2.156,11.113,-0.862,-29.326,2.491,10.73,0.91,-23.46,-3.164,10.066,0.144,146.628,-117.302,64.516
3.935,-1.198,11.257,-0.862,-41.056,2.347,11.113,1.006,-35.191,-3.164,10.641,0.863,129.032,-123.167,64.516
3.94,-1.293,11.448,-0.958,-46.921,2.156,11.783,1.293,-41.056,-3.164,10.354,1.869,111.437,-123.167,64.516
3.9450000000000003,-1.198,11.065,-1.198,-52.786,1.916,11.64,1.006,-52.786,-4.458,10.066,1.438,93.842,-105.572,70.381
3.95,-0.958,10.969,-1.006,-52.786,1.772,11.4,1.245,-52.786,-2.876,9.635,1.869,99.707,-87.977,93.842
3.955,-1.006,10.825,-1.102,-52.786,1.677,11.257,1.581,-52.786,-3.307,9.922,1.869,105.572,-64.516,99.707
3.96,-1.006,10.825,-1.485,-46.921,1.724,11.065,1.485,-52.786,-2.588,10.641,1.007,111.437,-52.786,99.707
3.9650000000000003,-1.772,10.346,-1.102,-41.056,2.012,10.825,1.533,-46.921,-2.157,10.497,1.294,105.572,-46.921,87.977
3.97,-1.916,9.915,-1.006,-35.191,2.251,10.586,1.389,-41.056,-2.157,10.354,0.863,99.707,-52.786,82.111
3.975,-2.587,9.867,-0.958,-29.326,2.395,10.107,1.198,-35.191,-2.157,10.641,1.15,93.842,-58.651,70.381
3.98,-1.677,9.82,-1.198,-29.326,2.874,10.011,1.293,-23.46,-2.013,10.641,1.15,87.977,-58.651,70.381
3.985,-2.251,9.772,-1.102,-29.326,3.114,10.059,1.437,-17.595,-2.013,10.354,1.438,87.977,-58.651,64.516
3.99,-2.491,9.724,-1.006,-23.46,3.353,10.011,1.198,-17.595,-1.869,10.497,1.15,93.842,-58.651,58.651
3.995,-2.635,9.963,-1.006,-23.46,3.64,10.011,1.245,-17.595,-1.582,10.785,1.438,93.842,-58.651,46.921
4.0,-3.161,10.011,-0.814,-17.595,3.736,9.963,1.102,-11.73,-1.294,10.641,1.438,93.842,-58.651,41.056
4.005,-3.353,10.059,-0.766,-17.595,3.832,10.107,1.054,-11.73,-1.726,10.497,1.438,93.842,-58.651,29.326
4.01,-3.018,9.963,-0.958,-11.73,3.545,9.724,0.91,-11.73,-1.007,10.785,1.438,93.842,-52.786,23.46
4.015,-3.305,9.82,-1.341,-11.73,4.311,9.867,1.198,-11.73,-1.007,10.497,1.438,99.707,-58.651,11.73
4.0200000000000005,-3.449,8.67,-1.485,-11.73,4.263,9.197,1.533,-11.73,-1.007,10.066,1.438,99.707,-58.651,11.73
4.025,-3.593,8.67,-1.629,-17.595,4.167,8.239,1.724,-17.595,-1.582,9.778,1.438,99.707,-58.651,11.73
4.03,-3.305,9.293,-1.82,-29.326,3.928,8.047,1.964,-29.326,-1.726,10.066,1.294,105.572,-58.651,23.46
4.035,-2.682,9.388,-2.251,-29.326,3.88,8.67,2.108,-35.191,-1.726,10.354,1.294,105.572,-52.786,23.46
4.04,-2.682,10.011,-2.682,-35.191,3.593,8.718,2.587,-41.056,-2.157,10.354,1.007,105.572,-52.786,23.46
4.045,-2.491,10.203,-2.778,-29.326,3.066,9.341,3.066,-41.056,-2.157,10.497,1.007,105.572,-46.921,23.46
4.05,-2.491,10.251,-2.73,-29.326,2.826,9.867,3.066,-41.056,-2.588,10.497,0.863,105.572,-46.921,23.46
4.055,-2.347,10.251,-2.874,-29.326,2.299,9.867,3.066,-41.056,-2.732,10.497,1.007,99.707,-41.056,17.595
4.0600000000000005,-2.06,10.346,-3.066,-29.326,2.012,9.915,3.305,-35.191,-2.445,9.778,0.863,99.707,-35.191,17.595
4.065,-1.82,10.586,-2.539,-29.326,1.485,10.346,3.209,-35.191,-2.588,8.916,1.438,99.707,-35.191,17.595
4.07,-1.677,11.065,-2.156,-29.326,1.054,11.065,2.778,-35.191,-2.445,9.203,2.157,93.842,-29.326,17.595
4.075,-1.581,10.825,-2.06,-29.326,0.958,10.969,2.443,-41.056,-2.445,10.066,2.013,87.977,-23.46,17.595
4.08,-1.629,10.586,-2.06,-29.326,1.724,10.873,2.299,-46.921,-2.445,10.497,2.301,82.111,-23.46,17.595
4.085,-2.06,10.203,-1.82,-29.326,2.826,10.586,2.203,-52.786,-2.301,11.073,2.588,76.246,-17.595,23.46
4.09,-2.012,9.724,-1.581,-29.326,3.497,10.346,1.916,-52.786,-2.732,10.929,3.164,64.516,-17.595,23.46
4.095,-2.012,9.58,-1.533,-35.191,3.832,10.203,1.916,-52.786,-2.876,10.641,3.02,52.786,-23.46,23.46
4.1,-2.299,9.245,-1.629,-35.191,3.545,10.107,1.724,-46.921,-3.02,10.785,3.02,41.056,-29.326,23.46
4.105,-2.587,8.718,-1.581,-41.056,3.018,10.011,2.012,-46.921,-3.164,10.929,3.164,29.326,-41.056,29.326
4.11,-5.844,4.551,-1.677,-52.786,2.826,9.772,1.868,-52.786,-2.876,10.641,2.876,23.46,-52.786,29.326
4.115,-3.88,6.85,-1.293,-58.651,3.449,8.239,1.629,-58.651,-2.732,10.21,2.301,17.595,-64.516,29.326
4.12,-2.156,8.287,-1.724,-46.921,4.551,7.52,1.437,-58.651,-2.588,10.21,2.301,23.46,-76.246,29.326
4.125,-2.587,7.808,-2.443,-41.056,3.784,7.856,2.108,-46.921,-2.157,10.21,2.445,35.191,-87.977,29.326
4.13,-3.161,6.85,-2.826,-29.326,3.545,7.568,2.874,-29.326,-2.301,9.635,2.157,41.056,-93.842,29.326
4.135,-3.497,6.754,-2.826,-29.326,3.784,6.946,3.114,-29.326,-1.869,9.203,1.726,52.786,-93.842,29.326
4.14,-3.114,7.041,-3.066,-29.326,3.736,6.754,3.114,-23.46,-1.726,9.203,1.582,58.651,-93.842,35.191
4.1450000000000005,-3.257,7.089,-2.97,-29.326,3.688,6.946,3.305,-23.46,-2.013,9.059,1.438,64.516,-87.977,35.191
4.15,-3.257,7.089,-2.874,-29.326,3.736,6.946,3.161,-17.595,-3.451,7.765,2.445,70.381,-82.111,35.191
4.155,-2.922,6.85,-2.826,-23.46,3.545,6.754,3.018,-11.73,-7.046,6.327,1.869,76.246,-99.707,41.056
4.16,-2.826,6.946,-2.251,-23.46,3.209,6.467,3.018,-11.73,-0.863,9.922,1.007,99.707,-117.302,29.326
4.165,-2.778,6.323,-1.868,-17.595,2.97,5.94,2.012,-5.865,-1.726,8.34,1.294,87.977,-93.842,41.056
4.17,-2.491,5.556,-3.688,-11.73,3.305,6.419,3.018,-5.865,-2.876,6.902,2.301,82.111,-82.111,46.921
4.175,-2.203,5.652,-3.832,-11.73,2.108,5.652,4.167,-5.865,-3.307,7.621,2.588,76.246,-76.246,35.191
4.18,-1.868,6.131,-3.545,-5.865,1.389,5.461,4.119,-5.865,-3.307,7.909,3.164,76.246,-76.246,35.191
4.1850000000000005,-1.533,6.706,-3.161,-5.865,1.15,5.7,3.736,-5.865,-3.451,7.621,3.307,76.246,-76.246,35.191
4.19,-1.485,7.52,-2.97,-5.865,0.91,5.892,3.353,0.0,-3.595,7.621,3.02,76.246,-76.246,35.191
4.195,-1.629,6.658,-3.257,-0.0,1.629,6.61,3.353,5.865,-3.595,7.621,3.02,76.246,-76.246,35.191
4.2,-1.389,6.946,-3.545,-0.0,1.916,6.898,3.688,11.73,-3.451,7.478,2.876,76.246,-82.111,35.191
4.205,-1.677,7.951,-3.688,-5.865,1.964,7.185,3.832,5.865,-3.307,7.19,2.876,70.381,-76.246,29.326
4.21,-1.485,8.526,-3.832,-11.73,1.964,7.377,3.832,0.0,-3.164,7.046,2.445,64.516,-76.246,29.326
4.215,-1.629,8.862,-3.736,-23.46,1.724,8.526,4.072,-17.595,-2.732,6.759,3.02,58.651,-76.246,23.46
4.22,-1.533,9.724,-3.784,-35.191,2.012,10.203,4.024,-29.326,-3.02,6.759,3.883,52.786,-82.111,17.595
4.225,-1.198,9.772,-2.73,-41.056,2.108,10.969,3.928,-41.056,-3.02,6.759,4.026,52.786,-87.977,11.73
4.23,-0.144,13.364,-4.167,-46.921,0.479,18.537,3.066,-46.921,-2.301,6.902,3.595,46.921,-99.707,11.73
4.235,-0.623,11.065,-5.461,-46.921,1.437,11.113,4.886,-46.921,-2.013,7.334,3.164,41.056,-111.437,11.73
4.24,-1.102,9.724,-4.119,-52.786,1.964,9.867,5.221,-52.786,-1.869,7.334,3.164,41.056,-117.302,5.865
4.245,-0.814,8.239,-3.401,-52.786,1.341,9.82,4.024,-52.786,-1.582,6.615,3.595,41.056,-117.302,5.865
4.25,-0.671,7.951,-3.161,-46.921,0.431,9.149,3.401,-52.786,-1.726,7.334,3.739,41.056,-117.302,5.865
4.255,-0.431,7.76,-3.066,-35.191,0.0,8.383,3.161,-41.056,-2.013,7.909,3.883,46.921,-117.302,17.595
4.26,-0.383,7.472,-3.114,-23.46,-0.192,8.047,3.066,-23.46,-1.726,8.34,4.026,46.921,-117.302,23.46
4.265,-0.575,7.137,-3.161,-11.73,-0.096,7.904,3.161,-11.73,-1.726,8.34,3.739,52.786,-117.302,35.191
4.2700000000000005,-0.479,7.808,-3.593,-0.0,-0.287,8.239,3.257,5.865,-1.726,8.628,3.883,58.651,-117.302,46.921
4.275,-0.192,7.951,-3.64,11.73,-0.287,8.143,3.593,23.46,-1.294,10.929,3.164,64.516,-123.167,52.786
4.28,-0.575,8.191,-3.88,17.595,0.383,8.239,3.736,35.191,-0.288,11.504,5.752,76.246,-134.897,52.786
4.285,-0.383,8.43,-4.263,23.46,1.102,8.143,3.88,41.056,-0.719,9.635,4.458,70.381,-134.897,52.786
4.29,-0.287,8.574,-4.455,17.595,1.485,8.047,4.359,41.056,-1.294,9.203,4.026,70.381,-134.897,52.786
4.295,-0.623,8.191,-4.694,11.73,1.677,7.951,4.646,35.191,-1.007,9.347,3.595,70.381,-134.897,46.921
4.3,-0.431,8.191,-4.694,11.73,1.006,7.904,4.598,29.326,-1.294,9.059,3.451,76.246,-140.762,41.056
4.305,-0.575,8.143,-4.694,11.73,0.575,7.76,4.598,23.46,-1.007,8.34,3.307,76.246,-152.493,29.326
4.3100000000000005,-0.383,7.999,-4.503,5.865,0.671,7.568,4.598,11.73,-0.719,8.34,3.451,70.381,-158.358,17.595
4.315,-0.575,7.616,-4.551,5.865,0.958,7.329,4.551,5.865,-0.719,8.34,3.451,70.381,-164.223,5.865
4.32,-1.054,7.377,-4.455,-0.0,1.341,7.137,4.598,5.865,-0.863,8.628,4.17,64.516,-170.088,0.0
4.325,-1.437,7.089,-4.359,-5.865,1.629,7.185,4.359,0.0,-0.575,8.484,4.17,58.651,-175.953,-11.73
4.33,-1.724,7.041,-4.263,-11.73,1.964,7.041,4.311,-5.865,-0.719,8.628,4.314,52.786,-175.953,-17.595
4.335,-1.724,7.233,-4.072,-23.46,1.964,6.898,4.167,-11.73,-0.719,8.628,4.745,52.786,-175.953,-17.595
4.34,-1.485,7.233,-4.072,-29.326,2.156,6.754,4.072,-17.595,-0.575,8.772,4.889,52.786,-181.818,-17.595
4.345,-1.485,7.329,-4.072,-35.191,1.964,6.658,3.976,-29.326,-0.863,8.772,4.889,52.786,-181.818,-11.73
4.3500000000000005,-1.15,7.281,-3.928,-35.191,1.772,6.61,3.976,-41.056,-0.719,8.628,4.889,52.786,-187.683,-11.73
4.355,-1.245,7.377,-3.497,-41.056,1.245,6.514,3.784,-46.921,-0.719,8.34,4.889,52.786,-193.548,-5.865
4.36,-1.293,7.137,-3.497,-41.056,0.623,6.562,3.401,-46.921,-0.719,8.197,4.745,52.786,-199.413,-5.865
4.365,-1.389,7.472,-3.832,-41.056,0.144,6.706,3.449,-52.786,-0.863,7.909,4.602,52.786,-199.413,0.0
4.37,-1.341,8.191,-3.928,-41.056,-0.24,7.089,3.784,-46.921,-1.15,7.909,4.602,52.786,-199.413,5.865
4.375,-1.245,8.862,-3.976,-41.056,-0.24,7.616,3.784,-46.921,-1.582,8.053,4.314,52.786,-199.413,11.73
4.38,-0.862,9.197,-3.832,-41.056,0.287,8.909,3.593,-35.191,-1.726,8.053,4.17,46.921,-193.548,17.595
4.385,-1.341,9.724,-4.119,-46.921,1.533,10.394,3.545,-41.056,-1.582,8.053,4.17,46.921,-193.548,23.46
4.39,-1.772,10.251,-3.784,-46.921,1.581,10.059,3.449,-58.651,-1.438,7.909,4.314,41.056,-193.548,29.326
4.3950000000000005,-1.437,10.394,-3.88,-52.786,3.64,9.867,3.401,-76.246,-1.438,8.053,4.314,41.056,-193.548,29.326
4.4,-1.964,10.873,-3.832,-58.651,6.323,10.49,3.545,-93.842,-1.438,8.053,3.883,29.326,-199.413,29.326
4.405,-2.826,11.113,-3.257,-64.516,6.131,11.209,3.784,-99.707,-1.438,8.197,3.739,23.46,-199.413,35.191
4.41,-3.018,11.304,-2.922,-70.381,5.03,11.783,2.922,-111.437,-1.438,8.34,3.883,5.865,-205.279,35.191
4.415,-2.635,11.065,-3.114,-76.246,4.646,11.879,2.874,-111.437,-1.438,8.628,4.17,5.865,-205.279,35.191
4.42,-2.539,10.921,-3.257,-76.246,3.832,11.783,3.114,-105.572,-1.438,9.203,4.17,0.0,-211.144,29.326
4.425,-2.203,10.49,-3.161,-70.381,3.305,11.592,3.257,-93.842,-1.438,9.635,4.026,0.0,-211.144,29.326
4.43,-2.203,10.442,-3.066,-70.381,2.778,11.496,3.161,-87.977,-1.15,10.066,3.883,-5.865,-217.009,35.191
4.4350000000000005,-1.916,10.299,-2.922,-64.516,2.635,11.448,2.922,-87.977,-1.438,10.354,3.739,-11.73,-217.009,41.056
4.44,-1.677,9.915,-2.73,-64.516,2.347,10.921,2.73,-82.111,-1.582,10.497,3.164,-5.865,-217.009,41.056
4.445,-1.629,9.58,-2.922,-58.651,2.635,10.682,2.922,-70.381,-1.726,11.073,3.883,-5.865,-217.009,41.056
4.45,-1.629,9.436,-3.066,-58.651,2.395,10.251,3.066,-70.381,-2.157,10.929,3.451,-5.865,-211.144,46.921
4.455,-1.533,9.149,-2.826,-52.786,2.395,10.107,3.018,-64.516,-2.301,11.073,3.02,-5.865,-211.144,46.921
4.46,-1.629,8.862,-2.97,-52.786,2.443,9.58,2.826,-64.516,-2.445,11.073,3.02,-5.865,-205.279,46.921
4.465,-1.964,6.802,-2.299,-46.921,3.209,5.509,3.018,-58.651,-2.301,10.785,3.164,0.0,-199.413,52.786
4.47,-2.06,6.658,-2.108,-46.921,6.467,3.832,2.491,-46.921,-2.301,10.641,3.02,5.865,-199.413,52.786
4.4750000000000005,-2.347,7.185,-2.203,-52.786,4.838,7.137,2.395,-64.516,-2.013,10.354,3.02,5.865,-199.413,52.786
4.48,-2.156,7.999,-2.156,-52.786,2.108,8.526,2.443,-87.977,-1.869,10.066,2.876,5.865,-193.548,46.921
4.485,-1.868,8.478,-2.012,-58.651,0.671,9.053,2.251,-93.842,-1.726,10.066,3.02,17.595,-193.548,46.921
4.49,-1.293,9.245,-2.395,-58.651,0.192,10.394,2.156,-87.977,-1.726,9.635,2.732,23.46,-193.548,41.056
4.495,-1.006,9.676,-3.018,-52.786,1.15,10.682,2.73,-76.246,-1.726,9.347,2.732,23.46,-193.548,41.056
4.5,-1.054,10.682,-3.161,-46.921,1.772,11.113,3.257,-70.381,-1.582,9.059,3.02,29.326,-187.683,35.191
4.505,-1.245,11.209,-3.449,-41.056,2.012,11.017,3.497,-58.651,-1.438,9.203,2.876,29.326,-187.683,35.191
4.51,-1.341,11.113,-3.64,-35.191,1.724,11.113,3.832,-52.786,-1.726,8.34,2.588,23.46,-181.818,29.326
4.515,-1.293,11.544,-3.257,-35.191,1.054,11.4,3.832,-41.056,-2.445,7.334,1.726,17.595,-175.953,29.326
4.5200000000000005,-1.054,12.215,-2.874,-35.191,0.383,12.023,4.024,-29.326,-2.301,7.478,2.301,23.46,-175.953,35.191
4.525,-1.245,12.598,-3.449,-35.191,1.102,12.55,4.311,-17.595,-2.157,7.621,2.157,17.595,-170.088,35.191
4.53,-1.437,12.31,-3.688,-29.326,2.251,13.077,3.88,-5.865,-2.013,8.197,2.013,5.865,-164.223,35.191
4.535,-1.629,12.741,-3.257,-29.326,2.635,13.891,3.257,5.865,-1.869,8.916,2.013,0.0,-164.223,35.191
4.54,-1.581,12.55,-3.066,-35.191,3.114,13.939,2.97,5.865,-1.582,10.066,2.013,0.0,-164.223,35.191
4.545,-2.395,12.598,-2.874,-46.921,3.449,14.37,2.203,5.865,-1.007,10.497,3.164,0.0,-164.223,29.326
4.55,-2.587,11.736,-3.209,-52.786,3.784,14.322,2.108,5.865,-1.15,11.073,3.164,0.0,-164.223,23.46
4.555,-2.778,11.065,-2.682,-64.516,3.976,14.178,1.964,0.0,-1.438,11.36,3.02,5.865,-164.223,17.595
4.5600000000000005,-3.018,10.203,-2.874,-76.246,3.736,12.933,2.347,0.0,-1.294,11.504,3.164,17.595,-164.223,17.595
4.565,-3.401,9.628,-2.874,-82.111,3.353,11.831,2.922,5.865,-1.294,11.792,2.876,29.326,-164.223,17.595
4.57,-3.449,9.724,-2.682,-93.842,3.401,10.921,2.97,0.0,-1.294,12.367,3.164,41.056,-164.223,17.595
4.575,-3.353,9.532,-2.682,-99.707,3.209,10.394,2.587,-11.73,-1.15,12.079,3.164,58.651,-164.223,23.46
4.58,-3.497,9.341,-2.73,-99.707,3.449,10.299,2.299,-11.73,-2.013,12.079,2.876,70.381,-164.223,23.46
4.585,-3.209,9.005,-2.778,-99.707,3.353,10.155,2.156,-5.865,-1.294,11.648,2.301,82.111,-158.358,35.191
4.59,-3.305,8.718,-2.347,-93.842,3.209,9.676,2.251,5.865,-1.726,11.504,2.445,93.842,-152.493,46.921
4.595,-3.401,8.143,-2.587,-82.111,3.018,8.718,2.97,11.73,-2.013,10.785,2.588,105.572,-146.628,58.651
4.6000000000000005,-3.114,7.664,-2.826,-76.246,3.209,7.664,3.209,23.46,-2.445,10.354,2.588,117.302,-134.897,64.516
4.605,-2.97,7.472,-2.539,-70.381,3.401,7.185,3.593,35.191,-2.588,9.922,2.301,129.032,-129.032,76.246
4.61,-2.587,7.951,-2.06,-58.651,2.73,8.67,3.784,46.921,-2.876,9.635,2.445,134.897,-123.167,82.111
4.615,-2.539,7.999,-2.778,-52.786,3.832,8.814,2.156,41.056,-2.876,9.347,2.157,140.762,-117.302,93.842
4.62,-2.395,7.472,-2.826,-52.786,3.305,7.52,3.64,29.326,-3.02,9.635,2.157,146.628,-105.572,99.707
4.625,-2.347,6.706,-2.874,-52.786,3.497,6.61,3.401,23.46,-3.02,9.635,2.157,146.628,-99.707,105.572
4.63,-3.114,6.514,-2.299,-52.786,3.114,6.371,3.449,23.46,-3.164,9.203,2.157,152.493,-93.842,105.572
4.635,-2.587,6.467,-2.587,-46.921,2.539,6.083,3.209,23.46,-3.02,9.059,2.301,146.628,-82.111,99.707
4.64,-2.443,7.041,-3.257,-46.921,2.874,6.323,3.401,23.46,-3.307,9.059,2.157,146.628,-82.111,93.842
4.6450000000000005,-2.108,7.425,-3.401,-52.786,3.257,6.514,3.449,29.326,-3.451,8.772,2.301,146.628,-76.246,82.111
4.65,-2.299,7.712,-3.64,-58.651,3.545,6.658,3.497,35.191,-3.451,8.484,2.301,140.762,-76.246,70.381
4.655,-2.539,7.904,-3.593,-58.651,3.88,6.61,3.401,29.326,-3.307,8.053,2.157,140.762,-76.246,58.651
4.66,-3.401,8.047,-3.688,-64.516,4.455,6.419,3.353,23.46,-2.876,8.197,2.157,134.897,-76.246,46.921
4.665,-3.784,7.616,-3.928,-70.381,5.03,6.227,3.018,23.46,-2.445,8.053,2.732,123.167,-82.111,41.056
4.67,-3.449,7.281,-3.736,-70.381,4.982,6.61,2.491,17.595,-2.732,7.334,2.445,117.302,-76.246,46.921
4.675,-3.401,6.898,-3.832,-70.381,6.993,6.083,-0.383,17.595,-2.588,7.19,2.588,117.302,-82.111,41.056
4.68,-3.449,6.754,-3.832,-70.381,5.365,8.478,2.826,23.46,-2.876,7.046,2.732,111.437,-76.246,35.191
4.6850000000000005,-3.161,6.706,-3.784,-70.381,5.413,7.999,3.161,29.326,-2.445,7.478,2.732,111.437,-70.381,35.191
4.69,-2.874,6.802,-3.88,-76.246,5.652,7.089,2.826,29.326,-2.013,7.765,3.02,111.437,-70.381,46.921
4.695,-2.73,6.802,-4.024,-82.111,5.748,6.658,2.778,29.326,-2.157,8.053,3.307,111.437,-64.516,52.786
4.7,-2.73,7.185,-4.119,-87.977,5.317,6.85,3.209,23.46,-2.445,8.34,3.164,111.437,-58.651,52.786
4.705,-2.587,7.137,-4.359,-87.977,5.413,6.802,3.305,23.46,-2.588,8.34,3.307,111.437,-46.921,58.651
4.71,-2.347,6.993,-4.407,-93.842,5.892,6.323,1.772,29.326,-3.02,8.34,3.451,105.572,-46.921,58.651
4.715,-2.012,7.137,-4.598,-93.842,6.227,6.706,2.06,29.326,-3.883,7.621,3.307,105.572,-46.921,58.651
4.72,-1.964,7.377,-4.742,-99.707,6.323,8.622,2.922,23.46,-4.026,7.046,3.164,99.707,-41.056,58.651
4.7250000000000005,-1.677,7.52,-4.79,-99.707,6.371,9.101,3.209,23.46,-3.595,7.046,3.451,99.707,-41.056,64.516
4.73,-1.629,7.377,-5.03,-105.572,5.988,8.191,3.401,29.326,-3.02,7.19,3.307,105.572,-41.056,70.381
4.735,-1.198,7.089,-4.982,-105.572,5.413,7.041,3.736,23.46,-2.876,7.19,3.451,105.572,-35.191,70.381
4.74,-1.245,6.946,-5.077,-99.707,5.173,7.089,3.114,29.326,-2.732,7.334,3.595,99.707,-29.326,70.381
4.745,-1.245,6.802,-5.03,-99.707,5.077,7.904,2.395,29.326,-2.588,7.478,3.595,99.707,-23.46,82.111
4.75,-1.629,6.993,-5.03,-99.707,5.317,8.574,2.251,29.326,-2.588,7.478,3.883,99.707,-23.46,82.111
4.755,-1.581,7.377,-4.934,-99.707,5.748,8.862,2.108,29.326,-2.588,7.621,4.026,99.707,-17.595,87.977
4.76,-0.671,7.472,-4.886,-105.572,6.467,8.718,2.203,35.191,-2.301,7.621,4.026,99.707,-11.73,87.977
4.765,-0.144,7.856,-4.503,-99.707,6.946,8.766,1.868,29.326,-2.013,7.478,4.17,99.707,-11.73,87.977
4.7700000000000005,0.0,8.574,-5.317,-87.977,7.329,8.478,1.581,29.326,-2.013,7.765,4.314,93.842,-5.865,87.977
4.775,-0.048,8.909,-5.125,-76.246,7.329,8.191,1.581,23.46,-2.013,8.197,4.458,93.842,-5.865,87.977
4.78,0.24,9.58,-5.652,-64.516,7.281,7.856,1.485,17.595,-2.157,8.053,4.602,87.977,-5.865,82.111
4.785,-0.096,9.532,-5.269,-52.786,7.137,7.856,1.437,11.73,-1.869,8.053,4.458,76.246,-5.865,76.246
4.79,-2.012,10.251,-4.503,-46.921,7.089,8.095,1.102,0.0,-1.582,8.053,4.458,70.381,-11.73,70.381
4.795,-1.293,10.586,-5.03,-35.191,6.898,8.67,0.958,-11.73,-1.007,7.909,4.602,58.651,-17.595,64.516
4.8,-0.383,9.772,-5.796,-23.46,6.754,9.197,1.054,-29.326,0.863,8.34,4.602,52.786,-35.191,52.786
4.805,-1.054,8.574,-6.131,-17.595,6.754,9.149,1.245,-52.786,1.15,8.772,5.033,52.786,-46.921,23.46
4.8100000000000005,-0.766,8.814,-6.323,-17.595,6.85,8.766,1.82,-70.381,0.431,9.059,5.177,52.786,-52.786,5.865
4.815,-0.24,9.101,-6.227,-23.46,7.041,8.143,2.299,-99.707,-0.144,9.059,4.745,58.651,-41.056,-5.865
4.82,-0.192,9.484,-6.467,-35.191,7.041,7.712,2.251,-123.167,-1.007,9.635,4.745,64.516,-35.191,-17.595
4.825,-0.766,9.005,-6.083,-52.786,6.993,7.329,1.916,-146.628,-1.294,9.922,4.602,64.516,-35.191,-41.056
4.83,-1.245,8.191,-6.227,-64.516,6.61,7.137,1.293,-170.088,-1.869,10.21,5.464,64.516,-35.191,-46.921
4.835,-1.389,7.904,-5.844,-76.246,5.892,7.329,0.814,-199.413,-2.157,10.21,5.896,64.516,-41.056,-52.786
4.84,-0.766,8.191,-5.748,-87.977,5.125,7.616,-0.144,-222.874,-2.876,8.772,4.026,58.651,-52.786,-52.786
4.845,-0.623,8.814,-5.844,-93.842,4.598,7.568,-0.623,-234.604,-2.157,8.197,2.876,29.326,-82.111,-64.516
4.8500000000000005,-0.623,9.484,-6.131,-99.707,4.311,7.52,-0.719,-228.739,-0.719,9.635,4.745,17.595,-99.707,-87.977
4.855,-0.24,9.867,-6.419,-99.707,4.072,7.712,-0.096,-217.009,-0.288,9.778,5.896,23.46,-99.707,-93.842
4.86,0.527,10.825,-6.946,-99.707,4.215,7.76,0.575,-205.279,-1.15,9.635,5.177,35.191,-82.111,-82.111
4.865,0.479,10.73,-6.754,-99.707,4.646,8.095,1.389,-193.548,-2.301,9.922,6.183,41.056,-64.516,-58.651
4.87,1.245,10.825,-6.754,-99.707,5.221,8.814,1.198,-181.818,-3.595,9.778,5.321,41.056,-46.921,-35.191
4.875,1.916,11.017,-6.946,-99.707,5.556,9.676,1.245,-181.818,-4.026,9.203,5.033,41.056,-29.326,-11.73
4.88,2.251,11.113,-7.185,-99.707,5.652,10.346,1.293,-181.818,-3.883,8.772,4.889,41.056,-17.595,11.73
4.885,2.395,10.825,-7.329,-99.707,5.509,11.688,1.341,-187.683,-3.739,8.772,5.033,52.786,-11.73,29.326
4.89,2.778,10.442,-7.089,-99.707,4.982,12.933,0.383,-193.548,-2.876,9.347,5.464,52.786,0.0,46.921
4.8950000000000005,3.114,10.778,-6.61,-99.707,4.359,14.274,0.527,-205.279,-2.301,9.922,5.464,52.786,17.595,58.651
4.9,3.161,10.49,-6.227,-105.572,4.072,13.747,0.431,-211.144,-2.013,10.354,6.183,52.786,29.326,64.516
4.905,3.257,10.155,-6.131,-117.302,4.503,12.406,0.287,-217.009,-2.301,10.354,6.471,46.921,41.056,70.381
4.91,3.305,10.251,-5.94,-129.032,4.838,11.257,1.245,-234.604,-1.726,11.073,7.046,41.056,58.651,70.381
4.915,3.401,9.436,-5.461,-140.762,4.263,10.921,1.82,-263.93,-1.294,11.36,7.19,35.191,64.516,76.246
4.92,3.257,8.957,-5.7,-146.628,3.832,10.394,2.587,-287.39,-0.863,11.216,7.334,41.056,70.381,70.381
4.925,3.497,8.814,-5.173,-146.628,2.299,11.448,2.443,-287.39,-0.431,11.504,7.19,41.056,76.246,70.381
4.93,3.066,8.814,-4.79,-146.628,2.635,9.628,-0.719,-275.66,0.0,10.929,7.19,46.921,82.111,70.381
4.9350000000000005,2.491,8.622,-4.742,-146.628,1.581,9.101,0.766,-269.795,0.288,10.929,6.759,52.786,87.977,64.516
4.94,2.156,8.574,-4.694,-146.628,0.192,9.005,1.916,-263.93,0.431,10.641,6.902,52.786,87.977,64.516
4.945,2.299,8.335,-4.694,-146.628,-0.623,8.383,1.581,-240.469,0.575,10.641,6.902,58.651,87.977,70.381
4.95,2.587,8.047,-4.646,-146.628,-0.671,7.616,-0.431,-211.144,0.575,10.641,6.759,64.516,87.977,70.381
4.955,3.353,8.143,-4.886,-146.628,-0.431,7.041,1.437,-170.088,0.575,10.066,6.615,64.516,93.842,76.246
4.96,2.922,7.856,-4.407,-146.628,-0.096,5.7,3.928,-129.032,0.719,9.778,6.471,64.516,93.842,82.111
4.965,3.497,8.478,-5.317,-152.493,0.192,4.263,4.742,-82.111,0.863,9.778,3.883,64.516,99.707,87.977
4.97,3.545,8.862,-4.407,-140.762,0.479,2.443,4.838,-23.46,0.863,9.778,4.889,35.191,93.842,87.977
4.9750000000000005,3.976,9.005,-4.646,-129.032,1.293,1.485,2.826,41.056,0.719,9.203,5.321,29.326,76.246,93.842
4.98,4.359,8.909,-4.79,-111.437,0.814,5.317,1.341,105.572,0.575,9.059,5.464,29.326,64.516,93.842
4.985,4.215,8.766,-4.742,-99.707,2.347,15.903,1.293,146.628,0.575,9.635,4.745,23.46,64.516,87.977
4.99,4.072,8.574,-4.934,-87.977,1.629,15.903,-0.91,70.381,0.431,9.203,4.745,0.0,52.786,87.977
4.995,4.167,8.574,-4.838,-76.246,0.766,14.035,-3.018,-58.651,0.288,8.772,5.033,-11.73,41.056,76.246
5.0,3.928,8.574,-5.413,-64.516,0.575,15.28,-6.467,-129.032,0.144,8.484,5.321,-23.46,29.326,76.246
5.005,3.257,8.622,-5.748,-58.651,1.341,18.058,-10.586,-134.897,0.0,7.909,5.177,-29.326,17.595,70.381
5.01,3.305,8.526,-4.838,-58.651,0.431,18.106,-13.987,-99.707,-1.007,9.635,2.445,-23.46,5.865,70.381
5.015,2.922,8.143,-4.598,-58.651,0.766,12.023,-16.334,-64.516,0.288,10.066,4.17,-29.326,-11.73,70.381
5.0200000000000005,2.682,7.904,-4.934,-52.786,2.251,5.94,-13.747,-52.786,0.863,9.778,4.745,-29.326,-23.46,58.651
5.025,2.635,7.329,-5.221,-52.786,3.161,0.862,-8.718,-46.921,0.719,9.635,4.745,-29.326,-29.326,46.921
5.03,2.539,6.993,-4.742,-58.651,2.012,1.724,-6.227,-58.651,0.863,9.778,4.889,-29.326,-35.191,41.056
5.035,2.539,6.61,-4.551,-58.651,1.245,6.275,-3.976,-82.111,0.863,9.922,5.177,-23.46,-41.056,29.326
5.04,2.347,6.371,-4.886,-58.651,-0.287,7.904,-3.497,-105.572,0.575,9.922,5.321,-17.595,-46.921,29.326
5.045,2.06,6.179,-4.838,-64.516,-1.341,7.856,-4.646,-111.437,1.007,9.635,5.608,-17.595,-52.786,29.326
5.05,1.916,5.796,-4.455,-70.381,-0.287,7.951,-4.503,-105.572,0.863,9.347,6.183,-11.73,-52.786,35.191
5.055,1.581,5.556,-4.072,-70.381,0.431,7.664,-3.64,-105.572,-0.144,8.772,5.608,-5.865,-52.786,46.921
5.0600000000000005,1.15,5.509,-3.545,-70.381,0.814,7.712,-3.497,-111.437,0.0,8.484,5.033,-5.865,-58.651,46.921
5.065,1.006,5.317,-3.353,-70.381,0.958,7.904,-3.688,-111.437,0.288,8.053,5.033,0.0,-58.651,52.786
5.07,0.671,5.365,-4.407,-64.516,0.623,7.329,-3.784,-117.302,0.575,7.909,5.321,5.865,-58.651,52.786
5.075,0.479,5.461,-4.072,-76.246,0.383,6.802,-3.832,-111.437,0.0,7.334,5.464,23.46,-52.786,58.651
5.08,-0.24,5.461,-2.108,-82.111,0.24,6.227,-3.688,-111.437,0.0,6.615,5.033,23.46,-52.786,64.516
5.085,0.623,5.125,-3.114,-82.111,0.192,6.131,-3.449,-111.437,0.288,6.327,5.033,23.46,-64.516,64.516
5.09,0.527,5.604,-3.545,-82.111,-0.096,6.083,-3.114,-105.572,0.575,5.896,5.321,35.191,-58.651,70.381
5.095,0.91,5.892,-4.503,-82.111,-0.287,5.652,-3.209,-93.842,0.288,5.896,5.033,46.921,-52.786,76.246
5.1000000000000005,0.719,5.988,-4.455,-82.111,-0.24,5.125,-3.401,-76.246,-0.144,6.183,4.314,46.921,-52.786,76.246
5.105,0.719,6.131,-2.443,-82.111,0.048,4.263,-3.161,-58.651,0.0,5.752,4.026,46.921,-58.651,76.246
5.11,1.006,5.461,-3.497,-76.246,0.862,3.449,-2.97,-46.921,-1.15,5.752,3.451,41.056,-64.516,76.246
5.115,0.671,5.461,-3.353,-64.516,1.341,3.161,-3.688,-35.191,-1.007,4.889,3.595,35.191,-76.246,76.246
5.12,0.335,5.461,-3.161,-46.921,1.437,3.401,-4.311,-35.191,-0.719,4.458,4.458,46.921,-70.381,82.111
5.125,0.192,5.269,-3.114,-29.326,1.485,3.736,-4.455,-29.326,-1.438,5.177,3.883,58.651,-58.651,87.977
5.13,0.671,4.503,-4.455,-11.73,1.341,3.784,-4.407,-35.191,-1.726,5.321,3.883,52.786,-70.381,87.977
5.135,0.479,4.263,-5.365,11.73,1.102,3.928,-4.311,-41.056,-2.013,5.177,3.307,41.056,-87.977,93.842
5.14,-0.479,4.694,-6.131,17.595,1.102,3.88,-4.455,-35.191,-1.726,5.321,3.307,41.056,-99.707,99.707
5.1450000000000005,-0.527,5.604,-6.61,17.595,1.293,3.976,-4.598,-35.191,-1.438,5.177,3.595,52.786,-99.707,111.437
5.15,-0.383,6.179,-7.185,5.865,1.533,4.119,-4.934,-29.326,-2.013,5.752,3.307,70.381,-87.977,117.302
5.155,-0.958,6.898,-6.946,-11.73,2.108,4.263,-5.125,-23.46,-2.301,5.896,3.595,58.651,-105.572,117.302
5.16,-1.102,6.562,-6.275,-29.326,2.826,4.072,-5.748,-17.595,-2.013,5.752,3.595,41.056,-140.762,117.302
5.165,-0.287,6.179,-5.269,-35.191,2.587,4.215,-5.461,-17.595,-2.013,5.464,3.307,23.46,-170.088,117.302
5.17,0.335,5.988,-4.742,-46.921,2.203,4.407,-5.509,-23.46,-1.869,5.321,3.883,5.865,-205.279,117.302
5.175,0.575,6.035,-4.646,-52.786,2.299,4.694,-5.892,-23.46,-1.438,4.889,4.17,-17.595,-246.334,117.302
5.18,0.671,6.419,-4.598,-52.786,2.682,4.886,-6.658,-17.595,-1.438,4.889,4.602,-17.595,-275.66,111.437
5.1850000000000005,0.479,6.706,-4.742,-58.651,2.826,5.173,-6.419,-11.73,-0.719,5.033,5.177,-5.865,-269.795,105.572
5.19,0.335,6.993,-4.982,-64.516,2.97,5.125,-5.892,0.0,0.288,5.033,6.04,23.46,-240.469,93.842
5.195,0.287,7.041,-5.221,-70.381,3.018,5.125,-5.413,5.865,0.575,4.745,6.759,58.651,-199.413,70.381
5.2,0.24,7.041,-5.652,-82.111,3.018,5.365,-5.509,5.865,0.288,4.602,7.046,93.842,-140.762,46.921
5.205,0.575,6.85,-6.179,-87.977,2.73,5.7,-5.844,0.0,-0.431,5.177,7.19,117.302,-76.246,29.326
5.21,0.766,6.706,-6.467,-87.977,2.395,5.7,-5.988,0.0,-1.438,5.464,7.19,129.032,-29.326,23.46
5.215,1.341,6.371,-6.61,-82.111,2.491,5.604,-6.227,5.865,-2.013,5.752,6.902,123.167,-11.73,23.46
5.22,1.293,6.371,-6.706,-70.381,2.012,5.509,-6.467,5.865,-2.013,5.896,6.615,111.437,-5.865,35.191
5.2250000000000005,1.245,6.323,-6.946,-58.651,1.677,5.748,-6.754,11.73,-1.438,5.896,6.471,93.842,-11.73,46.921
5.23,1.293,6.419,-7.137,-46.921,1.581,5.796,-6.993,17.595,-1.007,5.896,6.183,87.977,-23.46,58.651
5.235,1.437,6.562,-7.281,-35.191,1.293,6.035,-7.377,29.326,-0.575,5.896,6.04,82.111,-29.326,58.651
5.24,1.629,6.61,-7.472,-23.46,1.293,6.371,-7.568,35.191,-0.575,6.04,6.04,87.977,-35.191,52.786
5.245,1.868,6.562,-7.616,-17.595,1.15,6.61,-7.712,41.056,-0.719,6.04,6.04,93.842,-29.326,46.921
5.25,2.012,6.706,-7.616,-11.73,0.719,7.185,-7.856,46.921,-1.007,6.04,6.04,99.707,-29.326,41.056
5.255,2.012,6.61,-7.425,-0.0,0.431,7.233,-8.143,46.921,-1.15,5.752,6.471,111.437,-23.46,41.056
5.26,2.299,6.754,-7.137,-0.0,0.144,7.281,-8.718,46.921,-1.438,5.752,6.902,117.302,-17.595,41.056
5.265,2.203,6.706,-7.185,5.865,-0.479,6.514,-8.287,52.786,-1.15,5.752,7.19,123.167,-11.73,46.921
5.2700000000000005,2.251,7.329,-6.993,-0.0,0.144,7.281,-9.005,58.651,-0.863,5.752,7.621,123.167,-11.73,46.921
5.275,1.964,7.377,-7.377,-5.865,0.144,8.095,-9.101,64.516,-0.431,5.752,7.909,123.167,-5.865,52.786
5.28,1.677,7.664,-7.472,-11.73,-0.048,6.993,-9.58,82.111,-0.288,5.896,8.197,123.167,-5.865,46.921
5.285,1.485,7.616,-7.664,-23.46,-0.144,6.514,-9.532,93.842,-0.288,5.752,8.484,117.302,0.0,41.056
5.29,1.293,7.52,-7.808,-35.191,-0.192,6.754,-9.676,99.707,0.0,5.752,8.628,111.437,0.0,35.191
5.295,1.102,7.377,-7.951,-52.786,-0.431,6.706,-9.532,105.572,0.0,5.608,8.34,111.437,0.0,35.191
5.3,1.437,7.137,-8.047,-70.381,-0.479,6.706,-9.436,111.437,0.288,5.608,8.34,111.437,5.865,35.191
5.305,1.15,6.61,-7.999,-87.977,0.335,7.185,-9.436,123.167,0.575,5.752,8.197,117.302,0.0,29.326
5.3100000000000005,2.826,6.754,-8.143,-105.572,-0.048,7.377,-9.388,117.302,0.719,5.608,8.484,123.167,0.0,23.46
5.315,3.257,6.131,-8.862,-117.302,0.048,7.137,-9.724,111.437,0.719,5.464,8.628,123.167,-5.865,23.46
5.32,3.209,6.467,-9.628,-111.437,0.287,6.802,-10.059,105.572,0.575,5.321,8.916,129.032,-11.73,23.46
5.325,3.353,6.85,-10.059,-105.572,0.096,6.562,-10.73,99.707,0.575,5.033,9.347,134.897,-11.73,29.326
5.33,3.545,6.562,-10.394,-93.842,0.048,6.514,-11.257,87.977,0.575,5.033,9.778,134.897,-17.595,29.326
5.335,3.784,6.419,-10.346,-87.977,0.048,6.514,-11.448,76.246,0.719,5.177,10.066,129.032,-23.46,41.056
5.34,4.119,6.419,-10.299,-76.246,-0.24,6.371,-11.688,70.381,0.863,5.752,10.21,117.302,-29.326,41.056
5.345,4.455,6.035,-10.251,-70.381,-0.575,6.419,-11.783,70.381,1.15,5.896,10.497,111.437,-29.326,46.921
5.3500000000000005,4.551,5.604,-10.394,-58.651,-0.862,6.562,-11.736,70.381,1.294,6.327,10.929,99.707,-29.326,46.921
5.355,4.551,5.365,-10.586,-52.786,-1.006,6.754,-11.736,76.246,1.15,6.471,10.929,93.842,-35.191,46.921
5.36,4.167,5.03,-10.73,-46.921,-1.341,6.898,-11.352,70.381,1.582,6.471,11.648,82.111,-41.056,46.921
5.365,4.072,4.311,-10.538,-41.056,-1.293,7.041,-11.065,70.381,1.582,6.615,11.648,70.381,-41.056,46.921
5.37,4.072,4.311,-10.203,-35.191,-1.245,7.233,-10.778,58.651,1.726,6.04,11.792,58.651,-41.056,41.056
5.375,3.736,4.551,-9.82,-29.326,-1.102,7.425,-10.49,52.786,1.726,6.183,11.792,41.056,-41.056,35.191
5.38,3.305,5.03,-9.532,-29.326,-1.15,7.472,-10.538,46.921,1.726,6.183,11.36,29.326,-41.056,35.191
5.385,2.826,4.503,-9.245,-29.326,-0.862,7.281,-10.825,41.056,2.013,6.183,11.216,29.326,-41.056,29.326
5.39,2.491,4.79,-8.909,-35.191,-0.766,6.754,-10.921,35.191,2.157,5.896,10.929,23.46,-41.056,29.326
5.3950000000000005,2.443,4.167,-8.67,-41.056,-0.671,6.658,-10.73,35.191,2.301,5.752,10.785,17.595,-46.921,23.46
5.4,2.108,4.551,-8.718,-46.921,-0.431,6.61,-10.394,35.191,2.301,5.321,10.785,5.865,-52.786,23.46
5.405,2.06,5.125,-8.574,-52.786,-0.192,6.658,-10.059,35.191,2.445,4.745,10.785,5.865,-58.651,17.595
5.41,2.203,4.503,-8.526,-58.651,0.24,6.898,-9.676,35.191,2.157,4.602,10.641,5.865,-64.516,23.46
5.415,2.012,4.646,-8.622,-58.651,0.527,7.089,-9.293,35.191,2.301,4.314,10.497,0.0,-64.516,23.46
5.42,2.156,4.646,-8.287,-58.651,0.814,7.329,-8.862,41.056,2.445,3.883,10.21,0.0,-70.381,29.326
5.425,2.108,4.551,-8.095,-64.516,1.15,7.472,-8.526,41.056,2.445,3.307,10.066,-5.865,-70.381,29.326
5.43,2.108,4.407,-7.951,-64.516,1.341,7.664,-8.143,41.056,2.013,3.739,9.922,-11.73,-70.381,35.191
5.4350000000000005,2.251,4.598,-7.856,-76.246,1.724,7.712,-8.143,46.921,1.726,3.595,9.778,-17.595,-70.381,46.921
5.44,2.156,4.742,-8.095,-82.111,1.964,7.425,-8.143,46.921,1.438,4.17,9.635,-17.595,-64.516,52.786
5.445,2.443,5.077,-7.951,-93.842,2.203,7.137,-8.047,52.786,1.438,4.17,9.203,-17.595,-64.516,64.516
5.45,3.401,5.413,-7.904,-99.707,2.108,6.898,-7.951,58.651,1.582,3.739,9.491,-17.595,-58.651,70.381
5.455,4.359,5.844,-8.047,-105.572,1.964,6.898,-7.904,64.516,1.438,4.17,9.635,-23.46,-52.786,70.381
5.46,4.598,6.514,-8.047,-93.842,1.772,6.946,-7.951,70.381,1.438,4.458,9.347,-23.46,-52.786,76.246
5.465,4.886,7.281,-7.664,-82.111,1.677,6.754,-7.951,70.381,1.438,4.314,9.491,-29.326,-41.056,76.246
5.47,5.173,7.329,-8.383,-76.246,1.581,6.275,-8.095,64.516,1.869,4.314,9.347,-29.326,-35.191,76.246
5.4750000000000005,5.03,7.425,-7.999,-76.246,1.533,5.461,-7.951,58.651,1.582,4.602,9.203,-41.056,-35.191,76.246
5.48,5.509,7.568,-7.616,-82.111,1.724,4.982,-7.664,52.786,1.726,4.745,9.347,-46.921,-29.326,70.381
5.485,6.275,7.041,-8.67,-87.977,1.916,4.551,-7.281,52.786,1.582,4.889,9.347,-58.651,-29.326,70.381
5.49,5.509,6.754,-8.047,-87.977,1.724,4.072,-7.089,52.786,1.869,4.889,9.203,-64.516,-29.326,70.381
5.495,5.413,6.706,-8.047,-87.977,1.964,3.545,-6.754,52.786,1.869,5.033,9.203,-70.381,-29.326,70.381
5.5,5.269,6.035,-8.287,-87.977,1.964,3.161,-6.179,46.921,2.013,5.177,8.916,-76.246,-23.46,70.381
5.505,4.742,6.61,-7.281,-93.842,2.491,2.97,-5.844,46.921,2.157,5.608,8.916,-82.111,-23.46,70.381
5.51,3.161,7.329,-6.083,-105.572,1.677,2.443,-5.461,41.056,2.301,6.183,9.059,-76.246,-23.46,70.381
5.515,3.88,5.748,-7.616,-123.167,1.198,2.203,-4.838,29.326,2.588,6.615,9.347,-76.246,-23.46,64.516
5.5200000000000005,3.161,4.646,-7.616,-111.437,4.503,1.916,-3.64,23.46,2.588,6.615,9.347,-64.516,-23.46,64.516
5.525,2.778,4.215,-6.946,-93.842,2.299,1.581,-3.976,41.056,3.02,6.471,9.635,-52.786,-29.326,64.516
5.53,2.635,5.221,-5.892,-82.111,3.497,2.73,-3.688,46.921,3.307,6.327,9.491,-35.191,-35.191,64.516
5.535,3.88,3.593,-5.509,-76.246,2.778,2.491,-3.593,46.921,3.02,5.896,9.347,-17.595,-46.921,58.651
5.54,3.64,3.545,-5.269,-70.381,2.635,2.347,-3.593,41.056,2.876,5.608,9.203,-5.865,-58.651,58.651
5.545,2.922,3.784,-5.125,-64.516,2.922,2.203,-3.593,35.191,2.588,5.608,9.203,0.0,-70.381,58.651
5.55,2.443,4.407,-4.838,-64.516,3.449,2.251,-3.593,35.191,2.157,5.177,8.053,17.595,-76.246,70.381
5.555,1.964,5.173,-4.886,-58.651,3.401,2.299,-3.784,35.191,2.157,5.033,7.478,35.191,-82.111,76.246
5.5600000000000005,1.485,5.988,-4.503,-58.651,3.497,2.826,-4.024,35.191,2.301,5.177,7.909,52.786,-93.842,82.111
5.565,1.772,6.323,-3.88,-58.651,3.593,2.682,-4.598,35.191,1.15,4.889,7.621,64.516,-87.977,87.977
5.57,1.82,5.748,-3.832,-58.651,3.928,2.778,-4.982,35.191,0.575,4.314,6.615,64.516,-76.246,82.111
5.575,1.724,6.035,-3.593,-64.516,4.167,2.97,-5.221,35.191,1.294,4.026,6.183,58.651,-76.246,76.246
5.58,2.203,5.125,-3.88,-70.381,4.167,3.018,-5.413,35.191,1.869,4.314,6.183,58.651,-87.977,70.381
5.585,1.054,6.179,-3.88,-70.381,4.072,3.161,-5.604,35.191,2.013,4.458,6.327,52.786,-105.572,58.651
5.59,0.862,6.227,-3.976,-76.246,3.976,3.257,-5.796,35.191,1.438,4.458,6.183,46.921,-123.167,58.651
5.595,1.245,5.748,-4.359,-76.246,3.64,3.257,-6.083,35.191,0.719,4.314,5.896,46.921,-129.032,46.921
5.6000000000000005,1.724,5.365,-4.503,-70.381,3.353,3.353,-6.179,35.191,0.288,4.17,6.04,46.921,-129.032,46.921
5.605,1.677,5.317,-4.503,-64.516,3.066,3.545,-6.227,29.326,-0.288,4.026,5.321,52.786,-129.032,46.921
5.61,1.772,5.556,-4.455,-58.651,2.73,3.64,-6.179,23.46,0.0,4.458,5.752,52.786,-123.167,52.786
5.615,1.82,5.844,-4.455,-58.651,2.443,3.832,-6.419,17.595,-0.431,5.033,5.177,64.516,-123.167,58.651
5.62,1.341,6.514,-4.455,-52.786,2.299,3.736,-6.467,5.865,-0.144,4.889,5.321,76.246,-117.302,70.381
5.625,1.629,6.083,-4.598,-46.921,2.395,3.593,-6.467,0.0,-0.431,5.177,5.321,87.977,-105.572,70.381
5.63,1.15,6.85,-4.79,-46.921,2.778,3.593,-6.419,-5.865,-0.288,4.458,5.896,99.707,-93.842,70.381
5.635,1.245,6.85,-4.646,-41.056,3.161,3.928,-6.514,-11.73,0.0,4.026,6.327,105.572,-82.111,70.381
5.64,1.15,7.281,-4.79,-35.191,3.64,4.598,-6.562,-17.595,-0.431,4.458,6.04,99.707,-76.246,70.381
5.6450000000000005,1.15,7.616,-4.694,-35.191,4.024,5.173,-6.754,-11.73,-0.431,4.745,6.04,99.707,-76.246,70.381
5.65,1.533,7.281,-4.694,-29.326,4.215,5.652,-6.946,-11.73,-0.575,5.033,5.896,93.842,-70.381,70.381
5.655,1.485,7.856,-4.886,-29.326,4.359,6.179,-7.089,-5.865,-0.288,4.889,6.183,87.977,-64.516,70.381
5.66,1.772,8.047,-4.982,-29.326,4.263,6.514,-7.137,0.0,-0.575,5.177,6.04,82.111,-64.516,64.516
5.665,1.916,8.43,-5.077,-29.326,4.167,6.946,-7.377,0.0,-0.575,5.177,6.04,76.246,-64.516,58.651
5.67,2.156,8.766,-5.173,-29.326,3.976,6.946,-7.568,5.865,-0.719,5.464,6.183,64.516,-64.516,58.651
5.675,2.395,8.957,-5.413,-23.46,3.449,6.946,-7.712,11.73,-0.863,5.464,6.327,58.651,-70.381,52.786
5.68,2.635,9.436,-5.652,-17.595,3.114,6.802,-7.856,11.73,-1.15,5.752,6.615,52.786,-64.516,46.921
5.6850000000000005,2.922,9.82,-5.748,-11.73,3.066,6.706,-7.76,11.73,-1.15,5.752,6.615,52.786,-64.516,41.056
5.69,3.161,9.628,-5.988,-11.73,3.305,6.562,-7.712,17.595,-0.863,5.752,6.759,46.921,-58.651,35.191
5.695,3.257,9.82,-6.275,-5.865,3.545,6.371,-7.616,17.595,-1.294,6.04,7.046,41.056,-58.651,35.191
5.7,3.593,10.011,-6.467,5.865,3.593,6.179,-7.425,29.326,-1.15,6.183,7.19,41.056,-52.786,35.191
5.705,4.072,9.341,-6.562,11.73,3.449,6.131,-7.089,29.326,-1.15,6.759,7.19,41.056,-52.786,35.191
5.71,4.072,9.245,-6.706,17.595,3.114,5.988,-6.706,35.191,-0.863,6.902,7.478,35.191,-46.921,29.326
5.715,3.832,9.005,-6.85,23.46,2.778,5.7,-6.371,35.191,-1.007,7.19,7.765,29.326,-41.056,29.326
5.72,3.832,8.862,-6.898,29.326,2.922,5.461,-6.419,41.056,-0.863,7.478,8.053,29.326,-41.056,29.326
5.7250000000000005,3.257,8.862,-6.802,29.326,2.682,5.413,-6.275,41.056,-0.719,7.909,8.197,23.46,-35.191,23.46
5.73,2.922,8.526,-6.371,29.326,2.826,5.461,-6.083,46.921,-0.719,8.053,8.34,23.46,-35.191,17.595
5.735,2.539,8.335,-6.371,35.191,2.826,5.94,-6.035,46.921,-0.719,8.34,8.484,23.46,-35.191,11.73
5.74,2.108,8.239,-6.179,35.191,2.778,6.562,-5.748,46.921,-0.431,8.197,8.772,23.46,-35.191,5.865
5.745,1.677,8.095,-6.179,35.191,3.018,7.425,-5.94,46.921,-0.288,7.909,8.772,23.46,-35.191,0.0
5.75,1.772,8.718,-6.083,41.056,3.114,8.191,-6.083,46.921,0.0,8.053,9.059,23.46,-35.191,-5.865
5.755,1.245,8.909,-6.179,46.921,3.449,8.957,-6.083,52.786,0.144,7.909,9.059,23.46,-35.191,-11.73
5.76,0.766,8.478,-7.999,46.921,4.024,10.059,-7.041,58.651,0.144,7.765,9.203,23.46,-35.191,-17.595
5.765,1.868,9.772,-8.047,41.056,4.167,10.825,-7.472,64.516,0.575,7.478,9.059,29.326,-41.056,-17.595
5.7700000000000005,3.066,10.203,-9.341,52.786,4.359,12.646,-7.185,64.516,0.0,7.19,9.059,29.326,-46.921,-23.46
5.775,0.431,11.496,-1.964,58.651,2.491,14.035,-6.754,52.786,0.0,6.902,8.916,29.326,-46.921,-17.595
5.78,3.401,10.346,-7.425,11.73,1.964,11.304,-8.239,41.056,-0.144,6.902,8.628,23.46,-46.921,-23.46
5.785,4.886,9.053,-9.915,11.73,3.305,10.155,-8.622,46.921,-0.288,6.759,8.484,23.46,-41.056,-23.46
5.79,4.359,8.909,-10.155,23.46,3.976,12.167,-9.005,58.651,-0.431,6.759,8.484,17.595,-41.056,-23.46
5.795,3.545,7.041,-11.113,35.191,-0.479,11.017,-10.442,46.921,-0.719,6.615,8.772,5.865,-29.326,-23.46
5.8,5.461,5.796,-10.778,52.786,2.108,10.969,-9.58,52.786,-0.575,7.19,9.059,5.865,-17.595,-35.191
5.805,3.449,6.658,-10.346,58.651,-0.479,9.963,-10.203,41.056,-0.575,6.902,9.347,0.0,-5.865,-41.056
5.8100000000000005,2.682,8.239,-11.879,70.381,1.102,9.245,-10.059,35.191,-0.719,5.464,10.354,0.0,5.865,-41.056
5.815,-2.73,15.424,2.539,82.111,1.15,10.059,-5.94,35.191,-3.595,4.889,9.347,0.0,23.46,-35.191
5.82,2.922,14.37,0.431,-35.191,6.131,12.837,-3.64,17.595,2.588,8.197,12.511,5.865,35.191,0.0
5.825,3.545,13.747,-9.149,-117.302,-0.814,11.304,-1.198,-5.865,0.863,9.059,12.367,5.865,41.056,0.0
5.83,0.431,11.783,-9.436,-70.381,1.389,7.185,-2.347,17.595,1.007,7.046,9.635,29.326,46.921,-29.326
5.835,1.15,7.856,-7.425,-17.595,5.988,9.053,-3.209,82.111,0.0,6.759,12.223,35.191,58.651,-41.056
5.84,2.539,7.568,-7.281,-0.0,5.652,12.023,-4.79,111.437,-0.719,6.471,12.367,46.921,52.786,-41.056
5.845,3.018,6.993,-8.43,-0.0,0.766,13.077,-2.97,99.707,2.301,5.464,12.367,23.46,35.191,-46.921
5.8500000000000005,2.539,4.215,-9.915,5.865,-0.383,11.975,-4.024,99.707,1.294,5.752,11.073,5.865,11.73,-52.786
5.855,0.91,4.311,-8.43,41.056,0.623,9.82,-4.646,93.842,-3.164,4.745,9.491,-5.865,0.0,-58.651
5.86,0.766,5.509,-7.712,46.921,1.245,10.011,-5.173,82.111,-0.719,8.053,9.491,-17.595,0.0,-41.056
5.865,-0.719,5.365,-6.85,41.056,0.24,10.73,-5.988,76.246,6.759,11.216,14.811,5.865,-5.865,29.326
5.87,0.287,5.269,-6.946,29.326,-1.293,11.304,-6.993,70.381,-1.438,8.34,7.478,64.516,-11.73,29.326
5.875,0.24,5.94,-6.227,23.46,-0.623,10.969,-7.856,58.651,-3.02,6.759,8.772,82.111,11.73,-5.865
5.88,0.048,6.658,-5.604,23.46,0.048,10.203,-8.909,46.921,-3.739,8.628,10.641,99.707,58.651,-5.865
5.885,9.005,16.669,3.449,17.595,-0.479,10.442,-9.58,35.191,-3.307,8.484,9.491,82.111,58.651,-11.73
5.89,0.671,9.915,-7.281,52.786,0.623,8.909,-6.179,29.326,-0.863,7.765,9.059,46.921,29.326,-5.865
5.8950000000000005,-0.719,8.957,-5.221,41.056,-0.096,11.544,-8.047,11.73,0.719,5.752,10.929,23.46,11.73,-11.73
5.9,1.437,6.993,-3.928,-0.0,-1.964,9.436,-6.898,5.865,-2.876,5.752,5.896,-17.595,5.865,-52.786
5.905,0.766,6.371,-4.407,-5.865,-1.437,9.149,-8.43,0.0,0.0,4.889,9.203,-46.921,-5.865,-70.381
5.91,1.245,5.269,-6.035,-0.0,-1.868,9.245,-7.664,-5.865,-1.582,4.745,9.203,-58.651,-17.595,-70.381
5.915,2.73,4.598,-6.754,-5.865,-1.485,9.867,-8.526,0.0,-1.294,4.026,7.765,-82.111,-23.46,-58.651
5.92,2.299,5.125,-6.035,-0.0,-0.192,10.155,-7.951,0.0,-0.575,3.595,7.765,-99.707,-17.595,-52.786
5.925,0.144,4.694,-6.706,5.865,0.287,10.442,-7.856,5.865,-0.575,4.314,8.484,-111.437,-11.73,-52.786
5.93,-1.006,4.694,-6.946,5.865,-0.096,10.682,-8.191,11.73,-0.719,4.602,8.484,-111.437,-5.865,-46.921
5.9350000000000005,1.677,5.077,-5.413,-5.865,0.383,10.299,-7.856,17.595,-1.438,7.909,7.334,-111.437,5.865,-52.786
5.94,4.024,4.359,-4.551,5.865,0.096,9.484,-6.61,29.326,-1.294,8.053,8.916,-93.842,11.73,-46.921
