time_aligned_sec,L_Acc_X_aligned,L_Acc_Y_aligned,L_Acc_Z_aligned,L_Gyro_Z_aligned,R_Acc_X_aligned,R_Acc_Y_aligned,R_Acc_Z_aligned,R_Gyro_Z_aligned,T_Acc_X_aligned,T_Acc_Y_aligned,T_Acc_Z_aligned,T_Gyro_X_aligned,T_Gyro_Y_aligned,T_Gyro_Z_aligned
0.0,0.958,9.484,2.012,58.651,-2.012,10.011,-1.964,0.0,2.732,9.203,-1.869,0.0,11.73,-41.056
0.005,1.389,9.532,1.964,58.651,-0.862,9.82,-1.245,17.595,1.726,9.347,-1.007,5.865,5.865,-58.651
0.01,1.341,9.532,1.916,58.651,0.144,9.676,-1.677,29.326,1.294,9.203,-2.013,5.865,0.0,-64.516
0.015,0.91,9.772,1.916,58.651,0.623,9.867,-1.437,35.191,1.294,9.922,-1.869,0.0,-5.865,-64.516
0.02,0.814,9.915,1.868,58.651,0.623,10.059,-1.389,35.191,1.15,9.922,-2.013,0.0,-11.73,-64.516
0.025,0.814,9.867,1.772,52.786,0.335,9.915,-1.389,29.326,0.719,10.066,-2.013,0.0,-11.73,-64.516
0.03,0.814,9.772,1.724,52.786,0.24,10.011,-1.389,29.326,0.719,10.066,-1.726,0.0,-17.595,-64.516
0.035,1.006,9.82,1.629,46.921,0.335,10.155,-1.245,23.46,0.575,10.066,-1.726,-5.865,-17.595,-58.651
0.04,1.006,10.011,1.629,41.056,0.335,10.251,-1.245,23.46,0.719,10.066,-1.726,0.0,-17.595,-58.651
0.045,0.958,10.203,1.82,41.056,0.479,10.251,-1.437,23.46,0.719,10.21,-1.726,0.0,-17.595,-52.786
0.05,0.814,10.251,1.868,41.056,0.527,10.442,-1.437,17.595,0.719,10.354,-1.726,0.0,-17.595,-52.786
0.055,0.623,10.394,1.964,41.056,0.623,10.49,-1.629,17.595,0.575,10.497,-1.726,0.0,-11.73,-52.786
0.06,0.575,10.586,2.06,35.191,0.91,10.634,-1.629,11.73,0.431,10.785,-2.013,5.865,-11.73,-46.921
0.065,0.144,10.778,2.251,35.191,0.958,10.778,-1.868,11.73,0.0,11.073,-1.582,5.865,-11.73,-46.921
0.07,0.335,10.634,2.682,29.326,1.006,10.394,-2.203,11.73,0.0,11.073,-2.301,5.865,-11.73,-41.056
0.075,0.958,10.394,2.347,23.46,0.814,10.346,-2.06,5.865,0.719,10.641,-2.732,5.865,-17.595,-35.191
0.08,0.479,10.682,2.156,17.595,0.479,10.73,-1.724,5.865,0.431,10.929,-2.157,5.865,-29.326,-23.46
0.085,0.335,10.634,2.156,11.73,0.719,10.634,-1.772,5.865,0.0,11.073,-2.301,5.865,-23.46,-23.46
0.09,0.335,10.634,2.108,11.73,0.958,10.586,-1.772,5.865,0.144,11.073,-2.157,5.865,-23.46,-17.595
0.095,0.048,10.586,2.012,11.73,1.15,10.73,-1.629,5.865,-0.144,11.073,-2.013,5.865,-23.46,-11.73
0.1,-0.144,10.73,1.964,5.865,1.198,10.73,-1.677,5.865,-0.575,11.216,-2.013,5.865,-17.595,-11.73
0.105,-0.287,10.825,1.964,-0.0,1.533,10.586,-1.581,0.0,-0.719,11.216,-2.013,5.865,-11.73,-5.865
0.11,-0.335,10.873,2.012,-5.865,1.677,10.107,-1.629,-5.865,-0.719,11.216,-2.013,17.595,-11.73,5.865
0.115,-0.144,10.442,2.251,-11.73,1.533,10.442,-1.82,-5.865,-0.719,11.216,-2.013,17.595,-5.865,11.73
0.12,0.048,9.724,2.06,-17.595,1.054,10.346,-1.677,-11.73,-0.575,10.641,-2.301,17.595,-5.865,23.46
0.125,0.24,9.628,2.156,-17.595,0.814,10.059,-1.772,-11.73,-0.431,10.066,-2.013,23.46,0.0,23.46
0.13,0.287,9.676,2.156,-17.595,0.91,9.867,-1.772,-11.73,-0.431,9.922,-2.157,23.46,0.0,23.46
0.135,0.144,9.532,2.108,-11.73,1.581,9.724,-1.581,-11.73,-0.288,9.778,-2.157,23.46,0.0,17.595
0.14,0.144,9.149,2.395,-5.865,0.958,9.532,-2.108,-11.73,-0.144,9.635,-2.157,23.46,0.0,17.595
0.145,0.144,9.149,2.491,5.865,0.671,9.484,-2.108,0.0,-0.144,9.491,-2.301,23.46,5.865,11.73
0.15,0.335,9.341,2.73,11.73,0.479,9.724,-2.299,5.865,0.0,9.491,-2.445,23.46,5.865,0.0
0.155,0.575,9.388,2.73,17.595,0.862,9.628,-2.347,17.595,0.0,9.491,-2.732,23.46,5.865,-11.73
0.16,0.335,9.388,2.539,23.46,1.006,9.676,-2.06,17.595,0.431,9.635,-2.732,29.326,0.0,-17.595
0.165,0.479,9.149,2.539,23.46,0.91,9.484,-1.964,23.46,0.288,9.635,-2.588,29.326,0.0,-17.595
0.17,0.24,9.149,2.251,23.46,0.719,9.532,-1.916,23.46,0.288,9.347,-2.588,29.326,-5.865,-17.595
0.17500000000000002,0.144,9.149,2.203,29.326,0.766,9.436,-1.82,23.46,-0.144,9.059,-2.301,29.326,-5.865,-23.46
0.18,0.24,9.005,2.443,29.326,0.958,9.245,-1.964,23.46,-0.431,9.203,-2.157,29.326,-5.865,-23.46
0.185,0.862,8.239,2.682,29.326,0.383,8.718,-2.395,29.326,0.0,9.059,-2.445,29.326,0.0,-29.326
0.19,0.719,8.191,2.635,35.191,0.192,8.67,-2.203,35.191,0.431,8.34,-2.588,23.46,0.0,-29.326
0.195,0.766,8.239,2.539,41.056,0.431,8.766,-2.012,41.056,0.719,8.197,-2.732,23.46,-5.865,-41.056
0.2,0.91,8.43,2.587,46.921,0.623,8.766,-2.251,41.056,0.719,7.909,-2.588,17.595,0.0,-46.921
0.20500000000000002,0.623,8.526,2.635,46.921,0.431,8.766,-2.156,41.056,0.575,8.34,-2.588,5.865,-5.865,-46.921
0.21,0.575,8.814,2.395,46.921,0.335,8.957,-2.012,41.056,0.575,8.772,-2.588,5.865,-5.865,-46.921
0.215,0.719,8.957,2.156,46.921,0.24,9.053,-1.772,35.191,0.288,8.916,-2.301,5.865,-5.865,-46.921
0.22,0.671,9.101,2.06,41.056,0.24,9.245,-1.724,35.191,0.144,9.059,-2.157,5.865,-5.865,-46.921
0.225,0.575,9.388,2.06,29.326,0.383,9.484,-1.724,29.326,0.144,9.203,-2.013,5.865,0.0,-41.056
0.23,0.527,9.628,2.06,23.46,0.527,9.676,-1.677,23.46,0.0,9.635,-2.013,5.865,0.0,-29.326
0.23500000000000001,0.431,9.82,1.964,11.73,0.527,9.772,-1.629,17.595,0.0,10.066,-2.157,5.865,5.865,-17.595
0.24,0.431,9.724,1.772,11.73,0.527,9.82,-1.437,11.73,-0.144,10.066,-2.013,5.865,5.865,-11.73
0.245,0.431,9.772,1.868,5.865,0.575,9.82,-1.533,5.865,-0.288,10.066,-1.869,5.865,11.73,0.0
0.25,0.479,9.724,1.916,-0.0,0.623,9.867,-1.437,0.0,-0.144,9.922,-1.726,5.865,17.595,5.865
0.255,0.575,9.724,2.012,-0.0,0.719,9.915,-1.581,0.0,0.144,9.922,-1.869,5.865,17.595,5.865
0.26,0.527,9.676,2.108,-0.0,0.814,9.915,-1.724,0.0,0.431,9.922,-1.869,5.865,23.46,5.865
0.265,0.192,9.676,2.06,-0.0,1.054,9.867,-1.629,0.0,0.431,9.922,-2.013,5.865,23.46,0.0
0.27,0.0,9.676,1.964,-0.0,1.102,9.915,-1.533,0.0,0.0,9.922,-2.157,17.595,23.46,0.0
0.275,-0.096,9.58,1.868,-5.865,1.245,9.772,-1.341,-5.865,-0.288,9.778,-1.869,17.595,17.595,5.865
0.28,-0.192,9.388,1.772,-5.865,1.389,9.58,-1.245,-5.865,-0.288,9.778,-1.869,5.865,17.595,11.73
0.28500000000000003,-0.144,9.388,1.82,-0.0,1.293,9.628,-1.437,0.0,-0.288,9.635,-1.869,5.865,17.595,11.73
0.29,-0.287,9.436,2.012,-0.0,1.437,9.58,-1.677,0.0,-0.575,9.635,-1.726,5.865,17.595,5.865
0.295,-0.24,9.532,2.108,-0.0,1.341,9.676,-1.772,0.0,-0.575,9.778,-1.869,5.865,11.73,5.865
0.3,-0.24,9.532,2.108,-0.0,1.341,9.628,-1.677,0.0,-0.719,9.778,-2.157,5.865,11.73,5.865
0.305,-0.24,9.388,2.06,-0.0,1.389,9.484,-1.629,0.0,-0.719,9.778,-2.157,17.595,17.595,5.865
0.31,-0.096,9.341,1.964,-0.0,1.245,9.484,-1.581,0.0,-0.575,9.635,-2.013,17.595,17.595,5.865
0.315,-0.048,9.341,1.964,-5.865,1.341,9.484,-1.533,0.0,-0.431,9.635,-2.013,17.595,17.595,11.73
0.32,-0.096,9.388,1.964,-0.0,1.341,9.58,-1.533,0.0,-0.431,9.491,-1.869,17.595,17.595,11.73
0.325,0.048,9.293,1.964,-5.865,1.15,9.484,-1.533,-5.865,-0.288,9.491,-2.013,17.595,17.595,11.73
0.33,0.192,9.293,1.916,-5.865,1.054,9.484,-1.485,-5.865,-0.144,9.491,-2.013,17.595,17.595,11.73
0.335,0.287,9.341,1.868,-5.865,0.91,9.58,-1.437,0.0,0.0,9.491,-1.869,17.595,11.73,11.73
0.34,0.383,9.293,1.868,-0.0,0.814,9.484,-1.437,0.0,0.144,9.491,-1.869,17.595,11.73,11.73
0.34500000000000003,0.383,9.293,1.82,-0.0,0.91,9.484,-1.389,0.0,0.144,9.491,-1.726,17.595,11.73,5.865
0.35000000000000003,0.335,9.197,1.772,-0.0,0.862,9.484,-1.341,0.0,0.288,9.347,-1.726,17.595,11.73,5.865
0.355,0.431,9.101,1.82,-0.0,0.719,9.388,-1.389,0.0,0.288,9.347,-1.726,17.595,11.73,5.865
0.36,0.383,9.053,1.82,-0.0,0.766,9.341,-1.389,0.0,0.288,9.203,-1.726,17.595,11.73,5.865
0.365,0.383,9.053,1.868,-0.0,0.766,9.293,-1.485,0.0,0.288,9.059,-1.869,17.595,11.73,5.865
0.37,0.335,9.149,2.012,-0.0,0.862,9.341,-1.533,0.0,0.288,9.203,-1.869,17.595,11.73,5.865
0.375,0.287,9.197,2.06,-0.0,0.958,9.341,-1.629,0.0,0.144,9.347,-2.013,17.595,5.865,5.865
0.38,0.144,9.197,1.964,-0.0,1.006,9.388,-1.581,0.0,0.0,9.491,-2.157,5.865,5.865,5.865
0.385,0.048,9.053,1.964,-0.0,1.102,9.341,-1.437,0.0,-0.144,9.491,-2.013,5.865,0.0,5.865
0.39,-0.192,8.862,1.82,-0.0,1.293,9.197,-1.437,0.0,-0.288,9.203,-2.013,5.865,0.0,5.865
0.395,-0.144,8.909,2.06,-0.0,1.389,9.197,-1.629,0.0,-0.431,8.916,-1.726,5.865,0.0,5.865
0.4,-0.192,8.814,2.108,-0.0,1.389,9.149,-1.629,0.0,-0.288,8.916,-2.013,5.865,0.0,5.865
0.405,-0.287,8.718,2.156,-0.0,1.485,9.053,-1.533,0.0,-0.431,8.916,-2.013,5.865,0.0,5.865
0.41000000000000003,-0.048,8.622,2.203,-0.0,1.341,8.957,-1.724,0.0,-0.288,8.772,-2.157,5.865,0.0,0.0
0.41500000000000004,-0.048,8.622,2.203,-0.0,1.245,8.862,-1.772,0.0,-0.288,8.772,-2.157,5.865,-5.865,0.0
0.42,0.096,8.718,2.156,-5.865,1.006,8.909,-1.724,0.0,-0.288,8.772,-2.157,5.865,-5.865,0.0
0.425,0.287,8.766,2.012,-5.865,0.814,8.909,-1.629,-5.865,-0.144,8.772,-2.157,5.865,-5.865,0.0
0.43,0.24,8.766,1.964,-5.865,0.91,8.957,-1.533,-5.865,-0.144,8.916,-2.013,0.0,-5.865,5.865
0.435,0.144,8.862,1.868,-5.865,1.054,9.005,-1.389,-5.865,-0.288,9.059,-1.869,0.0,-11.73,5.865
0.44,-0.096,8.957,1.772,-5.865,1.054,9.005,-1.437,-5.865,-0.288,9.203,-1.869,0.0,-11.73,5.865
0.445,-0.048,9.053,1.772,-11.73,0.766,9.005,-1.389,-5.865,-0.288,9.203,-1.726,0.0,-5.865,11.73
0.45,0.096,9.053,1.724,-11.73,0.766,9.197,-1.341,-5.865,-0.575,9.347,-1.726,0.0,-11.73,11.73
0.455,0.096,9.388,1.772,-11.73,0.719,9.388,-1.293,0.0,-0.719,9.491,-1.726,5.865,-11.73,11.73
0.46,0.287,9.388,1.677,-11.73,0.575,9.484,-1.245,0.0,0.0,9.635,-1.726,5.865,-5.865,17.595
0.465,0.527,9.436,1.629,-11.73,0.671,9.628,-1.15,0.0,0.288,9.635,-1.726,5.865,-11.73,17.595
0.47000000000000003,0.862,9.532,1.581,-11.73,0.719,9.772,-1.054,5.865,0.431,9.635,-1.582,5.865,-11.73,11.73
0.47500000000000003,0.671,9.724,1.629,-11.73,0.527,9.772,-1.15,0.0,0.288,9.778,-1.582,5.865,-11.73,11.73
0.48,0.527,9.628,1.485,-11.73,0.719,9.867,-1.15,0.0,0.575,9.635,-1.582,5.865,-17.595,17.595
0.485,0.575,9.532,1.581,-11.73,0.862,9.82,-1.293,0.0,0.863,9.778,-1.438,5.865,-17.595,11.73
0.49,0.527,9.676,1.724,-11.73,0.527,9.676,-1.389,-5.865,0.288,9.778,-1.582,5.865,-11.73,17.595
0.495,0.335,9.628,1.868,-17.595,0.575,9.676,-1.485,-5.865,0.0,9.922,-1.726,5.865,-11.73,17.595
0.5,0.527,9.532,1.82,-17.595,0.862,9.724,-1.485,-11.73,0.288,9.635,-1.869,5.865,-11.73,11.73
0.505,0.766,9.676,1.82,-17.595,0.527,9.963,-1.293,-17.595,0.288,9.778,-1.726,5.865,-5.865,17.595
0.51,1.485,9.628,1.293,-23.46,0.287,10.155,-0.719,-17.595,0.719,9.635,-1.726,5.865,-5.865,17.595
0.515,1.629,9.293,1.15,-23.46,0.144,9.963,-0.671,-23.46,0.863,9.347,-1.582,5.865,-5.865,17.595
0.52,1.006,9.532,1.533,-17.595,0.096,9.82,-1.054,-23.46,1.15,9.347,-1.007,0.0,-5.865,17.595
0.525,1.868,10.155,0.335,-17.595,0.096,11.831,-0.335,-23.46,0.863,9.203,-1.294,-5.865,-11.73,11.73
0.53,0.479,9.628,1.198,-11.73,0.287,9.867,-1.629,-23.46,0.431,8.916,-1.007,-11.73,-11.73,11.73
0.535,0.91,9.293,1.629,-11.73,0.287,9.724,-1.006,-17.595,1.15,9.059,-1.294,-23.46,-17.595,11.73
0.54,1.389,9.149,1.437,-11.73,0.24,9.963,-0.575,-17.595,0.0,9.778,-1.582,-35.191,-23.46,17.595
0.545,1.198,9.341,1.437,-5.865,0.192,9.82,-1.054,-11.73,-0.144,9.778,-1.294,-41.056,-23.46,17.595
0.55,0.719,9.628,1.629,-5.865,1.006,10.203,-1.293,-11.73,0.288,9.491,-1.582,-41.056,-17.595,11.73
0.555,0.766,9.436,2.06,-5.865,0.383,9.676,-1.629,-5.865,1.007,9.491,-1.438,-41.056,-17.595,11.73
0.56,0.719,9.293,2.108,-5.865,0.623,9.628,-1.629,-5.865,0.575,9.491,-1.869,-41.056,-11.73,11.73
0.5650000000000001,0.479,9.245,2.203,-5.865,0.527,9.388,-1.724,-5.865,0.863,9.059,-1.869,-41.056,-11.73,11.73
0.5700000000000001,0.671,9.149,2.395,-5.865,0.623,9.341,-1.964,0.0,0.575,9.347,-2.157,-41.056,-11.73,11.73
0.5750000000000001,0.575,9.245,2.635,-5.865,0.623,9.341,-2.156,0.0,0.144,9.347,-2.301,-41.056,-5.865,11.73
0.58,0.623,9.245,2.73,-5.865,0.527,9.197,-2.347,0.0,0.288,9.491,-2.588,-41.056,-5.865,11.73
0.585,0.335,9.149,2.635,-0.0,0.766,9.005,-2.299,5.865,-0.144,9.635,-2.876,-41.056,-5.865,11.73
0.59,0.383,9.005,2.682,-0.0,0.814,8.957,-2.347,5.865,0.288,9.635,-2.588,-35.191,0.0,11.73
0.595,0.623,8.862,2.826,-0.0,0.719,8.862,-2.491,5.865,0.288,9.491,-2.732,-29.326,0.0,11.73
0.6,1.15,8.718,3.066,-0.0,0.287,9.053,-2.539,0.0,0.288,9.491,-2.876,-23.46,5.865,5.865
0.605,0.671,8.909,2.826,-0.0,0.623,8.766,-2.443,0.0,-1.294,9.491,-3.02,-23.46,5.865,5.865
0.61,0.287,8.909,3.066,-0.0,0.766,8.67,-2.682,0.0,0.288,9.635,-3.02,-17.595,5.865,5.865
0.615,0.144,8.909,2.97,-5.865,0.766,8.574,-2.491,-5.865,0.431,9.491,-3.02,-11.73,5.865,0.0
0.62,0.096,9.245,2.587,-11.73,0.287,8.239,-2.203,-11.73,0.288,9.347,-3.02,-5.865,11.73,5.865
0.625,0.0,9.628,2.347,-11.73,0.287,8.143,-1.868,-17.595,0.288,9.203,-2.588,0.0,17.595,11.73
0.63,0.24,9.484,2.251,-11.73,0.623,8.478,-1.964,-23.46,0.288,9.491,-2.157,0.0,17.595,11.73
0.635,0.814,9.053,2.299,-17.595,0.766,9.053,-2.012,-23.46,0.144,9.635,-2.157,0.0,11.73,17.595
0.64,1.054,8.43,2.251,-11.73,0.814,10.011,-1.916,-23.46,0.288,9.347,-2.301,0.0,5.865,17.595
0.645,1.15,8.287,1.964,-11.73,0.814,10.059,-1.581,-17.595,0.575,8.772,-2.301,0.0,5.865,17.595
0.65,0.958,8.766,1.629,-11.73,0.527,9.484,-1.198,-11.73,0.863,8.484,-2.013,0.0,11.73,11.73
0.655,0.671,8.909,1.485,-11.73,0.527,9.58,-1.102,-11.73,1.15,8.484,-1.582,0.0,11.73,11.73
0.66,0.862,8.814,1.533,-5.865,0.479,9.58,-1.102,-11.73,1.007,8.484,-1.438,-5.865,11.73,11.73
0.665,1.054,8.957,1.629,-5.865,0.24,9.484,-1.198,-5.865,1.007,8.484,-1.438,-5.865,5.865,11.73
0.67,0.91,9.101,1.724,-5.865,0.335,9.484,-1.341,-5.865,0.719,8.916,-1.582,-11.73,5.865,11.73
0.675,0.671,9.245,1.82,-5.865,0.431,9.532,-1.437,-5.865,0.719,9.203,-1.726,-17.595,5.865,11.73
0.68,0.91,9.245,2.156,-5.865,0.287,9.341,-1.916,-5.865,0.575,9.203,-1.726,-17.595,5.865,11.73
0.685,0.671,9.101,2.156,-0.0,0.623,9.388,-1.724,0.0,1.007,9.635,-1.869,-23.46,5.865,5.865
0.6900000000000001,0.766,9.388,2.203,-0.0,0.383,9.293,-1.82,-5.865,0.431,9.203,-2.013,-29.326,5.865,5.865
0.6950000000000001,0.91,9.197,2.299,-0.0,0.431,9.676,-1.82,-5.865,0.288,9.347,-2.157,-29.326,0.0,5.865
0.7000000000000001,0.91,9.293,2.395,-5.865,0.383,9.58,-1.964,-5.865,0.288,9.491,-2.301,-29.326,0.0,5.865
0.705,0.814,9.676,2.443,-5.865,0.383,9.388,-2.012,-5.865,0.288,9.635,-2.301,-29.326,0.0,11.73
0.71,1.006,9.58,2.443,-11.73,0.287,9.915,-2.012,-5.865,0.575,9.635,-2.445,-29.326,5.865,17.595
0.715,1.15,9.772,2.347,-11.73,0.096,9.82,-1.964,-11.73,0.575,9.922,-2.301,-29.326,5.865,23.46
0.72,1.198,10.059,2.299,-17.595,0.144,9.915,-1.868,-11.73,0.575,10.066,-2.445,-29.326,5.865,29.326
0.725,1.437,9.867,2.251,-17.595,0.096,10.011,-1.916,-17.595,1.007,10.21,-2.157,-29.326,0.0,41.056
0.73,1.485,9.676,2.251,-23.46,0.048,9.867,-1.772,-17.595,1.007,10.066,-2.157,-23.46,0.0,52.786
0.735,2.012,8.67,2.06,-29.326,-0.048,9.436,-1.245,-23.46,1.007,9.922,-2.157,-29.326,-5.865,58.651
0.74,2.587,8.718,2.97,-29.326,-1.054,8.862,-2.539,-23.46,4.458,7.334,-1.438,-29.326,-5.865,70.381
0.745,2.491,8.766,2.587,-23.46,-0.479,9.005,-2.06,-17.595,5.608,9.059,-2.876,-35.191,-11.73,70.381
0.75,1.533,9.101,2.682,-11.73,-0.144,9.436,-2.299,-11.73,3.595,8.772,-2.732,-41.056,-17.595,41.056
0.755,1.198,9.436,2.682,-11.73,0.096,9.676,-2.251,-11.73,1.869,9.203,-2.445,-41.056,-23.46,17.595
0.76,0.91,9.82,2.73,-17.595,0.192,9.772,-2.395,-17.595,1.15,9.778,-2.732,-41.056,-29.326,11.73
0.765,0.814,9.772,2.635,-23.46,0.287,9.963,-2.251,-23.46,0.575,10.21,-2.732,-41.056,-29.326,17.595
0.77,0.862,9.724,2.539,-29.326,0.144,10.059,-2.203,-29.326,0.575,10.497,-2.732,-35.191,-29.326,17.595
0.775,1.15,9.915,2.539,-29.326,-0.192,10.011,-2.156,-35.191,0.575,10.354,-2.732,-35.191,-29.326,23.46
0.78,1.341,10.059,2.539,-35.191,-0.24,10.107,-2.108,-41.056,0.719,10.354,-2.732,-29.326,-23.46,29.326
0.785,1.341,9.82,2.491,-41.056,-0.24,10.011,-2.108,-41.056,1.007,10.066,-2.732,-23.46,-23.46,29.326
0.79,1.341,9.484,2.395,-46.921,-0.287,9.724,-2.012,-46.921,1.15,9.922,-2.445,-17.595,-17.595,35.191
0.795,1.437,9.293,2.395,-46.921,-0.287,9.58,-2.012,-46.921,1.15,9.635,-2.445,-17.595,-11.73,46.921
0.8,1.389,9.101,2.491,-46.921,-0.287,9.341,-2.108,-46.921,1.15,9.491,-2.445,-17.595,-11.73,46.921
0.805,1.437,8.957,2.491,-46.921,-0.335,9.341,-2.156,-41.056,1.007,9.203,-2.445,-17.595,-5.865,46.921
0.81,1.437,8.957,2.539,-41.056,-0.287,9.293,-2.156,-41.056,1.15,9.059,-2.588,-17.595,0.0,46.921
0.8150000000000001,1.437,9.005,2.73,-41.056,-0.383,9.293,-2.347,-35.191,1.15,9.059,-2.588,-17.595,0.0,46.921
0.8200000000000001,1.437,9.197,2.922,-35.191,-0.335,9.436,-2.539,-29.326,1.15,9.203,-2.732,-17.595,5.865,46.921
0.8250000000000001,1.533,9.436,3.018,-35.191,-0.335,9.58,-2.635,-29.326,1.15,9.491,-3.02,-17.595,11.73,41.056
0.8300000000000001,1.581,9.532,2.922,-29.326,-0.383,9.676,-2.539,-23.46,1.438,9.635,-3.164,-17.595,17.595,41.056
0.835,1.724,9.532,2.826,-29.326,-0.431,9.724,-2.443,-23.46,1.726,9.491,-3.02,-11.73,17.595,35.191
0.84,1.772,9.58,2.73,-29.326,-0.479,9.82,-2.347,-23.46,1.726,9.491,-2.876,-11.73,17.595,35.191
0.845,1.82,9.724,2.826,-29.326,-0.431,9.915,-2.491,-23.46,1.869,9.778,-2.876,-5.865,17.595,41.056
0.85,1.677,9.82,2.635,-23.46,-0.335,10.107,-2.251,-17.595,1.869,10.066,-2.876,-5.865,23.46,35.191
0.855,1.389,9.724,2.587,-23.46,-0.24,10.059,-2.251,-17.595,1.869,9.491,-2.732,-5.865,23.46,29.326
0.86,0.91,10.011,2.443,-23.46,-0.048,10.059,-2.97,-17.595,1.438,9.635,-2.445,-5.865,23.46,29.326
0.865,1.293,9.915,2.778,-29.326,-0.144,10.107,-2.299,-17.595,1.294,10.21,-2.013,-5.865,23.46,23.46
0.87,1.437,10.107,2.682,-29.326,-0.287,10.155,-2.395,-17.595,1.726,10.066,-2.588,-11.73,23.46,17.595
0.875,1.437,10.107,2.682,-29.326,-0.192,10.299,-2.395,-17.595,1.582,10.21,-2.732,-11.73,23.46,11.73
0.88,1.677,10.107,2.635,-29.326,-0.24,10.251,-2.156,-17.595,1.869,10.21,-2.876,-11.73,23.46,5.865
0.885,1.82,10.155,2.347,-29.326,-0.192,10.203,-2.012,-17.595,1.582,10.497,-2.588,-5.865,29.326,0.0
0.89,1.581,9.628,2.491,-35.191,-0.431,10.203,-2.203,-17.595,2.301,10.497,-2.445,-5.865,29.326,-5.865
0.895,3.305,9.915,1.964,-29.326,-1.245,9.915,-1.629,-17.595,2.445,10.21,-2.301,0.0,29.326,-11.73
0.9,3.688,9.341,2.826,-35.191,-1.629,9.676,-2.491,-11.73,5.608,8.053,-1.726,-5.865,29.326,-23.46
0.905,2.491,10.394,2.874,-41.056,-0.24,9.867,-2.491,-11.73,3.883,9.491,-3.02,0.0,17.595,-17.595
0.91,2.635,8.287,2.73,-46.921,-0.766,9.245,-1.629,-17.595,2.445,9.778,-3.02,0.0,11.73,-17.595
0.915,1.629,10.251,2.97,-46.921,-0.623,9.724,-2.443,-23.46,1.15,12.798,-2.732,5.865,5.865,-5.865
0.92,1.82,10.394,2.922,-41.056,0.287,10.299,-2.347,-23.46,1.438,10.497,-2.588,5.865,5.865,0.0
0.925,1.82,9.149,2.587,-46.921,-0.383,9.532,-2.108,-29.326,1.869,9.347,-3.02,5.865,0.0,-5.865
0.93,1.485,8.862,2.682,-52.786,-0.671,9.388,-2.682,-29.326,1.007,9.778,-2.445,23.46,0.0,-17.595
0.935,1.82,8.67,2.874,-52.786,-0.862,9.293,-2.299,-23.46,0.431,10.066,-2.876,29.326,0.0,-17.595
0.9400000000000001,1.772,8.574,2.826,-35.191,-0.671,9.293,-2.395,-17.595,0.288,9.635,-2.732,29.326,0.0,-11.73
0.9450000000000001,1.533,8.814,2.826,-17.595,-0.287,9.341,-2.491,-11.73,0.144,9.635,-2.588,23.46,0.0,-11.73
0.9500000000000001,1.485,8.526,2.635,-11.73,-0.192,9.149,-2.251,-5.865,0.719,8.916,-2.876,5.865,-5.865,-11.73
0.9550000000000001,1.389,8.718,2.587,-5.865,-0.192,9.197,-2.299,0.0,0.288,8.772,-2.588,5.865,0.0,-11.73
0.96,1.485,8.67,2.539,-0.0,-0.192,9.053,-2.203,5.865,0.144,8.916,-2.588,5.865,0.0,-11.73
0.965,1.629,8.622,2.73,-0.0,-0.383,9.053,-2.395,5.865,0.575,8.772,-2.588,0.0,0.0,-11.73
0.97,1.724,8.957,2.682,5.865,-0.383,9.149,-2.347,5.865,0.431,8.916,-2.732,-5.865,5.865,-11.73
0.975,1.772,9.149,2.587,5.865,-0.383,9.293,-2.251,5.865,0.863,9.203,-2.732,-11.73,5.865,-5.865
0.98,1.916,9.293,2.635,-0.0,-0.479,9.484,-2.251,5.865,1.15,9.347,-2.588,-11.73,5.865,-5.865
0.985,2.06,9.293,2.539,-0.0,-0.431,9.436,-2.06,0.0,1.294,9.635,-2.588,-11.73,11.73,-5.865
0.99,1.916,9.341,2.587,-0.0,-0.431,9.436,-2.203,0.0,1.294,9.778,-2.445,-5.865,11.73,-5.865
0.995,2.012,9.341,2.682,-5.865,-0.479,9.58,-2.251,-5.865,1.294,9.635,-2.588,-5.865,11.73,0.0
1.0,2.108,9.101,2.587,-11.73,-0.527,9.388,-2.156,-5.865,1.438,9.635,-2.588,-5.865,11.73,0.0
1.0050000000000001,2.108,9.005,2.682,-11.73,-0.527,9.341,-2.203,-11.73,1.438,9.491,-2.445,-5.865,11.73,5.865
1.01,2.012,8.957,2.682,-5.865,-0.527,9.341,-2.299,-5.865,1.438,9.203,-2.588,-5.865,11.73,5.865
1.0150000000000001,2.06,9.005,2.778,-5.865,-0.479,9.388,-2.347,0.0,1.294,9.203,-2.732,-5.865,5.865,5.865
1.02,1.964,9.005,2.778,-0.0,-0.431,9.341,-2.395,0.0,1.438,9.347,-2.732,-5.865,5.865,0.0
1.025,1.82,9.053,2.73,5.865,-0.335,9.436,-2.347,5.865,1.15,9.203,-2.732,-5.865,5.865,0.0
1.03,1.868,9.245,2.73,11.73,-0.287,9.532,-2.395,11.73,1.007,9.203,-2.732,-5.865,5.865,-5.865
1.035,1.964,9.149,2.874,11.73,-0.431,9.436,-2.491,11.73,1.15,9.347,-2.732,-5.865,5.865,-5.865
1.04,2.012,9.149,2.922,11.73,-0.431,9.341,-2.539,17.595,1.15,9.347,-2.876,-11.73,5.865,-11.73
1.045,2.108,9.293,2.874,17.595,-0.479,9.436,-2.443,17.595,1.294,9.491,-2.876,-11.73,5.865,-11.73
1.05,2.108,9.388,2.778,17.595,-0.527,9.484,-2.395,17.595,1.438,9.778,-2.876,-11.73,5.865,-11.73
1.055,2.108,9.245,2.682,17.595,-0.623,9.341,-2.299,17.595,1.438,9.778,-2.876,-5.865,5.865,-11.73
1.06,2.251,9.484,2.73,17.595,-0.575,9.628,-2.299,17.595,1.438,9.778,-2.732,-5.865,5.865,-17.595
1.065,2.443,9.676,2.874,17.595,-0.719,9.724,-2.443,17.595,1.582,9.922,-2.732,-5.865,5.865,-11.73
1.07,2.443,9.915,2.97,17.595,-0.766,9.963,-2.539,17.595,1.869,10.21,-2.876,0.0,5.865,-17.595
1.075,2.491,10.059,2.922,23.46,-0.766,10.155,-2.491,17.595,1.869,10.497,-2.876,5.865,0.0,-17.595
1.08,2.443,10.059,2.874,23.46,-0.719,10.251,-2.443,23.46,2.013,10.641,-2.876,5.865,0.0,-17.595
1.085,2.395,9.915,2.73,23.46,-0.671,10.203,-2.347,23.46,1.726,10.497,-2.876,5.865,-5.865,-17.595
1.09,2.443,9.724,2.73,23.46,-0.766,10.155,-2.299,23.46,1.869,10.354,-2.732,5.865,-5.865,-17.595
1.095,2.443,9.58,2.778,23.46,-0.766,10.107,-2.395,23.46,1.726,10.066,-2.732,5.865,-5.865,-17.595
1.1,2.299,9.341,2.874,29.326,-0.719,9.867,-2.491,29.326,1.726,9.635,-2.732,5.865,-11.73,-23.46
1.105,2.06,9.149,2.97,29.326,-0.575,9.628,-2.635,29.326,1.726,9.491,-2.876,5.865,-11.73,-23.46
1.11,1.916,9.053,3.018,29.326,-0.527,9.532,-2.682,29.326,1.294,9.203,-3.02,5.865,-11.73,-23.46
1.115,1.82,8.957,3.066,29.326,-0.431,9.341,-2.73,29.326,1.15,9.059,-3.02,5.865,-11.73,-23.46
1.12,1.772,8.862,3.161,29.326,-0.335,9.245,-2.826,29.326,1.007,9.059,-3.02,0.0,-11.73,-23.46
1.125,1.868,8.862,3.209,29.326,-0.383,9.197,-2.826,29.326,1.007,8.916,-3.164,0.0,-11.73,-23.46
1.1300000000000001,1.964,8.909,3.161,29.326,-0.479,9.197,-2.778,29.326,1.15,8.916,-3.164,-5.865,-11.73,-23.46
1.135,2.06,8.957,3.161,29.326,-0.479,9.293,-2.826,29.326,1.294,9.059,-3.164,-5.865,-11.73,-23.46
1.1400000000000001,2.06,9.101,3.161,35.191,-0.479,9.436,-2.778,35.191,1.438,9.203,-3.164,-5.865,-11.73,-23.46
1.145,1.916,9.245,3.161,35.191,-0.287,9.628,-2.73,35.191,1.438,9.203,-3.164,-5.865,-11.73,-35.191
1.1500000000000001,1.677,9.388,3.066,41.056,-0.096,9.724,-2.682,41.056,1.294,9.347,-3.164,-5.865,-11.73,-35.191
1.155,1.581,9.436,3.018,41.056,-0.096,9.724,-2.635,41.056,1.007,9.491,-3.02,-11.73,-11.73,-35.191
1.16,1.389,9.341,2.97,41.056,0.048,9.676,-2.635,41.056,0.719,9.635,-3.02,-11.73,-11.73,-41.056
1.165,1.389,9.197,2.874,46.921,-0.048,9.532,-2.539,46.921,0.575,9.635,-3.02,-11.73,-11.73,-41.056
1.17,1.437,9.149,2.922,41.056,0.048,9.436,-2.539,46.921,0.575,9.347,-2.876,-11.73,-11.73,-41.056
1.175,0.623,9.005,3.114,41.056,0.719,9.053,-2.826,41.056,0.575,9.203,-2.876,-11.73,-11.73,-41.056
1.18,0.048,9.005,3.066,35.191,1.868,9.245,-2.73,29.326,-0.575,9.059,-2.732,-17.595,-5.865,-41.056
1.185,2.299,8.095,2.874,11.73,-1.245,8.239,-2.491,17.595,0.288,8.772,-3.164,-17.595,-5.865,-29.326
1.19,1.82,8.335,2.922,11.73,-0.192,8.383,-2.491,11.73,0.863,8.628,-2.732,-17.595,-5.865,-17.595
1.195,1.629,8.718,2.778,11.73,-0.144,8.766,-2.395,5.865,1.294,8.772,-3.02,-17.595,-5.865,-5.865
1.2,1.198,9.005,2.874,-0.0,0.096,9.101,-2.491,5.865,1.15,9.059,-2.732,-17.595,-5.865,-5.865
1.205,1.054,9.197,3.161,-0.0,0.383,9.293,-2.826,0.0,0.288,9.203,-2.876,-17.595,-5.865,0.0
1.21,1.102,9.388,3.209,-0.0,0.335,9.341,-2.778,0.0,0.144,9.635,-3.164,-17.595,-5.865,0.0
1.215,0.958,9.101,2.778,5.865,0.287,8.622,-2.491,5.865,0.0,9.922,-3.307,-11.73,-5.865,0.0
1.22,0.91,8.814,3.018,-0.0,-0.287,8.143,-2.635,0.0,0.0,10.354,-2.876,-5.865,0.0,0.0
1.225,1.293,8.766,2.635,-5.865,0.431,8.67,-2.251,-5.865,-0.144,9.635,-3.02,0.0,0.0,0.0
1.23,1.054,9.053,3.305,-11.73,0.958,9.628,-2.874,-11.73,0.431,9.491,-2.445,5.865,5.865,5.865
1.235,1.245,9.245,3.593,-11.73,0.287,9.724,-3.209,-11.73,1.007,8.916,-3.164,23.46,17.595,17.595
1.24,1.533,9.341,3.688,-11.73,-0.192,9.58,-3.305,-5.865,0.431,9.059,-3.451,23.46,11.73,11.73
1.245,1.724,9.245,3.066,-17.595,-0.335,9.245,-2.491,-17.595,0.575,9.347,-3.739,17.595,5.865,11.73
1.25,1.437,9.245,3.305,-23.46,0.144,9.484,-3.018,-23.46,0.719,9.635,-2.876,5.865,5.865,17.595
1.2550000000000001,2.108,9.101,3.928,-29.326,-0.575,9.436,-3.545,-29.326,0.719,9.491,-3.307,5.865,11.73,23.46
1.26,2.203,8.622,4.119,-17.595,-0.575,9.197,-3.784,-17.595,1.007,9.491,-3.739,17.595,11.73,29.326
1.2650000000000001,1.533,9.82,4.359,-5.865,0.287,10.825,-4.072,0.0,1.582,8.916,-4.17,5.865,11.73,23.46
1.27,1.772,10.442,4.598,-0.0,-0.24,11.448,-4.263,5.865,1.15,8.916,-4.314,5.865,11.73,5.865
1.2750000000000001,2.73,10.107,3.976,-0.0,-1.15,10.49,-3.593,0.0,0.719,9.635,-4.602,5.865,11.73,0.0
1.28,2.826,10.442,2.539,-5.865,-1.245,9.963,-2.06,-5.865,1.582,10.066,-4.17,-5.865,5.865,5.865
1.285,1.677,9.053,2.203,-11.73,0.479,9.149,-1.724,-11.73,2.157,11.504,-2.876,-11.73,11.73,5.865
1.29,1.102,8.43,2.874,-0.0,0.575,8.957,-2.443,0.0,1.726,10.21,-2.013,-11.73,11.73,11.73
1.295,1.581,8.383,3.066,11.73,-0.287,8.862,-2.73,17.595,0.719,9.491,-2.732,0.0,5.865,5.865
1.3,1.485,8.909,3.449,23.46,-0.048,8.909,-3.018,23.46,0.431,10.066,-3.02,0.0,0.0,-5.865
1.305,1.341,8.862,3.401,35.191,0.048,9.149,-3.066,35.191,0.431,9.922,-3.307,0.0,0.0,-5.865
1.31,1.293,9.053,3.161,35.191,0.096,9.005,-2.778,35.191,0.719,8.916,-3.451,0.0,0.0,-5.865
1.315,1.341,8.718,3.018,35.191,0.0,9.005,-2.635,35.191,0.575,9.203,-3.164,0.0,0.0,-11.73
1.32,1.485,8.622,2.922,35.191,0.048,9.005,-2.443,35.191,0.575,9.203,-3.02,0.0,5.865,-11.73
1.325,1.581,8.862,2.73,35.191,-0.096,9.341,-2.299,35.191,0.863,9.059,-2.876,5.865,5.865,-11.73
1.33,1.677,8.766,2.539,29.326,-0.24,9.388,-2.203,29.326,1.15,9.203,-2.732,5.865,5.865,-11.73
1.335,1.629,9.053,2.73,23.46,0.0,9.532,-2.395,23.46,1.15,9.347,-2.588,0.0,5.865,-5.865
1.34,1.677,7.951,2.73,23.46,-0.575,9.58,-2.347,17.595,1.294,9.491,-2.445,0.0,5.865,-5.865
1.345,1.437,8.478,2.73,23.46,0.144,9.772,-3.018,5.865,1.294,9.922,-2.876,-5.865,5.865,0.0
1.35,2.203,9.724,3.257,29.326,0.096,9.293,-2.491,-5.865,0.431,9.059,-3.883,-5.865,5.865,5.865
1.355,1.437,8.909,2.97,29.326,0.192,8.862,-2.539,0.0,0.863,8.484,-3.307,-5.865,-5.865,5.865
1.36,0.862,10.059,3.066,23.46,0.527,9.388,-2.874,0.0,0.863,8.916,-3.02,0.0,5.865,0.0
1.365,1.341,9.963,2.97,11.73,0.144,9.772,-2.539,0.0,0.863,7.478,-3.164,0.0,5.865,5.865
1.37,1.533,9.628,2.874,5.865,-0.048,9.772,-2.491,-5.865,0.863,8.34,-2.876,0.0,5.865,5.865
1.375,1.581,9.676,2.874,-0.0,-0.096,9.724,-2.443,-5.865,1.007,9.347,-2.876,0.0,5.865,5.865
1.3800000000000001,1.533,9.58,2.922,-0.0,-0.048,9.867,-2.539,-5.865,1.15,9.635,-2.876,0.0,5.865,5.865
1.385,1.485,9.388,2.922,5.865,-0.096,9.676,-2.539,0.0,1.15,9.778,-2.876,0.0,5.865,5.865
1.3900000000000001,1.389,9.149,2.826,5.865,0.048,9.436,-2.443,0.0,1.007,9.635,-2.876,0.0,5.865,0.0
1.395,1.293,9.053,2.874,11.73,0.144,9.293,-2.443,5.865,0.863,9.491,-2.876,0.0,5.865,0.0
1.4000000000000001,1.293,8.909,2.922,11.73,0.096,9.293,-2.539,11.73,0.863,9.203,-2.876,0.0,5.865,-5.865
1.405,1.389,8.957,2.922,17.595,-0.048,9.149,-2.539,11.73,0.863,9.203,-2.876,0.0,5.865,-11.73
1.41,1.389,9.101,2.922,17.595,0.0,9.053,-2.491,11.73,0.863,9.059,-2.876,0.0,5.865,-11.73
1.415,1.341,9.149,2.778,17.595,-0.096,9.101,-2.347,11.73,1.007,9.203,-2.876,0.0,5.865,-11.73
1.42,1.485,9.005,2.682,11.73,-0.144,9.053,-2.251,11.73,0.863,9.347,-2.732,0.0,5.865,-11.73
1.425,1.533,9.005,2.635,5.865,-0.144,9.197,-2.203,5.865,0.863,9.347,-2.732,0.0,5.865,-11.73
1.43,1.629,9.005,2.587,-0.0,-0.144,9.341,-2.156,0.0,1.15,9.347,-2.588,5.865,5.865,-5.865
1.435,1.629,8.957,2.635,-0.0,-0.192,9.341,-2.251,0.0,1.294,9.347,-2.588,5.865,5.865,0.0
1.44,1.485,9.197,2.682,-0.0,-0.096,9.293,-2.251,-5.865,1.294,9.347,-2.588,5.865,5.865,0.0
1.445,1.437,9.293,2.778,-0.0,-0.048,9.341,-2.395,-5.865,1.15,9.491,-2.588,5.865,5.865,5.865
1.45,1.389,9.293,2.874,-0.0,0.0,9.388,-2.491,-5.865,1.007,9.491,-2.732,5.865,0.0,5.865
1.455,1.293,9.197,2.97,-0.0,0.0,9.388,-2.587,-5.865,1.007,9.491,-2.876,5.865,0.0,5.865
1.46,1.198,9.149,3.018,-0.0,0.096,9.388,-2.635,0.0,0.863,9.347,-2.876,5.865,0.0,5.865
1.465,1.15,9.101,3.114,-0.0,0.096,9.293,-2.73,0.0,0.719,9.347,-3.02,5.865,0.0,5.865
1.47,1.198,9.053,3.161,-0.0,0.096,9.245,-2.73,0.0,0.575,9.347,-3.02,5.865,0.0,5.865
1.475,1.245,9.053,3.114,-0.0,0.096,9.245,-2.73,0.0,0.575,9.347,-3.164,5.865,0.0,0.0
1.48,1.245,9.101,3.066,-0.0,0.144,9.293,-2.635,0.0,0.719,9.203,-3.164,5.865,5.865,5.865
1.485,1.15,9.101,3.018,-0.0,0.192,9.293,-2.635,0.0,0.719,9.347,-3.02,5.865,5.865,0.0
1.49,1.15,9.005,3.066,-0.0,0.192,9.197,-2.682,0.0,0.719,9.347,-3.02,5.865,5.865,5.865
1.495,1.245,9.005,3.209,-0.0,0.096,9.149,-2.826,0.0,0.719,9.203,-3.02,5.865,5.865,0.0
1.5,1.293,9.101,3.305,-5.865,0.048,9.245,-2.922,0.0,0.719,9.203,-3.164,5.865,5.865,5.865
1.5050000000000001,1.293,9.197,3.305,-5.865,0.048,9.341,-2.922,-5.865,0.863,9.347,-3.307,5.865,5.865,5.865
1.51,1.341,9.341,3.209,-5.865,0.048,9.484,-2.826,-5.865,0.863,9.491,-3.307,5.865,5.865,5.865
1.5150000000000001,1.245,9.532,3.161,-5.865,0.144,9.724,-2.826,-5.865,0.863,9.635,-3.164,5.865,5.865,5.865
1.52,1.245,9.628,3.161,-5.865,0.144,9.867,-2.778,-5.865,0.863,9.778,-3.164,5.865,5.865,5.865
1.5250000000000001,1.198,9.676,3.066,-5.865,0.192,9.963,-2.682,-5.865,0.719,9.778,-3.164,5.865,5.865,5.865
1.53,1.245,9.676,3.018,-0.0,0.192,10.011,-2.635,0.0,0.719,9.778,-3.02,5.865,5.865,5.865
1.5350000000000001,1.293,9.628,3.018,-0.0,0.144,9.963,-2.635,0.0,0.719,9.778,-3.02,5.865,5.865,5.865
1.54,1.533,9.724,3.018,-0.0,-0.048,10.059,-2.635,0.0,0.863,9.778,-3.02,5.865,5.865,0.0
1.545,1.15,9.484,2.922,-0.0,0.24,9.724,-2.539,0.0,1.15,9.635,-3.02,5.865,5.865,0.0
1.55,1.198,9.388,2.97,-0.0,0.24,9.676,-2.587,5.865,0.863,9.635,-2.876,5.865,5.865,0.0
1.555,1.293,9.436,2.922,5.865,0.192,9.772,-2.539,5.865,0.719,9.635,-2.876,5.865,5.865,0.0
1.56,1.389,9.676,3.64,5.865,-0.096,10.251,-3.353,5.865,0.863,9.491,-2.876,5.865,5.865,0.0
1.565,1.389,9.58,2.922,11.73,0.0,9.724,-2.539,5.865,0.719,9.347,-3.739,0.0,5.865,-5.865
1.57,2.06,9.388,2.778,11.73,-0.719,9.724,-2.347,11.73,1.007,9.778,-3.164,0.0,5.865,-5.865
1.575,2.826,9.436,2.395,17.595,-0.862,9.82,-1.916,17.595,1.294,9.778,-2.732,-5.865,5.865,-5.865
1.58,0.719,9.341,2.06,29.326,0.958,9.101,-1.629,29.326,3.595,9.347,-2.301,-5.865,11.73,-11.73
1.585,1.054,8.957,2.299,29.326,-0.144,8.909,-2.012,23.46,0.863,9.922,-2.013,-5.865,5.865,-23.46
1.59,1.485,8.43,3.066,23.46,-0.335,8.526,-2.682,23.46,0.288,9.635,-2.157,-5.865,0.0,-23.46
1.595,1.485,8.478,3.209,29.326,-0.287,8.526,-2.826,29.326,0.719,8.916,-2.876,-5.865,-5.865,-23.46
1.6,1.677,8.622,2.874,23.46,-0.431,8.814,-2.491,23.46,1.007,8.772,-3.307,0.0,0.0,-23.46
1.605,1.485,9.005,2.778,23.46,-0.144,9.053,-2.347,23.46,1.15,8.916,-2.876,5.865,0.0,-23.46
1.61,1.485,9.484,2.874,23.46,0.048,9.628,-2.491,23.46,1.007,9.203,-2.732,5.865,0.0,-23.46
1.615,1.437,9.293,2.826,23.46,-0.048,9.484,-2.443,23.46,1.15,9.778,-2.876,5.865,0.0,-23.46
1.62,1.15,9.293,2.874,23.46,0.287,9.532,-2.491,23.46,1.007,9.635,-2.732,5.865,0.0,-17.595
1.625,1.102,9.245,2.97,29.326,0.24,9.532,-2.635,29.326,0.719,9.635,-2.876,5.865,0.0,-23.46
1.6300000000000001,1.054,9.149,3.114,29.326,0.287,9.436,-2.73,29.326,0.575,9.491,-2.876,5.865,0.0,-23.46
1.635,0.91,9.197,3.353,29.326,0.479,9.628,-2.97,29.326,0.431,9.347,-3.02,5.865,0.0,-23.46
1.6400000000000001,0.91,9.149,3.353,29.326,0.383,9.532,-3.018,29.326,0.431,9.203,-3.307,5.865,0.0,-23.46
1.645,0.862,9.245,3.305,35.191,0.479,9.58,-2.922,35.191,0.431,9.059,-3.307,5.865,0.0,-23.46
1.6500000000000001,0.766,9.436,3.161,29.326,0.671,9.772,-2.778,35.191,0.288,9.347,-3.307,5.865,0.0,-29.326
1.655,0.766,9.676,3.209,35.191,0.623,10.011,-2.874,35.191,0.288,9.491,-3.164,0.0,5.865,-29.326
1.6600000000000001,0.814,9.724,3.209,35.191,0.671,10.059,-2.826,35.191,0.288,9.635,-3.164,0.0,5.865,-35.191
1.665,0.719,9.724,3.401,35.191,0.766,10.107,-3.066,35.191,0.288,9.778,-3.164,-5.865,5.865,-35.191
1.67,1.245,9.341,4.263,35.191,-0.096,9.628,-3.976,29.326,0.288,9.635,-3.307,-5.865,5.865,-35.191
1.675,1.198,8.335,3.88,23.46,-0.048,8.191,-3.545,23.46,0.144,9.059,-4.17,-5.865,0.0,-29.326
1.68,0.096,8.478,3.545,5.865,1.533,8.766,-3.066,5.865,0.431,8.772,-4.026,-11.73,5.865,-23.46
1.685,0.0,9.245,3.114,5.865,1.198,9.484,-2.778,5.865,0.144,8.484,-3.595,-11.73,5.865,-5.865
1.69,0.479,9.867,3.257,11.73,0.862,10.107,-2.922,11.73,-0.719,9.203,-3.164,-11.73,5.865,-5.865
1.695,0.91,10.011,3.593,11.73,0.623,10.346,-3.209,11.73,-0.431,9.922,-3.164,-11.73,5.865,-5.865
1.7,0.862,9.867,3.64,11.73,0.671,10.203,-3.257,11.73,0.288,10.066,-3.451,-11.73,5.865,-11.73
1.705,0.623,9.628,3.257,11.73,0.766,9.628,-2.874,11.73,0.431,9.922,-3.595,-17.595,5.865,-11.73
1.71,0.766,9.532,3.066,11.73,0.527,9.388,-2.682,11.73,0.144,10.066,-3.307,-17.595,5.865,-11.73
1.715,1.006,9.58,3.161,5.865,0.431,9.484,-2.73,11.73,0.0,10.21,-3.02,-17.595,5.865,-5.865
1.72,1.102,9.676,3.353,11.73,0.431,9.772,-2.97,5.865,0.431,10.21,-3.164,-11.73,5.865,-5.865
1.725,1.054,9.82,3.353,5.865,0.431,9.963,-2.97,5.865,0.719,10.066,-3.307,-5.865,5.865,-5.865
1.73,1.006,9.915,3.209,5.865,0.479,10.011,-2.826,5.865,0.719,10.066,-3.451,-5.865,5.865,-5.865
1.735,1.054,9.915,3.161,5.865,0.431,10.011,-2.73,5.865,0.575,10.21,-3.307,-5.865,5.865,-5.865
1.74,1.006,9.867,3.018,-0.0,0.431,9.963,-2.635,0.0,0.575,10.21,-3.164,0.0,5.865,0.0
1.745,0.862,9.724,2.826,-0.0,0.575,9.772,-2.443,0.0,0.575,10.21,-3.02,0.0,5.865,0.0
1.75,0.862,9.628,2.826,-0.0,0.575,9.676,-2.443,0.0,0.431,10.21,-2.876,0.0,0.0,5.865
1.7550000000000001,0.862,9.628,2.97,-0.0,0.527,9.628,-2.587,5.865,0.431,10.066,-2.876,0.0,0.0,5.865
1.76,0.766,9.628,3.066,5.865,0.479,9.628,-2.682,5.865,0.431,10.066,-2.876,5.865,0.0,0.0
1.7650000000000001,0.048,10.107,3.066,5.865,0.24,9.58,-2.635,0.0,0.288,10.066,-3.02,5.865,0.0,0.0
1.77,0.862,9.532,3.018,17.595,1.245,9.58,-2.73,-5.865,-0.288,10.21,-3.02,5.865,0.0,-5.865
1.7750000000000001,0.91,9.293,3.066,23.46,0.671,9.388,-2.682,0.0,-0.144,10.066,-3.02,5.865,0.0,-17.595
1.78,0.862,9.149,2.922,23.46,0.623,9.436,-2.539,0.0,0.288,9.635,-3.164,5.865,0.0,-23.46
1.7850000000000001,0.766,9.101,3.018,17.595,0.719,9.484,-2.635,0.0,0.431,9.203,-2.876,5.865,5.865,-17.595
1.79,0.671,9.149,3.018,17.595,0.671,9.532,-2.587,0.0,0.288,9.203,-2.876,5.865,5.865,-17.595
1.795,0.575,9.197,2.97,17.595,0.719,9.388,-2.587,-5.865,0.144,9.203,-3.02,5.865,0.0,-11.73
1.8,0.527,9.005,2.922,11.73,0.719,9.293,-2.539,-5.865,0.0,9.347,-3.02,5.865,0.0,-11.73
1.805,0.527,8.957,2.922,11.73,0.671,9.197,-2.539,-5.865,0.0,9.203,-2.876,5.865,5.865,-11.73
1.81,0.479,8.814,3.018,11.73,0.719,9.149,-2.635,-5.865,0.0,9.203,-2.876,5.865,5.865,-11.73
1.815,0.479,8.814,3.066,11.73,0.671,9.101,-2.682,-5.865,-0.144,9.059,-2.876,5.865,5.865,-5.865
1.82,0.527,8.814,3.066,5.865,0.623,9.101,-2.635,-5.865,-0.144,8.916,-3.02,5.865,5.865,-5.865
1.825,0.575,8.909,2.97,-0.0,0.623,9.197,-2.587,-11.73,-0.144,8.916,-3.02,5.865,5.865,-5.865
1.83,0.575,8.814,2.922,-0.0,0.623,9.101,-2.539,-11.73,0.0,9.059,-3.02,5.865,5.865,0.0
1.835,0.527,8.814,2.874,-0.0,0.623,9.053,-2.491,-11.73,0.0,9.059,-2.876,5.865,5.865,0.0
1.84,0.527,8.766,2.874,-0.0,0.671,9.053,-2.491,-11.73,0.0,8.916,-2.876,5.865,5.865,0.0
1.845,0.575,8.766,2.826,-0.0,0.623,9.053,-2.443,-11.73,0.0,8.916,-2.876,5.865,5.865,5.865
1.85,0.623,8.862,2.874,-0.0,0.575,9.053,-2.491,-5.865,0.0,8.916,-2.876,5.865,5.865,0.0
1.855,0.719,8.957,2.922,-0.0,0.479,9.197,-2.539,-5.865,0.288,8.916,-2.876,5.865,5.865,0.0
1.86,0.814,9.149,2.922,-0.0,0.383,9.341,-2.491,-5.865,0.288,9.203,-2.876,5.865,0.0,0.0
1.865,0.766,9.293,2.826,-0.0,0.431,9.436,-2.443,-5.865,0.431,9.491,-2.876,5.865,0.0,0.0
1.87,0.814,9.388,2.826,-0.0,0.431,9.532,-2.443,0.0,0.431,9.635,-2.876,5.865,0.0,0.0
1.875,0.814,9.341,2.874,5.865,0.431,9.532,-2.443,0.0,0.288,9.778,-2.876,5.865,0.0,0.0
1.8800000000000001,0.766,9.245,2.874,5.865,0.479,9.484,-2.491,0.0,0.431,9.635,-2.876,5.865,0.0,0.0
1.885,0.671,9.149,2.97,5.865,0.479,9.436,-2.587,5.865,0.288,9.491,-2.876,5.865,-5.865,0.0
1.8900000000000001,0.623,9.101,2.97,5.865,0.479,9.293,-2.587,5.865,0.288,9.347,-2.876,5.865,-5.865,0.0
1.895,0.623,9.005,2.97,5.865,0.479,9.245,-2.587,5.865,0.0,9.347,-3.02,5.865,-5.865,0.0
1.9000000000000001,0.671,8.957,2.97,5.865,0.479,9.149,-2.539,5.865,0.0,9.203,-3.02,5.865,-5.865,0.0
1.905,0.671,8.909,2.922,5.865,0.431,9.101,-2.491,5.865,0.144,9.203,-2.876,5.865,-5.865,0.0
1.9100000000000001,0.719,8.862,2.826,5.865,0.431,9.101,-2.443,5.865,0.288,9.059,-2.876,5.865,-5.865,0.0
1.915,0.719,8.814,2.73,5.865,0.383,9.053,-2.347,5.865,0.288,9.059,-2.876,5.865,-5.865,-5.865
1.92,0.719,8.862,2.635,5.865,0.383,9.101,-2.251,5.865,0.288,8.916,-2.732,5.865,-5.865,0.0
1.925,0.623,8.909,2.635,5.865,0.431,9.101,-2.251,5.865,0.288,8.916,-2.588,5.865,-5.865,0.0
1.93,0.575,8.909,2.682,5.865,0.479,9.101,-2.251,5.865,0.144,9.059,-2.588,5.865,-5.865,0.0
1.935,0.575,8.909,2.682,5.865,0.479,9.149,-2.299,5.865,0.0,9.059,-2.588,5.865,-5.865,0.0
1.94,0.575,9.005,2.682,5.865,0.479,9.197,-2.299,5.865,0.0,9.059,-2.588,5.865,-5.865,0.0
1.945,0.575,9.053,2.635,5.865,0.479,9.245,-2.251,5.865,0.0,9.203,-2.732,5.865,-5.865,-5.865
1.95,0.575,9.149,2.539,11.73,0.527,9.388,-2.156,11.73,0.0,9.347,-2.588,5.865,-5.865,-5.865
1.955,0.575,9.245,2.491,11.73,0.527,9.484,-2.108,11.73,0.0,9.347,-2.588,5.865,0.0,-5.865
1.96,0.671,9.341,2.491,11.73,0.479,9.628,-2.108,11.73,0.0,9.347,-2.445,5.865,0.0,-11.73
1.965,0.671,9.484,2.491,11.73,0.527,9.82,-2.06,17.595,0.144,9.491,-2.445,5.865,0.0,-11.73
1.97,0.671,9.628,2.491,17.595,0.575,10.011,-2.06,17.595,0.288,9.491,-2.445,5.865,0.0,-11.73
1.975,0.671,9.82,2.443,17.595,0.479,10.155,-2.06,17.595,0.288,9.635,-2.445,5.865,0.0,-17.595
1.98,0.671,9.772,2.395,17.595,0.575,10.059,-1.964,17.595,0.144,9.778,-2.445,5.865,0.0,-17.595
1.985,0.671,9.82,2.443,17.595,0.527,10.059,-2.06,17.595,0.144,9.922,-2.301,0.0,-5.865,-17.595
1.99,0.766,9.867,2.203,17.595,0.575,10.251,-1.724,17.595,0.144,9.922,-2.445,0.0,-5.865,-11.73
1.995,1.198,10.346,0.144,17.595,0.719,11.544,0.766,17.595,0.288,9.922,-2.301,0.0,-5.865,-11.73
2.0,1.15,9.867,1.198,17.595,0.0,10.011,-0.862,17.595,1.726,8.772,0.863,-5.865,-5.865,-11.73
2.005,0.766,10.059,1.82,17.595,0.431,10.299,-1.437,17.595,0.575,10.21,-0.863,-17.595,-17.595,-11.73
2.0100000000000002,1.006,10.155,1.724,11.73,-0.144,10.299,-1.293,11.73,0.288,10.21,-1.869,-23.46,-17.595,-11.73
2.015,0.958,10.299,2.347,11.73,-0.144,10.634,-2.251,11.73,0.0,10.21,-1.869,-23.46,-17.595,-11.73
2.02,0.623,9.82,1.629,5.865,0.575,9.532,-1.198,5.865,0.0,10.354,-1.726,-23.46,-17.595,-5.865
2.025,0.719,9.388,1.198,11.73,0.192,8.862,-0.719,11.73,0.288,10.641,-1.869,-23.46,-11.73,-5.865
2.0300000000000002,0.719,9.532,1.006,11.73,0.479,9.436,-0.575,11.73,0.0,10.497,-1.294,-23.46,-11.73,-5.865
2.035,0.862,9.867,1.102,11.73,0.431,10.107,-0.671,11.73,0.288,10.21,-1.007,-11.73,-11.73,-11.73
2.04,0.91,9.915,1.15,11.73,0.431,10.346,-0.719,17.595,0.431,10.066,-1.007,0.0,-11.73,-11.73
2.045,0.91,10.011,0.958,11.73,0.479,10.49,-0.527,11.73,0.719,9.922,-1.007,0.0,-11.73,-11.73
2.05,0.719,10.251,0.719,11.73,0.671,10.778,-0.287,11.73,0.719,9.778,-0.863,0.0,-11.73,-11.73
2.055,0.766,10.586,0.096,11.73,0.479,10.873,0.431,11.73,0.431,10.066,-0.575,-5.865,-17.595,-11.73
2.06,0.479,10.346,-0.335,11.73,1.293,10.346,0.91,11.73,0.144,10.354,-0.575,-5.865,-17.595,-11.73
2.065,0.814,9.867,-1.82,17.595,0.91,9.532,2.443,17.595,0.575,10.785,0.144,-11.73,-23.46,-11.73
2.07,0.814,9.436,-2.156,17.595,1.389,7.904,4.215,17.595,1.007,10.929,1.726,-11.73,-29.326,-11.73
2.075,0.91,8.335,-3.736,23.46,0.144,7.616,3.545,17.595,1.007,10.497,2.013,-5.865,-35.191,-17.595
2.08,0.766,8.909,-1.964,17.595,0.91,9.005,2.587,17.595,0.863,9.922,3.739,5.865,-46.921,-17.595
2.085,1.006,9.58,-0.719,17.595,0.383,10.155,1.054,17.595,1.15,9.347,2.301,29.326,-52.786,-17.595
2.09,1.054,10.203,0.096,23.46,0.24,11.065,0.335,23.46,0.863,9.347,1.007,41.056,-64.516,-17.595
2.095,0.91,10.634,0.527,23.46,0.479,11.736,-0.144,17.595,0.719,9.635,0.144,41.056,-70.381,-17.595
2.1,0.766,10.634,0.671,23.46,0.671,11.879,-0.24,23.46,0.575,9.778,-0.431,29.326,-76.246,-17.595
2.105,0.671,10.442,0.766,29.326,0.862,11.496,-0.335,29.326,0.431,9.635,-0.575,23.46,-76.246,-17.595
2.11,0.623,10.155,0.91,35.191,0.958,11.017,-0.431,35.191,0.575,9.635,-0.719,5.865,-76.246,-23.46
2.115,0.527,9.963,1.293,35.191,1.054,10.634,-0.862,35.191,0.575,9.635,-0.863,-5.865,-82.111,-29.326
2.12,0.383,9.676,2.06,35.191,1.15,10.251,-1.581,35.191,0.575,9.635,-1.15,-17.595,-87.977,-35.191
2.125,0.144,9.484,3.114,35.191,1.293,9.867,-2.682,35.191,0.431,9.491,-1.869,-29.326,-93.842,-35.191
2.13,-0.144,9.245,4.598,35.191,1.437,9.484,-4.167,35.191,0.0,9.491,-2.876,-35.191,-99.707,-35.191
2.1350000000000002,-0.335,9.197,6.323,35.191,1.341,9.293,-5.988,35.191,-0.431,9.347,-4.314,-41.056,-105.572,-35.191
2.14,-0.479,9.341,8.191,35.191,1.341,9.388,-7.951,35.191,-0.863,9.347,-6.04,-41.056,-111.437,-35.191
2.145,-0.671,9.628,10.011,35.191,1.293,9.724,-9.772,29.326,-1.438,9.491,-7.909,-41.056,-111.437,-29.326
2.15,-0.766,9.867,11.352,29.326,1.198,10.059,-11.209,29.326,-1.726,9.491,-9.778,-41.056,-111.437,-29.326
2.1550000000000002,-1.054,9.915,12.406,29.326,1.389,10.011,-12.31,29.326,-2.445,9.922,-11.216,-41.056,-105.572,-23.46
2.16,-1.15,9.82,13.125,29.326,1.389,9.82,-13.029,29.326,-2.732,9.922,-12.367,-41.056,-93.842,-23.46
2.165,-1.198,9.628,13.556,35.191,1.389,9.532,-13.46,29.326,-3.02,10.066,-13.23,-41.056,-76.246,-23.46
2.17,-1.198,9.388,13.747,35.191,1.389,9.197,-13.604,35.191,-3.164,9.922,-13.661,-41.056,-58.651,-29.326
2.1750000000000003,-1.15,9.101,13.604,35.191,1.341,8.814,-13.508,35.191,-3.02,9.778,-13.805,-41.056,-41.056,-35.191
2.18,-1.006,8.718,13.364,35.191,1.245,8.335,-13.22,35.191,-3.02,9.635,-13.805,-41.056,-23.46,-35.191
2.185,-0.862,8.239,12.981,35.191,1.15,7.664,-12.789,35.191,-2.732,9.347,-13.517,-35.191,-11.73,-35.191
2.19,-0.671,7.856,12.55,29.326,0.958,7.233,-12.31,29.326,-2.445,9.059,-13.23,-29.326,5.865,-29.326
2.195,-0.623,7.52,12.071,23.46,0.862,6.946,-11.831,23.46,-2.301,8.772,-12.798,-23.46,23.46,-29.326
2.2,-0.479,7.281,11.496,17.595,0.719,6.802,-11.209,17.595,-2.157,8.484,-12.367,-11.73,35.191,-23.46
2.205,-0.431,7.185,10.778,11.73,0.719,6.85,-10.538,17.595,-2.013,8.053,-11.792,-5.865,46.921,-17.595
2.21,-0.335,7.089,9.963,11.73,0.766,6.898,-9.628,11.73,-1.869,7.765,-11.073,5.865,64.516,-11.73
2.215,-0.096,7.089,8.957,5.865,0.671,7.233,-8.526,5.865,-1.726,7.478,-10.21,5.865,76.246,-11.73
2.22,0.096,7.041,7.712,5.865,0.479,7.233,-7.329,5.865,-1.294,7.19,-9.347,17.595,87.977,-5.865
2.225,0.479,6.946,6.61,5.865,0.144,7.137,-6.275,5.865,-1.007,7.19,-8.053,17.595,93.842,0.0
2.23,0.862,6.898,5.509,-0.0,0.048,7.233,-4.982,5.865,-0.431,7.046,-7.046,17.595,99.707,0.0
2.235,0.91,6.802,4.119,-0.0,0.144,7.041,-3.593,0.0,0.288,6.902,-5.752,17.595,105.572,0.0
2.24,1.054,6.658,2.635,-0.0,0.096,6.754,-2.06,0.0,0.719,6.902,-4.458,5.865,111.437,5.865
2.245,1.341,6.562,1.581,-5.865,-0.192,6.467,-1.006,-5.865,0.863,6.902,-3.02,5.865,111.437,5.865
2.25,1.341,6.514,0.91,-5.865,-0.096,6.514,-0.287,-5.865,1.15,7.046,-1.726,5.865,111.437,5.865
2.255,1.437,6.658,0.24,-11.73,-0.192,6.754,0.383,-11.73,1.438,6.902,-1.007,5.865,105.572,11.73
2.2600000000000002,1.389,6.993,-0.192,-11.73,-0.096,7.041,0.766,-11.73,1.582,7.046,-0.288,17.595,99.707,11.73
2.265,1.437,7.329,-0.527,-17.595,-0.096,7.568,1.054,-11.73,1.438,7.334,0.144,17.595,93.842,17.595
2.27,1.533,7.616,-0.766,-17.595,-0.24,7.999,1.293,-17.595,1.438,7.478,0.575,23.46,87.977,17.595
2.275,1.581,7.856,-0.862,-17.595,-0.192,8.239,1.389,-11.73,1.582,7.621,0.863,23.46,82.111,17.595
2.2800000000000002,1.677,7.999,-1.006,-17.595,-0.287,8.43,1.533,-17.595,1.582,7.765,0.863,23.46,76.246,17.595
2.285,1.677,8.191,-1.15,-17.595,-0.287,8.526,1.629,-17.595,1.726,7.909,1.15,17.595,70.381,17.595
2.29,1.533,8.383,-1.198,-17.595,-0.144,8.67,1.677,-17.595,1.726,8.34,1.294,17.595,64.516,17.595
2.295,1.533,8.574,-1.15,-17.595,-0.096,8.862,1.677,-17.595,1.582,8.484,1.294,17.595,52.786,23.46
2.3000000000000003,1.533,8.909,-1.102,-11.73,0.0,9.388,1.581,-11.73,1.582,8.772,1.294,17.595,46.921,17.595
2.305,1.341,9.341,-1.006,-11.73,0.287,9.963,1.485,-11.73,1.582,8.916,1.294,5.865,41.056,17.595
2.31,1.006,10.442,-0.766,-5.865,0.814,11.736,1.198,0.0,1.582,9.203,1.15,5.865,35.191,11.73
2.315,0.575,12.358,-0.335,5.865,1.389,14.083,0.671,11.73,1.294,9.491,1.007,5.865,29.326,11.73
2.32,0.527,12.167,-0.287,29.326,1.006,12.789,0.671,29.326,0.863,10.785,0.575,0.0,17.595,0.0
2.325,0.862,11.017,-0.287,46.921,0.575,11.4,0.671,46.921,0.288,11.935,0.431,-17.595,11.73,-23.46
2.33,0.958,10.49,0.048,52.786,0.623,10.969,0.431,52.786,0.431,11.36,0.431,-29.326,0.0,-41.056
2.335,0.91,9.628,0.623,52.786,0.527,9.915,-0.192,46.921,0.863,10.497,0.144,-29.326,0.0,-46.921
2.34,0.527,8.909,1.389,41.056,0.671,8.909,-1.006,41.056,0.863,9.778,-0.431,-35.191,-5.865,-46.921
2.345,0.096,9.005,2.156,41.056,0.958,8.814,-1.724,35.191,0.288,9.203,-1.15,-41.056,-11.73,-41.056
2.35,-0.096,9.149,2.539,29.326,1.054,8.766,-2.156,29.326,-0.431,9.491,-2.013,-41.056,-17.595,-35.191
2.355,-0.048,9.053,2.97,23.46,1.054,8.718,-2.539,23.46,-0.863,9.922,-2.445,-35.191,-17.595,-29.326
2.36,-0.192,9.101,3.497,23.46,1.198,8.909,-3.161,23.46,-0.863,9.922,-2.876,-29.326,-17.595,-23.46
2.365,-0.335,9.197,4.024,17.595,1.341,9.197,-3.64,17.595,-0.863,9.635,-3.451,-23.46,-11.73,-17.595
2.37,-0.383,9.197,4.359,17.595,1.389,9.245,-3.976,17.595,-1.007,9.491,-3.883,-17.595,-11.73,-17.595
2.375,-0.527,9.149,4.551,11.73,1.581,9.197,-4.167,11.73,-1.15,9.491,-4.314,-11.73,-11.73,-11.73
2.38,-0.719,9.005,4.598,5.865,1.724,9.053,-4.215,5.865,-1.294,9.347,-4.458,-11.73,-11.73,-11.73
2.3850000000000002,-0.814,8.718,4.598,-0.0,1.772,8.766,-4.215,0.0,-1.438,9.203,-4.602,-11.73,-5.865,-5.865
2.39,-0.862,8.526,4.598,-0.0,1.82,8.574,-4.215,0.0,-1.582,9.059,-4.602,-5.865,-5.865,0.0
2.395,-0.862,8.43,4.503,-5.865,1.772,8.43,-4.119,0.0,-1.726,8.772,-4.602,-5.865,0.0,0.0
2.4,-0.671,8.43,4.503,-5.865,1.724,8.478,-4.119,-5.865,-1.726,8.628,-4.458,-5.865,0.0,5.865
2.4050000000000002,-0.623,8.67,4.215,-5.865,1.581,8.622,-3.88,-5.865,-1.582,8.916,-4.458,-5.865,5.865,5.865
2.41,-0.527,8.957,4.167,-5.865,1.629,8.957,-3.784,-5.865,-1.294,8.916,-4.314,0.0,5.865,5.865
2.415,-0.24,9.149,4.072,-5.865,1.293,9.101,-3.64,-5.865,-1.438,9.347,-4.17,0.0,5.865,5.865
2.42,-0.144,9.293,3.88,-5.865,1.198,9.197,-3.497,-5.865,-0.719,9.491,-4.026,5.865,11.73,11.73
2.4250000000000003,-0.096,9.293,3.688,-5.865,1.198,9.245,-3.257,-5.865,-0.863,9.778,-3.883,5.865,11.73,5.865
2.43,-0.192,9.053,3.305,-5.865,1.293,9.101,-2.874,-5.865,-0.719,9.778,-3.739,5.865,11.73,5.865
2.435,-0.192,8.957,2.97,-5.865,1.341,9.101,-2.539,0.0,-0.719,9.491,-3.307,17.595,11.73,5.865
2.44,-0.144,8.909,2.73,-0.0,1.293,9.197,-2.299,0.0,-0.719,9.347,-3.02,17.595,11.73,5.865
2.445,-0.144,8.909,2.587,5.865,1.341,9.245,-2.203,5.865,-0.575,9.059,-2.732,23.46,11.73,0.0
2.45,-0.144,9.053,2.587,5.865,1.293,9.484,-2.156,5.865,-0.719,9.059,-2.588,23.46,11.73,0.0
2.455,-0.096,9.245,2.491,11.73,1.293,9.724,-2.108,11.73,-0.575,8.916,-2.588,23.46,11.73,-5.865
2.46,-0.048,9.245,2.491,11.73,1.245,9.772,-2.108,11.73,-0.575,9.059,-2.445,17.595,11.73,-5.865
2.465,-0.096,9.149,2.491,11.73,1.293,9.724,-2.06,11.73,-0.575,9.059,-2.445,5.865,11.73,-11.73
2.47,-0.192,9.053,2.539,17.595,1.341,9.58,-2.156,17.595,-0.575,8.916,-2.445,5.865,5.865,-11.73
2.475,-0.287,8.862,2.778,17.595,1.389,9.341,-2.395,17.595,-0.719,8.916,-2.445,5.865,5.865,-11.73
2.48,-0.335,8.67,2.922,17.595,1.437,9.005,-2.539,17.595,-0.863,8.772,-2.732,0.0,5.865,-11.73
2.485,-0.383,8.526,3.161,11.73,1.437,8.862,-2.778,11.73,-0.863,8.628,-2.876,-5.865,5.865,-11.73
2.49,-0.575,8.43,3.401,11.73,1.629,8.766,-3.018,11.73,-1.007,8.484,-3.02,-11.73,5.865,-11.73
2.495,-0.24,9.293,3.64,11.73,1.533,8.957,-3.257,11.73,-1.15,8.34,-3.307,-17.595,5.865,-11.73
2.5,0.0,8.718,3.832,5.865,1.15,9.149,-3.449,11.73,-1.15,7.909,-3.595,-17.595,5.865,-5.865
2.505,-0.048,9.053,3.736,5.865,1.15,8.957,-3.305,11.73,-0.719,8.34,-3.883,-17.595,5.865,-5.865
2.5100000000000002,-0.24,8.862,3.64,5.865,1.389,9.101,-3.257,5.865,-0.575,9.347,-3.739,-11.73,5.865,0.0
2.515,-0.096,9.245,3.545,5.865,1.245,9.293,-3.161,5.865,-0.575,9.491,-3.739,-11.73,0.0,5.865
2.52,-0.287,9.149,3.64,-0.0,1.389,9.341,-3.305,0.0,-0.575,9.491,-3.595,-11.73,0.0,11.73
2.525,-0.287,9.293,3.64,-0.0,1.389,9.341,-3.257,0.0,-0.719,9.922,-3.739,-11.73,0.0,11.73
2.5300000000000002,-0.24,9.484,3.545,-0.0,1.389,9.58,-3.161,0.0,-0.719,10.21,-3.595,-5.865,0.0,11.73
2.535,-0.24,9.628,3.449,-0.0,1.437,9.628,-3.018,0.0,-0.863,9.635,-3.595,-5.865,0.0,11.73
2.54,-0.287,9.293,3.401,-0.0,1.533,9.628,-3.066,0.0,-0.863,9.635,-3.451,-5.865,0.0,11.73
2.545,-0.144,9.772,3.353,5.865,1.485,9.628,-2.97,5.865,-0.863,9.059,-3.451,0.0,0.0,11.73
2.5500000000000003,-0.479,8.574,3.497,5.865,1.581,9.245,-3.018,5.865,-1.007,8.628,-3.451,0.0,0.0,11.73
2.555,-0.527,8.718,3.545,5.865,1.629,9.101,-3.114,5.865,-0.719,9.635,-3.307,0.0,0.0,11.73
2.56,-0.431,8.957,3.545,5.865,1.533,9.197,-3.209,5.865,-0.863,9.922,-3.451,0.0,0.0,5.865
2.565,-0.335,9.101,3.449,11.73,1.437,9.293,-3.066,11.73,-1.007,9.203,-3.595,-5.865,5.865,0.0
2.57,-0.575,8.814,3.353,11.73,1.581,9.101,-2.97,11.73,-1.007,8.772,-3.451,-11.73,5.865,0.0
2.575,-0.479,9.053,3.401,11.73,1.629,9.101,-3.018,11.73,-1.007,9.203,-3.307,-11.73,5.865,0.0
2.58,-0.383,9.197,3.449,11.73,1.533,9.293,-3.018,11.73,-1.15,9.059,-3.307,-11.73,5.865,0.0
2.585,-0.24,9.245,3.401,11.73,1.485,9.293,-2.922,11.73,-1.007,8.772,-3.451,-11.73,5.865,0.0
2.59,-0.287,9.197,3.353,11.73,1.485,9.341,-2.922,17.595,-0.863,9.059,-3.451,-11.73,5.865,0.0
2.595,-0.24,9.245,3.305,11.73,1.581,9.293,-2.874,11.73,-0.719,8.916,-3.451,-11.73,5.865,0.0
2.6,-0.719,8.526,3.353,11.73,1.629,8.862,-3.114,11.73,-0.719,9.203,-3.307,-5.865,5.865,0.0
2.605,-0.431,9.388,3.545,11.73,1.677,9.197,-3.161,11.73,-0.719,10.066,-3.307,-5.865,5.865,5.865
2.61,-0.623,8.574,3.545,11.73,1.485,8.957,-3.209,11.73,-0.863,9.059,-3.451,-5.865,5.865,5.865
2.615,-0.671,8.67,3.593,11.73,1.868,9.053,-3.161,11.73,-0.863,9.347,-3.595,-5.865,5.865,0.0
2.62,-0.479,9.005,3.64,11.73,1.533,9.149,-3.257,11.73,-0.719,9.347,-3.595,-5.865,5.865,0.0
2.625,-0.671,8.862,3.545,17.595,1.772,8.957,-3.066,17.595,-1.007,8.916,-3.739,-5.865,5.865,0.0
2.63,-0.623,8.622,3.497,17.595,1.581,8.909,-3.161,17.595,-1.007,9.203,-3.595,-5.865,5.865,-5.865
2.6350000000000002,-0.431,8.909,3.593,17.595,1.533,9.053,-3.209,17.595,-1.007,9.347,-3.595,-5.865,5.865,-5.865
2.64,-0.431,9.053,3.545,17.595,1.629,9.005,-3.161,17.595,-0.863,8.916,-3.595,-5.865,5.865,-5.865
2.645,-0.479,8.814,3.545,17.595,1.629,9.005,-3.161,17.595,-0.719,9.203,-3.595,-5.865,11.73,-5.865
2.65,-0.287,9.293,3.64,17.595,1.485,9.245,-3.209,17.595,-0.575,9.635,-3.595,-5.865,5.865,-5.865
2.6550000000000002,-0.287,9.197,3.64,11.73,1.437,9.293,-3.257,17.595,-0.575,9.635,-3.595,0.0,5.865,-5.865
2.66,-0.383,9.101,3.593,11.73,1.533,9.197,-3.209,11.73,-0.575,9.491,-3.595,0.0,5.865,-5.865
2.665,-0.383,9.197,3.64,5.865,1.533,9.245,-3.257,11.73,-0.575,9.635,-3.595,0.0,5.865,-5.865
2.67,-0.479,9.149,3.64,5.865,1.581,9.245,-3.209,5.865,-0.575,9.635,-3.595,0.0,5.865,0.0
2.6750000000000003,-0.479,9.149,3.64,5.865,1.629,9.293,-3.257,5.865,-0.719,9.635,-3.595,0.0,5.865,0.0
2.68,-0.431,9.293,3.736,-0.0,1.629,9.436,-3.353,0.0,-0.719,9.491,-3.595,0.0,5.865,0.0
2.685,-0.431,9.484,3.784,-0.0,1.724,9.532,-3.401,0.0,-0.719,9.491,-3.739,5.865,5.865,0.0
2.69,-0.431,9.628,3.784,-0.0,1.677,9.676,-3.401,0.0,-0.575,9.778,-3.739,5.865,5.865,0.0
2.695,-0.383,9.724,3.832,-0.0,1.581,9.867,-3.401,0.0,-0.575,9.922,-3.883,5.865,5.865,0.0
2.7,-0.431,9.82,3.784,-0.0,1.629,9.915,-3.449,0.0,-0.719,10.066,-3.883,5.865,0.0,0.0
2.705,-0.479,9.772,3.784,-0.0,1.677,9.915,-3.401,0.0,-0.719,10.066,-3.883,5.865,0.0,0.0
2.71,-0.479,9.676,3.736,5.865,1.677,9.867,-3.353,5.865,-0.719,10.066,-3.739,5.865,0.0,0.0
2.715,-0.527,9.484,3.688,5.865,1.677,9.724,-3.353,5.865,-0.863,9.922,-3.739,5.865,0.0,0.0
2.72,-0.575,9.293,3.688,5.865,1.724,9.532,-3.305,5.865,-0.863,9.778,-3.739,5.865,0.0,-5.865
2.725,-0.575,9.101,3.688,5.865,1.724,9.341,-3.305,11.73,-0.863,9.491,-3.739,5.865,0.0,-5.865
2.73,-0.575,8.957,3.736,5.865,1.677,9.149,-3.353,11.73,-0.863,9.203,-3.739,5.865,0.0,-5.865
2.735,-0.479,8.862,3.688,11.73,1.581,9.053,-3.305,5.865,-0.863,9.059,-3.739,5.865,0.0,-5.865
2.74,-0.383,8.862,3.688,5.865,1.485,9.053,-3.257,5.865,-0.863,9.059,-3.739,5.865,0.0,-5.865
2.745,-0.287,9.005,3.593,5.865,1.485,9.245,-3.209,5.865,-0.719,9.059,-3.739,5.865,0.0,-5.865
2.75,-0.24,9.197,3.401,5.865,1.389,9.436,-3.018,0.0,-0.575,9.059,-3.595,5.865,0.0,0.0
2.755,-0.096,9.388,3.114,-0.0,1.437,9.724,-2.682,0.0,-0.575,9.347,-3.451,5.865,0.0,0.0
2.7600000000000002,-0.335,9.436,3.114,-0.0,1.533,9.772,-2.73,0.0,-0.288,9.491,-3.164,5.865,0.0,0.0
2.765,-0.335,9.436,3.066,-0.0,1.437,9.82,-2.682,0.0,-0.431,9.491,-3.164,5.865,0.0,0.0
2.77,-0.335,9.388,2.874,-0.0,1.581,9.82,-2.491,0.0,-0.719,9.491,-3.02,0.0,0.0,5.865
2.775,-0.335,9.293,2.778,-0.0,1.581,9.82,-2.347,0.0,-0.575,9.347,-2.876,0.0,0.0,5.865
2.7800000000000002,-0.335,9.58,2.539,-0.0,1.724,10.155,-2.108,0.0,-0.575,9.059,-2.732,-5.865,-5.865,5.865
2.785,-0.192,9.532,2.73,-0.0,1.533,10.059,-2.347,0.0,-0.288,9.347,-2.445,-5.865,-5.865,5.865
2.79,-0.192,9.58,2.778,-0.0,1.389,10.059,-2.395,0.0,-0.288,9.347,-2.732,-17.595,-5.865,5.865
2.795,-0.096,9.58,2.778,-0.0,1.293,9.963,-2.395,0.0,-0.431,9.347,-2.732,-23.46,-5.865,5.865
2.8000000000000003,0.0,9.532,2.73,-0.0,1.198,9.915,-2.299,0.0,-0.431,9.491,-2.732,-29.326,-11.73,5.865
2.805,0.048,9.58,2.635,-0.0,1.198,9.915,-2.251,0.0,-0.288,9.491,-2.732,-29.326,-11.73,5.865
2.81,0.048,9.724,2.539,-0.0,1.15,10.011,-2.108,0.0,-0.288,9.635,-2.732,-35.191,-11.73,0.0
2.815,0.144,9.915,2.299,5.865,1.054,10.155,-1.868,5.865,-0.288,9.778,-2.588,-35.191,-11.73,0.0
2.82,0.192,10.059,1.916,5.865,1.054,10.155,-1.485,5.865,-0.144,10.066,-2.301,-35.191,-11.73,0.0
2.825,0.192,10.059,1.245,5.865,0.91,9.867,-0.814,5.865,-0.144,10.354,-2.013,-41.056,-11.73,0.0
2.83,0.096,10.155,0.383,11.73,1.485,9.724,0.144,11.73,-0.144,10.641,-1.438,-35.191,-11.73,-5.865
2.835,1.054,10.346,-0.862,11.73,0.575,9.484,1.293,11.73,-0.288,11.216,-0.431,-29.326,-11.73,-5.865
2.84,1.006,9.341,-1.916,11.73,0.671,8.574,2.682,5.865,1.582,11.935,0.575,-23.46,-11.73,-11.73
2.845,0.671,9.101,-2.587,5.865,1.102,8.239,3.688,5.865,1.438,11.073,2.013,-5.865,-17.595,-5.865
2.85,1.102,8.287,-5.173,11.73,0.479,7.041,5.7,11.73,1.294,10.354,2.445,5.865,-23.46,-5.865
2.855,0.671,8.957,-4.167,5.865,1.293,8.862,4.79,5.865,1.294,10.354,5.321,23.46,-35.191,-5.865
2.86,0.958,9.676,-3.066,5.865,0.862,10.346,3.64,5.865,1.726,9.922,4.602,52.786,-46.921,-5.865
2.865,0.91,10.442,-2.203,11.73,0.862,11.592,2.682,11.73,1.438,9.635,3.451,70.381,-58.651,-5.865
2.87,0.862,10.873,-1.629,23.46,0.862,12.502,2.06,17.595,1.294,9.635,2.445,70.381,-70.381,-11.73
2.875,0.719,10.921,-1.198,23.46,1.102,12.741,1.677,29.326,1.15,9.635,1.726,64.516,-82.111,-17.595
2.88,0.575,10.586,-0.91,35.191,1.341,12.358,1.389,35.191,1.007,9.347,1.294,46.921,-87.977,-23.46
2.8850000000000002,0.527,10.107,-0.575,46.921,1.389,11.592,1.102,46.921,1.007,9.203,1.007,29.326,-99.707,-35.191
2.89,0.479,9.532,-0.048,52.786,1.389,10.634,0.623,52.786,1.15,8.916,0.719,5.865,-105.572,-41.056
2.895,0.431,8.957,0.766,58.651,1.389,9.628,-0.192,58.651,1.15,8.628,0.144,-17.595,-117.302,-46.921
2.9,0.287,8.526,2.108,58.651,1.389,8.957,-1.581,58.651,1.15,8.484,-0.575,-35.191,-129.032,-58.651
2.9050000000000002,0.048,8.287,3.976,58.651,1.485,8.622,-3.449,58.651,0.863,8.484,-1.869,-46.921,-140.762,-58.651
2.91,-0.24,8.239,6.371,52.786,1.533,8.574,-5.892,52.786,0.431,8.197,-3.739,-52.786,-152.493,-58.651
2.915,-0.575,8.143,8.957,52.786,1.485,8.478,-8.622,46.921,-0.144,8.053,-6.04,-52.786,-158.358,-52.786
2.92,-1.054,7.951,11.64,46.921,1.581,8.287,-11.4,46.921,-0.863,7.909,-8.628,-58.651,-170.088,-46.921
2.9250000000000003,-1.677,7.712,14.226,41.056,1.772,7.904,-14.083,41.056,-1.869,7.765,-11.36,-64.516,-170.088,-46.921
2.93,-2.156,7.377,16.43,41.056,1.916,7.425,-16.382,41.056,-3.02,7.621,-14.092,-64.516,-164.223,-41.056
2.935,-2.443,6.993,18.106,41.056,1.868,6.802,-18.106,35.191,-4.026,7.478,-16.393,-70.381,-152.493,-41.056
2.94,-2.73,6.514,19.112,35.191,2.06,5.94,-19.16,35.191,-4.745,7.334,-18.119,-70.381,-129.032,-35.191
2.945,-2.682,6.323,19.639,35.191,1.964,5.556,-19.687,29.326,-5.177,7.19,-19.269,-70.381,-105.572,-35.191
2.95,-2.587,6.083,19.639,29.326,1.82,5.125,-19.687,29.326,-5.177,7.334,-19.988,-70.381,-82.111,-29.326
2.955,-2.491,5.892,19.4,23.46,2.012,4.838,-19.352,17.595,-5.177,7.19,-19.988,-58.651,-52.786,-23.46
2.96,-2.156,5.796,18.873,11.73,1.724,4.838,-18.777,11.73,-4.745,7.046,-19.701,-46.921,-23.46,-17.595
2.965,-1.964,5.7,18.154,5.865,1.581,4.838,-18.058,5.865,-4.314,6.902,-19.269,-35.191,5.865,-11.73
2.97,-1.964,6.035,17.579,-0.0,1.677,5.509,-17.484,0.0,-4.026,6.902,-18.55,-23.46,29.326,-5.865
2.975,-1.629,6.323,16.909,-5.865,1.533,6.179,-16.765,-5.865,-3.883,6.615,-17.975,-5.865,52.786,0.0
2.98,-1.868,6.706,15.759,-11.73,1.772,6.993,-15.615,-5.865,-3.595,6.615,-17.4,0.0,76.246,5.865
2.985,-1.389,6.754,14.514,-5.865,1.389,7.137,-14.322,-5.865,-3.595,6.615,-16.249,5.865,93.842,11.73
2.99,-0.623,6.514,12.981,-5.865,1.006,7.137,-12.646,-5.865,-3.02,6.615,-15.099,5.865,111.437,11.73
2.995,-0.192,6.323,11.113,-11.73,0.814,6.898,-10.634,-11.73,-2.013,5.896,-13.517,5.865,129.032,11.73
3.0,-0.048,6.323,8.862,-17.595,0.814,6.658,-8.335,-11.73,-1.007,5.752,-11.792,-5.865,146.628,17.595
3.005,0.287,6.323,6.754,-17.595,0.335,6.371,-6.179,-17.595,-0.575,6.04,-9.491,-11.73,152.493,17.595
3.0100000000000002,0.91,5.94,4.311,-23.46,0.192,5.604,-3.64,-23.46,-0.144,6.759,-7.478,-23.46,158.358,23.46
3.015,0.958,6.275,2.635,-29.326,0.144,5.844,-1.964,-29.326,0.863,6.615,-4.889,-23.46,158.358,23.46
3.02,0.91,6.658,0.958,-29.326,0.335,6.275,-0.192,-29.326,1.007,7.19,-3.02,-17.595,158.358,35.191
3.025,1.293,6.802,-1.006,-29.326,-0.096,6.467,1.724,-29.326,1.15,7.478,-1.438,-11.73,158.358,35.191
3.0300000000000002,1.677,7.089,-2.73,-29.326,-0.24,6.898,3.401,-35.191,1.438,7.621,0.575,0.0,152.493,35.191
3.035,1.868,7.616,-4.263,-29.326,-0.287,7.616,4.934,-29.326,2.013,7.765,2.445,5.865,146.628,35.191
3.04,2.299,8.287,-5.844,-35.191,-0.527,8.383,6.61,-35.191,2.445,8.053,4.026,23.46,134.897,35.191
3.045,2.443,8.957,-7.377,-35.191,-0.431,9.149,8.143,-35.191,3.02,8.628,5.608,29.326,129.032,35.191
3.0500000000000003,2.491,9.676,-8.718,-41.056,-0.287,10.011,9.436,-41.056,3.451,9.203,7.19,29.326,117.302,41.056
3.055,2.443,10.442,-9.532,-41.056,0.048,11.017,10.203,-41.056,3.739,9.778,8.772,35.191,99.707,41.056
3.06,2.347,11.209,-9.963,-35.191,0.192,12.071,10.634,-35.191,3.883,10.497,9.635,41.056,82.111,41.056
3.065,2.251,11.783,-10.107,-29.326,0.479,12.933,10.682,-29.326,3.739,10.929,10.21,35.191,64.516,41.056
3.0700000000000003,1.916,12.119,-9.724,-17.595,0.862,13.604,10.299,-17.595,3.739,11.216,10.354,35.191,41.056,35.191
3.075,1.677,12.31,-9.197,-5.865,1.006,13.891,9.772,-5.865,3.595,11.216,10.066,23.46,17.595,23.46
3.08,1.916,12.119,-8.526,11.73,0.623,13.652,9.053,11.73,3.164,11.36,9.635,5.865,-5.865,11.73
3.085,1.868,11.831,-7.664,17.595,0.671,13.412,8.191,17.595,3.164,11.073,8.916,-5.865,-29.326,-5.865
3.09,1.629,11.783,-6.706,29.326,0.862,13.412,7.281,23.46,3.164,10.641,8.053,-23.46,-52.786,-17.595
3.095,1.389,11.544,-5.652,35.191,0.91,12.981,6.227,35.191,2.876,10.497,7.046,-41.056,-70.381,-23.46
3.1,1.15,11.113,-4.359,46.921,0.91,12.071,4.934,41.056,2.445,10.497,6.04,-58.651,-93.842,-29.326
3.105,1.198,10.73,-2.874,52.786,0.623,11.304,3.401,52.786,2.013,10.641,4.602,-76.246,-111.437,-41.056
3.11,1.245,10.155,-1.245,58.651,0.479,10.442,1.82,52.786,1.869,10.641,3.164,-87.977,-123.167,-52.786
3.115,0.91,9.58,0.575,58.651,0.623,9.484,0.0,58.651,1.726,10.354,1.582,-93.842,-140.762,-52.786
3.12,0.527,9.053,2.73,58.651,0.719,8.622,-2.203,58.651,1.294,10.066,-0.288,-99.707,-146.628,-52.786
3.125,0.24,8.718,5.221,58.651,0.671,8.047,-4.79,58.651,0.719,9.922,-2.445,-93.842,-158.358,-58.651
3.13,-0.144,8.478,7.856,52.786,0.766,7.808,-7.52,52.786,-0.144,9.778,-4.889,-87.977,-164.223,-58.651
3.1350000000000002,-0.719,8.287,10.442,52.786,1.054,7.808,-10.203,46.921,-0.863,9.635,-7.621,-76.246,-164.223,-52.786
3.14,-1.245,8.143,12.789,46.921,1.389,7.808,-12.598,46.921,-1.726,9.203,-10.21,-64.516,-158.358,-46.921
3.145,-1.677,7.808,14.61,41.056,1.629,7.568,-14.514,41.056,-2.588,8.772,-12.511,-52.786,-152.493,-46.921
3.15,-2.108,7.377,15.951,41.056,2.012,7.185,-15.855,35.191,-3.164,8.34,-14.524,-46.921,-140.762,-41.056
3.1550000000000002,-2.299,7.041,16.861,35.191,2.156,6.85,-16.813,35.191,-3.739,7.909,-15.962,-41.056,-123.167,-41.056
3.16,-2.491,6.754,17.292,35.191,2.347,6.514,-17.196,35.191,-4.026,7.478,-16.968,-41.056,-105.572,-35.191
3.165,-2.491,6.514,17.388,35.191,2.395,6.275,-17.292,29.326,-4.314,7.046,-17.4,-35.191,-82.111,-35.191
3.17,-2.443,6.323,17.292,29.326,2.395,6.035,-17.196,23.46,-4.314,6.902,-17.544,-35.191,-64.516,-29.326
3.1750000000000003,-2.443,6.227,17.1,23.46,2.443,5.988,-17.005,23.46,-4.17,6.759,-17.544,-29.326,-46.921,-23.46
3.18,-2.443,6.179,16.909,11.73,2.491,6.131,-16.765,17.595,-4.026,6.471,-17.256,-29.326,-29.326,-17.595
3.185,-2.347,6.179,16.621,11.73,2.443,6.371,-16.526,11.73,-4.026,6.327,-17.112,-23.46,-11.73,-11.73
3.19,-2.203,6.179,16.19,5.865,2.299,6.658,-16.094,5.865,-3.883,6.04,-16.825,-23.46,5.865,-11.73
3.1950000000000003,-1.82,5.7,15.328,-0.0,2.443,6.658,-14.993,0.0,-3.739,5.608,-16.537,-29.326,23.46,-5.865
3.2,-2.443,5.652,14.274,-0.0,2.73,6.275,-13.987,0.0,-3.451,5.464,-15.53,-35.191,41.056,0.0
3.205,-1.82,5.461,12.837,-0.0,2.299,5.892,-12.502,0.0,-3.307,4.745,-14.668,-46.921,58.651,5.865
3.21,-1.389,5.221,11.304,-5.865,2.06,5.604,-10.921,0.0,-2.876,5.033,-13.373,-58.651,64.516,0.0
3.215,-1.198,5.125,9.867,-5.865,1.868,5.365,-9.436,-5.865,-2.157,4.889,-11.792,-64.516,76.246,5.865
3.22,-1.054,5.461,8.574,-5.865,1.485,5.125,-8.095,-5.865,-1.726,4.889,-10.354,-76.246,82.111,5.865
3.225,0.0,5.03,7.616,-17.595,0.814,4.982,-7.089,-17.595,-2.013,5.464,-8.916,-76.246,87.977,11.73
3.23,-1.102,5.652,6.61,-17.595,2.06,5.604,-6.083,-17.595,-0.575,5.752,-8.053,-82.111,93.842,17.595
3.235,-0.862,6.275,5.317,-11.73,1.677,5.94,-4.838,-5.865,-1.007,6.04,-7.046,-76.246,93.842,23.46
3.24,-0.048,6.419,4.646,-11.73,0.862,6.227,-4.119,-11.73,-1.438,6.759,-5.608,-70.381,93.842,11.73
3.245,-0.192,6.467,4.119,-17.595,1.533,6.658,-3.593,-17.595,-0.719,6.902,-4.889,-64.516,93.842,11.73
3.25,-0.383,6.946,3.497,-11.73,1.533,7.281,-2.97,-11.73,0.0,6.759,-4.314,-58.651,93.842,17.595
3.255,0.048,7.233,2.97,-11.73,0.958,7.281,-2.491,-5.865,-0.288,6.902,-3.739,-58.651,93.842,17.595
3.2600000000000002,0.431,7.185,2.682,-11.73,0.862,7.041,-2.156,-11.73,-0.288,7.334,-3.164,-58.651,87.977,11.73
3.265,0.383,7.377,2.203,-17.595,1.054,7.425,-1.677,-17.595,0.575,7.621,-2.876,-58.651,87.977,11.73
3.27,-0.048,7.377,2.826,-23.46,0.766,7.089,-2.587,-17.595,0.863,7.621,-2.301,-58.651,82.111,23.46
3.275,0.479,7.377,1.245,-29.326,1.006,7.185,-0.719,-29.326,0.288,7.909,-2.876,-52.786,76.246,23.46
3.2800000000000002,0.0,7.616,1.437,-35.191,1.102,6.946,-0.958,-35.191,1.007,7.478,-1.438,-46.921,70.381,29.326
3.285,-0.575,8.383,1.677,-23.46,2.156,8.574,-1.102,-17.595,-0.144,9.203,-1.15,-46.921,64.516,35.191
3.29,0.431,8.143,2.06,-17.595,0.671,8.095,-1.677,-17.595,-0.288,8.628,-1.869,-35.191,64.516,23.46
3.295,0.431,7.52,2.251,-23.46,1.389,7.712,-1.724,-23.46,-0.144,8.34,-2.013,-23.46,58.651,17.595
3.3000000000000003,0.096,7.664,1.916,-29.326,1.389,8.047,-1.389,-29.326,1.007,7.909,-2.301,-23.46,52.786,23.46
3.305,0.0,7.52,1.916,-23.46,1.341,7.568,-1.437,-29.326,0.575,7.621,-1.869,-23.46,46.921,29.326
3.31,0.096,7.377,2.156,-29.326,1.293,7.377,-1.677,-29.326,0.144,7.765,-1.869,-23.46,41.056,29.326
3.315,-0.048,7.281,2.491,-29.326,1.485,7.425,-1.964,-29.326,0.288,7.765,-2.013,-23.46,29.326,29.326
3.3200000000000003,-0.048,7.137,2.874,-29.326,1.293,7.329,-2.443,-29.326,0.288,7.621,-2.301,-23.46,23.46,35.191
3.325,-0.144,7.041,3.209,-29.326,1.437,7.185,-2.778,-29.326,0.0,7.334,-2.732,-23.46,17.595,29.326
3.33,-0.431,7.808,3.353,-23.46,1.82,8.383,-2.922,-29.326,0.0,7.334,-3.164,-23.46,11.73,29.326
3.335,-0.862,16.478,2.443,-23.46,2.443,17.531,-2.108,-23.46,-0.288,7.478,-3.307,-23.46,5.865,29.326
3.34,-1.293,17.1,1.341,-11.73,4.167,18.921,-1.102,-11.73,-1.007,13.661,-2.876,-23.46,0.0,29.326
3.345,-1.293,16.43,1.533,29.326,3.257,16.478,-1.102,35.191,-1.15,16.968,-0.575,-29.326,0.0,17.595
3.35,-0.287,8.957,2.203,76.246,1.581,8.287,-1.724,82.111,-1.294,17.975,-1.582,-41.056,-5.865,-17.595
3.355,0.096,6.371,3.784,93.842,1.006,6.467,-3.401,87.977,-0.431,11.36,-1.726,-41.056,-11.73,-70.381
3.36,-0.719,6.131,5.269,64.516,1.629,6.179,-4.886,64.516,0.288,6.471,-3.451,-35.191,-23.46,-93.842
3.365,-1.581,6.754,6.131,35.191,2.251,6.179,-5.796,35.191,-0.719,5.608,-5.033,-35.191,-23.46,-70.381
3.37,-1.437,6.706,6.514,17.595,2.06,5.844,-6.083,17.595,-2.013,7.334,-6.04,-35.191,-23.46,-41.056
3.375,-1.102,6.802,6.85,11.73,1.82,5.988,-6.467,11.73,-2.301,7.909,-6.471,-35.191,-23.46,-17.595
3.38,-1.293,7.329,7.137,-0.0,2.108,6.85,-6.802,0.0,-1.726,7.909,-6.759,-23.46,-23.46,-5.865
3.3850000000000002,-1.533,7.712,7.377,-11.73,2.347,7.425,-6.993,-11.73,-1.726,8.053,-7.19,-11.73,-17.595,5.865
3.39,-1.533,7.664,7.377,-17.595,2.443,7.425,-6.993,-17.595,-2.013,8.34,-7.334,0.0,-11.73,11.73
3.395,-1.485,7.664,7.281,-17.595,2.395,7.52,-6.898,-17.595,-2.157,8.34,-7.478,5.865,-11.73,17.595
3.4,-1.581,7.808,7.137,-17.595,2.539,7.904,-6.754,-17.595,-2.013,8.053,-7.334,17.595,-5.865,23.46
3.4050000000000002,-1.533,7.951,6.993,-17.595,2.539,8.191,-6.658,-17.595,-2.013,8.053,-7.19,23.46,-5.865,23.46
3.41,-1.485,8.047,6.898,-17.595,2.539,8.335,-6.514,-17.595,-2.013,8.053,-7.046,23.46,0.0,23.46
3.415,-1.389,8.047,6.658,-11.73,2.443,8.383,-6.275,-11.73,-1.869,8.197,-6.902,23.46,0.0,23.46
3.42,-1.341,7.951,6.371,-11.73,2.443,8.287,-5.94,-11.73,-1.726,8.053,-6.759,23.46,0.0,17.595
3.4250000000000003,-1.341,7.76,6.179,-5.865,2.443,8.095,-5.796,-5.865,-1.726,7.909,-6.471,17.595,0.0,11.73
3.43,-1.293,7.616,5.988,-5.865,2.347,7.999,-5.604,-5.865,-1.582,7.765,-6.183,17.595,0.0,11.73
3.435,-1.245,7.568,5.892,-5.865,2.347,7.904,-5.509,0.0,-1.582,7.621,-6.04,5.865,0.0,5.865
3.44,-1.198,7.568,5.796,-0.0,2.251,7.856,-5.413,0.0,-1.582,7.478,-5.896,5.865,0.0,5.865
3.4450000000000003,-1.245,7.568,5.796,-0.0,2.299,7.76,-5.413,0.0,-1.438,7.478,-5.896,5.865,0.0,5.865
3.45,-1.198,7.52,5.796,-0.0,2.251,7.712,-5.413,5.865,-1.582,7.621,-5.752,0.0,0.0,0.0
3.455,-1.15,7.377,5.844,5.865,2.156,7.568,-5.461,5.865,-1.582,7.621,-5.752,0.0,0.0,0.0
3.46,-1.15,7.281,5.892,5.865,2.203,7.425,-5.509,5.865,-1.582,7.478,-5.896,0.0,0.0,0.0
3.465,-1.102,7.185,5.892,5.865,2.108,7.281,-5.556,5.865,-1.582,7.478,-5.896,0.0,0.0,-5.865
3.47,-1.054,7.185,5.892,5.865,2.06,7.233,-5.509,5.865,-1.438,7.334,-5.896,-5.865,0.0,-5.865
3.475,-1.006,7.185,5.94,5.865,2.012,7.233,-5.509,5.865,-1.438,7.334,-5.896,-5.865,0.0,-5.865
3.48,-1.006,7.281,5.94,5.865,2.012,7.281,-5.604,5.865,-1.294,7.334,-5.896,0.0,0.0,-5.865
3.485,-1.006,7.377,6.083,5.865,2.012,7.377,-5.7,5.865,-1.294,7.478,-6.04,0.0,0.0,0.0
3.49,-0.958,7.377,6.179,-0.0,1.964,7.425,-5.796,0.0,-1.294,7.621,-6.04,0.0,0.0,0.0
3.495,-1.006,7.472,6.323,-0.0,2.06,7.52,-5.94,0.0,-1.294,7.621,-6.183,0.0,0.0,0.0
3.5,-0.958,7.568,6.371,-0.0,2.108,7.712,-5.892,0.0,-1.294,7.621,-6.327,0.0,0.0,5.865
3.505,-1.054,7.616,6.514,-5.865,2.156,7.856,-6.131,0.0,-1.582,8.053,-6.327,0.0,0.0,5.865
3.5100000000000002,-1.245,7.951,6.323,-0.0,2.156,7.904,-5.94,0.0,-1.007,7.621,-6.615,0.0,0.0,5.865
3.515,-0.958,8.047,6.467,-5.865,2.108,8.287,-6.083,-5.865,-1.869,8.197,-6.327,0.0,0.0,0.0
3.52,-1.102,8.335,6.562,-5.865,2.251,8.622,-6.179,-5.865,-1.15,8.197,-6.471,0.0,0.0,5.865
3.525,-1.102,8.622,6.61,-5.865,2.108,8.814,-6.227,-5.865,-1.438,8.197,-6.615,0.0,5.865,5.865
3.5300000000000002,-0.91,8.814,6.562,-11.73,2.06,9.005,-6.179,-5.865,-1.582,8.484,-6.615,0.0,5.865,5.865
3.535,-1.054,9.149,6.754,-11.73,2.251,9.341,-6.419,-5.865,-1.15,9.059,-6.471,0.0,5.865,11.73
3.54,-0.91,9.532,6.706,-11.73,2.108,9.676,-6.323,-5.865,-1.294,9.203,-6.759,-5.865,5.865,11.73
3.545,-0.766,9.867,6.61,-5.865,1.964,9.963,-6.275,-5.865,-1.294,9.635,-6.759,-5.865,5.865,11.73
3.5500000000000003,-0.719,10.203,6.467,-5.865,2.012,10.059,-6.131,-5.865,-1.007,10.066,-6.759,-5.865,0.0,11.73
3.555,-0.766,10.586,5.365,-5.865,1.964,9.963,-4.982,-5.865,-1.007,10.641,-6.615,-5.865,0.0,5.865
3.56,-0.719,11.257,5.317,-5.865,2.108,10.682,-4.934,0.0,-1.15,11.792,-5.464,-5.865,0.0,11.73
3.565,-0.479,11.975,5.652,-0.0,1.868,11.592,-5.269,0.0,-0.863,12.367,-5.321,5.865,0.0,5.865
3.5700000000000003,-0.431,12.598,5.988,5.865,1.916,12.55,-5.7,5.865,-0.719,12.798,-5.608,23.46,0.0,0.0
3.575,-0.575,12.981,6.179,11.73,2.06,13.173,-5.844,11.73,-0.719,13.23,-6.04,29.326,0.0,0.0
3.58,-0.671,13.125,6.131,17.595,2.251,13.508,-5.796,17.595,-0.863,13.23,-6.183,41.056,0.0,-11.73
3.585,-0.766,13.125,5.94,23.46,2.347,13.604,-5.604,23.46,-0.863,13.23,-6.183,41.056,0.0,-11.73
3.59,-0.862,13.029,5.7,29.326,2.443,13.46,-5.365,29.326,-1.007,13.086,-6.04,41.056,-5.865,-17.595
3.595,-1.006,12.837,5.509,35.191,2.635,13.268,-5.173,35.191,-1.15,12.942,-5.752,41.056,-5.865,-23.46
3.6,-1.054,12.598,5.317,46.921,2.635,13.029,-4.934,41.056,-1.15,12.798,-5.608,35.191,-5.865,-35.191
3.605,-0.958,12.31,5.125,52.786,2.539,12.694,-4.79,52.786,-1.15,12.654,-5.464,29.326,-5.865,-41.056
3.61,-0.91,11.975,5.03,58.651,2.491,12.215,-4.646,58.651,-1.15,12.367,-5.177,29.326,-11.73,-52.786
3.615,-1.006,11.592,5.03,64.516,2.491,11.688,-4.646,64.516,-1.007,12.223,-5.033,23.46,-11.73,-58.651
3.62,-1.102,11.161,4.982,70.381,2.587,11.257,-4.598,70.381,-1.15,11.935,-5.033,23.46,-11.73,-64.516
3.625,-1.054,10.586,4.982,76.246,2.491,10.73,-4.598,76.246,-1.294,11.648,-5.033,23.46,-17.595,-70.381
3.63,-0.958,9.963,5.077,82.111,2.347,9.963,-4.694,76.246,-1.15,11.073,-5.033,23.46,-17.595,-70.381
3.6350000000000002,-1.054,9.341,5.173,82.111,2.347,9.245,-4.79,82.111,-1.15,10.354,-5.033,23.46,-23.46,-76.246
3.64,-1.15,8.766,5.269,82.111,2.395,8.67,-4.886,82.111,-1.15,9.922,-5.177,29.326,-23.46,-76.246
3.645,-1.198,8.191,5.413,82.111,2.347,8.143,-5.03,82.111,-1.294,9.347,-5.321,29.326,-23.46,-82.111
3.65,-1.102,7.712,5.652,87.977,2.203,7.664,-5.269,87.977,-1.438,8.772,-5.464,35.191,-29.326,-82.111
3.6550000000000002,-1.006,7.281,5.892,87.977,2.108,7.329,-5.509,87.977,-1.438,8.197,-5.608,35.191,-29.326,-82.111
3.66,-0.958,6.898,6.083,87.977,1.964,7.041,-5.652,87.977,-1.294,7.621,-5.896,41.056,-29.326,-87.977
3.665,-0.958,6.562,6.227,82.111,1.868,6.706,-5.844,82.111,-1.294,7.19,-6.04,41.056,-29.326,-87.977
3.67,-1.006,6.227,6.371,82.111,1.964,6.371,-5.988,82.111,-1.294,6.615,-6.183,41.056,-29.326,-82.111
3.6750000000000003,-1.006,5.892,6.467,82.111,1.868,6.131,-6.083,82.111,-1.294,6.327,-6.327,41.056,-29.326,-82.111
3.68,-0.91,5.509,6.514,82.111,1.82,5.748,-6.083,82.111,-1.294,6.04,-6.471,41.056,-29.326,-82.111
3.685,-0.862,4.934,6.514,76.246,1.677,5.173,-6.083,82.111,-1.294,5.608,-6.471,41.056,-29.326,-82.111
3.69,-0.766,4.311,6.706,76.246,1.581,4.503,-6.323,76.246,-1.15,5.033,-6.615,35.191,-29.326,-76.246
3.6950000000000003,-0.862,3.832,6.85,76.246,1.581,3.976,-6.467,76.246,-1.15,4.314,-6.615,35.191,-29.326,-76.246
3.7,-0.862,3.305,7.041,70.381,1.485,3.545,-6.658,70.381,-1.294,3.883,-6.902,35.191,-29.326,-76.246
3.705,-0.91,2.826,7.185,64.516,1.485,3.066,-6.754,64.516,-1.15,3.307,-7.046,29.326,-29.326,-70.381
3.71,-1.102,2.491,7.233,58.651,1.629,2.635,-6.85,58.651,-1.294,2.876,-7.19,29.326,-29.326,-64.516
3.715,-1.102,2.012,7.377,52.786,1.533,2.251,-6.993,52.786,-1.582,2.588,-7.334,23.46,-23.46,-58.651
3.72,-0.958,1.581,7.568,46.921,1.437,1.677,-7.137,46.921,-1.582,2.157,-7.334,23.46,-23.46,-52.786
3.725,-1.102,1.341,7.52,41.056,1.533,1.293,-7.089,41.056,-1.438,1.582,-7.478,17.595,-17.595,-46.921
3.73,-1.15,1.054,7.425,35.191,1.533,1.006,-7.041,35.191,-1.582,1.438,-7.621,17.595,-17.595,-41.056
3.735,-1.054,0.671,7.568,35.191,1.437,0.527,-7.089,29.326,-1.726,1.15,-7.478,17.595,-17.595,-35.191
3.74,-1.102,0.335,7.568,23.46,1.389,0.24,-7.137,23.46,-1.582,1.007,-7.621,17.595,-11.73,-29.326
3.745,-1.102,-0.048,7.472,17.595,1.389,-0.048,-7.041,17.595,-1.582,0.575,-7.621,17.595,-11.73,-23.46
3.75,-1.15,-0.479,7.52,5.865,1.389,-0.623,-7.041,5.865,-1.582,0.0,-7.478,17.595,-5.865,-17.595
3.755,-1.245,-0.958,7.472,-0.0,1.389,-0.958,-7.041,0.0,-1.726,-0.288,-7.621,17.595,-5.865,-5.865
3.7600000000000002,-1.341,-1.341,7.329,-11.73,1.437,-1.341,-6.898,-11.73,-1.869,-1.007,-7.478,17.595,0.0,5.865
3.765,-1.293,-1.533,7.185,-23.46,1.389,-1.581,-6.658,-23.46,-1.869,-1.294,-7.478,17.595,0.0,11.73
3.77,-1.054,-1.485,6.993,-35.191,1.245,-1.581,-6.514,-35.191,-1.869,-1.582,-7.19,17.595,5.865,23.46
3.775,-0.719,-1.198,6.898,-41.056,0.958,-1.198,-6.467,-46.921,-1.726,-1.438,-7.046,17.595,11.73,35.191
3.7800000000000002,-0.527,-0.766,6.898,-52.786,0.766,-0.719,-6.514,-58.651,-1.294,-1.294,-6.902,17.595,17.595,46.921
3.785,-0.479,-0.287,6.85,-64.516,0.814,-0.24,-6.419,-70.381,-1.007,-1.007,-6.902,17.595,17.595,58.651
3.79,-0.431,0.192,6.754,-76.246,0.814,0.383,-6.323,-76.246,-0.863,-0.431,-6.902,17.595,17.595,70.381
3.795,-0.335,0.623,6.802,-82.111,0.671,0.814,-6.371,-82.111,-0.863,0.0,-6.902,5.865,23.46,76.246
3.8000000000000003,-0.335,0.958,6.754,-82.111,0.766,1.245,-6.323,-82.111,-0.719,0.431,-6.902,5.865,23.46,82.111
3.805,-0.24,1.293,6.658,-87.977,0.719,1.724,-6.227,-87.977,-0.719,0.719,-6.759,5.865,23.46,82.111
3.81,-0.144,1.485,6.706,-87.977,0.766,2.06,-6.275,-93.842,-0.575,1.007,-6.759,5.865,23.46,87.977
3.815,-0.048,1.724,6.706,-87.977,0.766,2.347,-6.275,-93.842,-0.288,1.15,-6.759,5.865,29.326,87.977
3.8200000000000003,0.048,2.012,6.658,-93.842,0.719,2.491,-6.227,-93.842,-0.288,1.15,-6.759,0.0,29.326,93.842
3.825,0.048,2.299,6.658,-99.707,0.719,2.73,-6.227,-99.707,-0.144,1.438,-6.759,-11.73,29.326,99.707
3.83,0.0,2.73,6.706,-99.707,0.719,3.066,-6.323,-105.572,0.0,1.869,-6.615,-17.595,23.46,99.707
3.835,0.048,3.209,6.898,-105.572,0.671,3.401,-6.514,-111.437,-0.144,2.445,-6.759,-23.46,23.46,105.572
3.84,0.096,3.64,7.089,-111.437,0.623,3.736,-6.658,-117.302,-0.288,3.02,-6.902,-29.326,23.46,111.437
3.845,0.144,4.215,7.281,-111.437,0.623,4.215,-6.85,-117.302,-0.144,3.739,-7.046,-35.191,23.46,117.302
3.85,0.192,4.79,7.52,-117.302,0.431,4.742,-7.185,-117.302,-0.288,4.458,-7.19,-35.191,23.46,117.302
3.855,0.287,5.317,7.856,-111.437,0.431,5.365,-7.52,-117.302,-0.288,5.033,-7.478,-35.191,23.46,117.302
3.86,-5.556,23.663,-12.167,-129.032,6.371,24.142,12.262,-129.032,-0.144,5.608,-7.909,-35.191,23.46,117.302
3.865,1.581,23.998,3.353,-175.953,11.209,24.429,-2.635,-175.953,-5.896,63.703,0.575,-35.191,23.46,123.167
3.87,4.886,14.322,-2.06,64.516,-5.365,7.089,3.449,76.246,10.21,37.1,1.294,-64.516,52.786,170.088
3.875,-5.221,9.867,-4.838,258.064,6.946,8.814,5.125,263.93,5.608,30.629,-0.575,-217.009,0.0,-23.46
3.88,-5.509,1.054,1.293,275.66,4.742,-0.862,-0.814,275.66,-5.321,19.413,6.615,-175.953,-52.786,-234.604
3.8850000000000002,-0.048,-2.539,5.269,158.358,-1.006,-6.61,-4.982,152.493,-6.183,1.15,-0.575,-105.572,-41.056,-281.525
3.89,0.671,2.73,9.053,17.595,0.862,1.581,-8.526,5.865,-2.588,0.288,-4.314,-99.707,-46.921,-187.683
3.895,-2.203,9.628,9.005,-76.246,2.73,8.383,-8.766,-87.977,2.301,2.588,-8.772,-76.246,-35.191,-41.056
3.9,-3.257,14.514,9.628,-129.032,3.449,13.125,-9.532,-134.897,-2.301,9.491,-9.203,-46.921,-35.191,70.381
3.9050000000000002,-2.251,15.328,10.203,-140.762,2.826,14.466,-10.059,-146.628,-5.177,15.962,-9.491,-29.326,-41.056,123.167
3.91,-1.437,13.268,9.724,-117.302,2.539,12.885,-9.436,-123.167,-4.602,17.687,-10.21,-5.865,-23.46,146.628
3.915,-1.389,11.496,9.005,-87.977,2.778,11.64,-8.718,-87.977,-2.732,14.955,-9.922,17.595,-5.865,129.032
3.92,-1.102,10.107,8.766,-70.381,2.73,10.73,-8.43,-70.381,-1.869,12.654,-9.203,35.191,11.73,99.707
3.9250000000000003,-0.383,8.909,9.532,-58.651,2.06,10.155,-9.245,-58.651,-1.438,10.497,-8.34,46.921,17.595,76.246
3.93,-0.814,8.957,9.82,-46.921,2.012,9.915,-9.532,-46.921,-0.144,8.053,-9.635,41.056,17.595,64.516
3.935,-1.389,9.005,9.532,-35.191,2.347,9.676,-9.293,-35.191,-1.007,7.909,-9.778,29.326,5.865,52.786
3.94,-1.341,9.053,8.909,-17.595,2.203,9.436,-8.622,-17.595,-2.157,8.628,-9.778,17.595,5.865,35.191
3.9450000000000003,-1.245,8.718,7.616,5.865,2.347,8.862,-7.185,5.865,-2.301,9.203,-9.203,5.865,5.865,23.46
3.95,-0.91,8.047,6.179,29.326,2.06,7.904,-5.748,29.326,-2.013,9.203,-7.909,0.0,11.73,5.865
3.955,0.0,7.233,5.461,35.191,1.198,6.993,-5.03,35.191,-1.15,8.772,-6.471,0.0,17.595,-23.46
3.96,-0.287,7.233,5.173,35.191,1.772,7.329,-4.742,35.191,-0.288,7.909,-5.608,5.865,17.595,-35.191
3.9650000000000003,-0.575,7.808,5.221,35.191,1.82,7.664,-4.79,35.191,0.0,7.621,-5.177,5.865,17.595,-29.326
3.97,-0.479,8.191,5.461,35.191,1.389,7.999,-5.125,35.191,-0.575,8.197,-5.177,5.865,11.73,-29.326
3.975,-0.335,8.239,5.748,35.191,1.341,8.191,-5.365,29.326,-0.863,8.628,-5.464,5.865,5.865,-35.191
3.98,-0.335,8.191,5.413,29.326,1.437,8.239,-5.03,29.326,-0.719,8.484,-5.752,17.595,0.0,-29.326
3.985,-0.24,8.239,5.125,29.326,1.437,8.287,-4.742,23.46,-0.719,8.484,-5.608,23.46,5.865,-23.46
3.99,-0.096,8.191,4.934,23.46,1.245,8.335,-4.503,23.46,-0.575,8.484,-5.177,23.46,5.865,-23.46
3.995,-0.335,8.287,4.982,23.46,1.629,8.526,-4.551,17.595,-0.288,8.34,-5.033,29.326,5.865,-17.595
4.0,-0.144,8.143,5.125,11.73,1.293,8.43,-4.742,17.595,-0.288,8.197,-5.033,23.46,0.0,-17.595
4.005,-0.335,8.095,5.413,11.73,1.485,8.43,-5.03,17.595,-0.431,8.197,-5.177,23.46,0.0,-11.73
4.01,-0.24,7.951,5.509,11.73,1.341,8.191,-5.125,11.73,-0.431,8.053,-5.464,23.46,0.0,-11.73
4.015,-0.335,7.856,5.604,11.73,1.485,8.143,-5.221,11.73,-0.575,7.909,-5.608,17.595,-5.865,-11.73
4.0200000000000005,-0.24,7.76,5.604,11.73,1.341,7.951,-5.221,11.73,-0.575,7.909,-5.608,5.865,-5.865,-11.73
4.025,-0.24,7.76,5.7,11.73,1.389,7.951,-5.317,17.595,-0.575,7.909,-5.608,5.865,-5.865,-11.73
4.03,-0.048,7.568,5.748,17.595,1.102,7.76,-5.365,17.595,-0.431,7.909,-5.752,5.865,-5.865,-11.73
4.035,0.048,7.472,5.748,17.595,1.054,7.664,-5.365,17.595,-0.431,7.621,-5.752,5.865,-5.865,-17.595
4.04,0.048,7.52,5.652,17.595,1.054,7.664,-5.317,17.595,-0.288,7.478,-5.752,5.865,-5.865,-17.595
4.045,0.0,7.664,5.796,11.73,1.054,7.76,-5.413,17.595,-0.288,7.621,-5.752,5.865,-11.73,-11.73
4.05,0.0,7.76,5.94,11.73,1.054,7.951,-5.556,17.595,-0.288,7.765,-5.752,5.865,-11.73,-11.73
4.055,0.096,7.904,6.035,17.595,0.958,8.047,-5.652,17.595,-0.288,8.053,-5.896,5.865,-11.73,-11.73
4.0600000000000005,0.144,8.095,5.988,17.595,0.958,8.191,-5.604,17.595,-0.144,7.909,-6.04,5.865,-11.73,-11.73
4.065,0.144,8.335,6.131,17.595,0.958,8.383,-5.748,17.595,-0.144,8.34,-6.04,5.865,-11.73,-11.73
4.07,0.192,8.526,6.227,17.595,0.91,8.622,-5.892,23.46,-0.144,8.628,-6.04,5.865,-11.73,-11.73
4.075,0.335,8.67,6.323,23.46,0.766,8.718,-5.94,23.46,-0.144,8.772,-6.183,5.865,-11.73,-17.595
4.08,0.383,8.67,6.275,23.46,0.766,8.814,-5.892,23.46,0.0,8.916,-6.327,5.865,-11.73,-17.595
4.085,0.383,8.622,6.227,23.46,0.719,8.718,-5.892,23.46,0.0,8.916,-6.327,5.865,-11.73,-23.46
4.09,0.431,8.526,6.275,23.46,0.623,8.574,-5.892,23.46,0.0,8.772,-6.327,5.865,-11.73,-23.46
4.095,0.335,8.526,6.227,23.46,0.719,8.622,-5.844,23.46,0.0,8.772,-6.327,5.865,-11.73,-23.46
4.1,0.383,8.574,6.227,23.46,0.623,8.718,-5.844,17.595,0.0,8.772,-6.183,5.865,-11.73,-17.595
4.105,0.431,8.67,6.131,17.595,0.527,8.814,-5.796,17.595,-0.144,8.772,-6.183,5.865,-5.865,-17.595
4.11,0.431,8.862,6.083,23.46,0.527,9.053,-5.748,23.46,-0.144,8.916,-6.183,5.865,-5.865,-17.595
4.115,0.575,8.957,5.844,23.46,0.431,9.245,-5.509,23.46,-0.144,8.916,-6.04,5.865,-5.865,-17.595
4.12,0.671,9.053,5.461,23.46,0.383,9.388,-5.125,23.46,0.0,9.059,-5.896,5.865,0.0,-17.595
4.125,0.719,9.149,4.934,23.46,0.431,9.484,-4.503,23.46,0.288,9.059,-5.608,5.865,0.0,-17.595
4.13,0.766,9.149,4.215,23.46,0.431,9.484,-3.784,23.46,0.431,9.059,-5.033,5.865,5.865,-23.46
4.135,0.766,9.293,3.018,29.326,0.479,9.293,-2.491,29.326,0.575,9.203,-4.314,5.865,5.865,-23.46
4.14,0.192,9.293,0.24,29.326,1.341,8.383,0.383,29.326,0.575,9.347,-3.595,5.865,5.865,-23.46
4.1450000000000005,0.91,9.58,-0.24,41.056,0.862,9.245,0.766,41.056,0.144,11.073,-0.288,5.865,5.865,-23.46
4.15,1.629,9.82,-0.335,41.056,0.24,9.82,0.862,41.056,1.294,10.641,0.288,17.595,0.0,-35.191
4.155,1.82,10.251,-0.431,41.056,0.096,10.49,1.006,41.056,2.157,10.354,0.431,35.191,-5.865,-41.056
4.16,1.724,10.778,-0.671,35.191,0.096,11.161,1.198,35.191,2.588,10.354,0.575,41.056,-17.595,-41.056
4.165,1.485,11.209,-0.958,29.326,0.287,11.544,1.437,35.191,2.301,10.785,0.719,41.056,-29.326,-35.191
4.17,1.389,11.544,-1.293,29.326,0.383,11.927,1.82,29.326,1.869,11.216,1.007,41.056,-41.056,-29.326
4.175,1.485,11.831,-1.724,35.191,0.431,12.31,2.251,35.191,1.726,11.648,1.294,41.056,-52.786,-29.326
4.18,1.677,11.879,-2.06,46.921,0.24,12.358,2.587,46.921,1.869,11.935,1.726,41.056,-58.651,-35.191
4.1850000000000005,1.82,11.688,-2.347,52.786,0.192,12.262,2.922,52.786,2.013,11.935,2.157,41.056,-70.381,-41.056
4.19,1.916,11.783,-2.587,58.651,0.24,12.406,3.161,58.651,2.445,11.792,2.445,41.056,-76.246,-52.786
4.195,1.916,11.64,-2.635,64.516,0.144,12.262,3.257,64.516,2.732,11.648,2.588,35.191,-87.977,-58.651
4.2,2.012,11.64,-2.491,70.381,0.048,12.454,3.066,70.381,2.588,11.648,2.732,35.191,-99.707,-64.516
4.205,1.916,11.592,-2.203,76.246,0.144,12.502,2.778,76.246,2.732,11.504,2.588,29.326,-117.302,-70.381
4.21,2.108,11.304,-1.724,87.977,-0.144,12.262,2.299,87.977,2.588,11.216,2.301,23.46,-129.032,-76.246
4.215,2.299,10.969,-1.15,93.842,-0.383,12.071,1.724,93.842,2.732,10.785,1.869,17.595,-140.762,-82.111
4.22,2.347,10.634,-0.623,105.572,-0.431,11.879,1.245,99.707,3.02,10.354,1.15,5.865,-152.493,-93.842
4.225,2.395,10.107,-0.144,111.437,-0.671,11.257,0.719,105.572,3.02,9.922,0.575,0.0,-164.223,-99.707
4.23,2.587,9.58,0.479,117.302,-1.006,10.442,0.192,117.302,2.876,9.491,0.144,-11.73,-175.953,-105.572
4.235,2.443,9.149,1.006,123.167,-0.91,9.82,-0.287,123.167,3.02,9.347,-0.575,-23.46,-187.683,-111.437
4.24,2.778,8.335,1.82,134.897,-1.437,8.67,-1.102,129.032,2.876,8.916,-1.007,-29.326,-199.413,-123.167
4.245,2.97,7.281,2.922,140.762,-1.772,7.281,-2.251,140.762,3.02,8.628,-1.869,-41.056,-205.279,-129.032
4.25,2.874,6.227,4.167,140.762,-1.82,6.083,-3.497,140.762,3.164,7.909,-2.876,-41.056,-217.009,-134.897
4.255,2.826,5.269,5.7,140.762,-1.964,4.982,-5.03,140.762,3.164,7.046,-4.17,-35.191,-222.874,-140.762
4.26,2.778,4.263,7.568,134.897,-2.06,3.928,-6.946,134.897,3.02,6.04,-5.608,-29.326,-228.739,-140.762
4.265,2.682,3.449,9.676,129.032,-2.156,3.114,-9.101,129.032,2.732,5.033,-7.478,-23.46,-234.604,-140.762
4.2700000000000005,2.443,2.874,11.831,123.167,-2.203,2.635,-11.352,117.302,2.588,4.17,-9.635,-17.595,-234.604,-129.032
4.275,2.06,2.539,14.035,111.437,-2.06,2.347,-13.604,105.572,2.157,3.307,-11.792,-5.865,-234.604,-123.167
4.28,1.629,2.299,16.334,99.707,-1.772,2.156,-16.047,93.842,1.438,2.876,-13.949,0.0,-234.604,-111.437
4.285,1.293,2.06,18.537,87.977,-1.629,1.916,-18.298,82.111,0.863,2.588,-16.249,5.865,-228.739,-99.707
4.29,0.958,1.772,20.549,76.246,-1.533,1.581,-20.453,76.246,0.144,2.301,-18.55,5.865,-217.009,-87.977
4.295,0.623,1.293,22.417,70.381,-1.389,1.102,-22.561,70.381,-0.575,1.869,-20.707,5.865,-205.279,-76.246
4.3,0.192,0.814,23.902,64.516,-1.15,0.527,-24.477,58.651,-1.15,1.582,-22.577,5.865,-187.683,-70.381
4.305,-0.24,0.335,24.429,52.786,-0.958,-0.048,-24.573,52.786,-1.869,1.007,-24.158,5.865,-170.088,-64.516
4.3100000000000005,-0.527,-0.096,24.429,46.921,-0.766,-0.623,-24.573,41.056,-2.445,0.575,-25.309,5.865,-146.628,-52.786
4.315,-0.814,-0.575,24.429,35.191,-0.527,-1.15,-24.573,35.191,-2.876,0.288,-25.884,17.595,-117.302,-46.921
4.32,-0.719,-0.766,24.429,23.46,-0.766,-1.533,-24.573,23.46,-3.164,0.0,-26.315,23.46,-87.977,-35.191
4.325,-0.766,-0.814,24.429,11.73,-0.671,-1.485,-24.573,11.73,-3.307,-0.144,-26.315,23.46,-58.651,-23.46
4.33,-0.814,-0.479,24.429,-0.0,-0.527,-0.958,-24.573,0.0,-3.307,-0.288,-26.028,29.326,-23.46,-11.73
4.335,-0.527,0.096,24.429,-11.73,-0.814,-0.048,-24.573,-11.73,-3.307,-0.431,-25.74,41.056,5.865,0.0
4.34,-0.287,0.814,23.663,-29.326,-0.862,0.862,-24.573,-35.191,-3.02,0.0,-25.309,41.056,35.191,11.73
4.345,-0.383,1.485,22.13,-41.056,-0.431,1.772,-24.573,-46.921,-2.732,0.288,-24.302,46.921,70.381,29.326
4.3500000000000005,-0.24,2.06,20.405,-52.786,-0.575,2.299,-20.31,-52.786,-2.588,0.863,-23.008,41.056,99.707,46.921
4.355,0.192,2.395,18.968,-64.516,-0.671,2.682,-18.729,-64.516,-2.301,1.438,-21.282,35.191,123.167,58.651
4.36,0.719,3.209,17.531,-70.381,-1.054,3.449,-17.196,-70.381,-1.582,2.157,-19.701,29.326,146.628,64.516
4.365,0.383,3.88,16.094,-70.381,-0.048,4.646,-15.711,-70.381,-1.15,2.732,-18.119,29.326,170.088,70.381
4.37,1.15,4.119,14.178,-76.246,-0.958,5.125,-13.699,-76.246,-0.719,3.164,-16.968,23.46,187.683,70.381
4.375,1.198,5.077,13.46,-82.111,-1.485,4.982,-12.981,-82.111,0.0,2.732,-15.243,5.865,205.279,76.246
4.38,0.479,5.988,12.119,-70.381,-0.144,6.227,-11.592,-70.381,-0.431,5.464,-13.949,0.0,217.009,87.977
4.385,0.766,6.658,9.772,-58.651,-0.91,6.946,-9.197,-58.651,-1.007,6.471,-12.654,-5.865,228.739,76.246
4.39,2.06,6.61,7.664,-58.651,-0.862,6.754,-6.754,-52.786,-1.007,6.327,-10.785,0.0,246.334,64.516
4.3950000000000005,2.203,6.323,4.79,-58.651,-0.719,6.131,-3.832,-52.786,1.582,6.759,-8.628,0.0,258.064,58.651
4.4,2.97,6.514,1.724,-58.651,-1.293,6.179,-0.719,-52.786,3.02,6.902,-5.752,0.0,263.93,58.651
4.405,3.161,7.233,-0.862,-70.381,-1.198,6.658,1.868,-70.381,3.739,6.902,-2.588,5.865,258.064,58.651
4.41,2.203,8.335,-3.018,-82.111,-0.096,7.425,3.928,-82.111,4.458,8.053,0.288,5.865,240.469,70.381
4.415,1.964,9.388,-4.886,-87.977,0.0,8.67,5.748,-87.977,3.739,9.778,2.445,23.46,222.874,82.111
4.42,2.203,10.49,-6.275,-93.842,-0.144,10.011,7.137,-93.842,3.02,10.641,4.602,41.056,205.279,93.842
4.425,2.443,11.927,-7.52,-93.842,-0.048,11.783,8.383,-93.842,3.164,11.648,6.04,58.651,187.683,93.842
4.43,2.635,13.412,-8.766,-87.977,0.048,13.699,9.58,-87.977,3.595,12.654,7.334,76.246,170.088,99.707
4.4350000000000005,2.778,14.753,-9.772,-82.111,0.096,15.424,10.538,-82.111,4.026,13.805,8.628,87.977,152.493,93.842
4.44,2.922,15.663,-10.682,-76.246,0.24,16.717,11.4,-76.246,4.314,14.668,9.778,99.707,129.032,87.977
4.445,2.778,16.286,-11.544,-70.381,0.671,17.723,12.262,-70.381,4.602,15.243,10.641,99.707,105.572,82.111
4.45,2.443,16.765,-12.023,-52.786,1.15,18.489,12.694,-52.786,4.745,15.53,11.648,93.842,82.111,70.381
4.455,2.251,17.052,-12.167,-35.191,1.245,18.921,12.741,-35.191,4.458,15.674,12.223,87.977,52.786,58.651
4.46,2.203,17.052,-11.879,-11.73,1.198,18.968,12.454,-11.73,4.17,15.962,12.511,70.381,23.46,41.056
4.465,2.251,16.621,-11.496,11.73,1.006,18.633,12.071,11.73,3.883,15.818,12.223,52.786,-11.73,17.595
4.47,2.395,16.142,-11.017,35.191,0.766,18.154,11.592,35.191,3.883,15.387,11.792,35.191,-41.056,-5.865
4.4750000000000005,2.635,15.472,-10.394,58.651,0.335,17.292,10.969,58.651,3.883,14.955,11.36,5.865,-64.516,-29.326
4.48,2.922,14.705,-9.628,82.111,-0.144,16.334,10.251,82.111,4.026,14.38,10.641,-5.865,-93.842,-52.786
4.485,3.161,13.747,-8.909,99.707,-0.623,15.328,9.532,99.707,4.026,13.805,9.922,-29.326,-117.302,-76.246
4.49,3.114,12.741,-8.239,111.437,-0.335,14.131,9.005,117.302,4.458,12.942,9.203,-46.921,-140.762,-93.842
4.495,3.497,11.736,-7.472,129.032,-1.198,13.077,8.239,123.167,4.602,12.079,8.484,-64.516,-158.358,-111.437
4.5,4.311,10.586,-6.275,129.032,-2.251,11.496,7.089,129.032,4.602,10.929,7.621,-76.246,-181.818,-123.167
4.505,4.311,9.628,-4.79,134.897,-2.539,10.059,5.652,129.032,5.321,10.21,6.327,-87.977,-205.279,-129.032
4.51,4.407,9.149,-3.066,129.032,-2.826,9.436,3.88,129.032,5.321,9.635,4.889,-99.707,-222.874,-129.032
4.515,3.88,9.293,-1.054,134.897,-2.251,9.388,1.916,129.032,5.033,9.491,3.164,-105.572,-240.469,-129.032
4.5200000000000005,3.784,9.053,0.814,140.762,-2.587,8.622,0.048,140.762,4.602,9.778,1.15,-105.572,-252.199,-129.032
4.525,4.167,8.862,2.73,146.628,-3.305,8.335,-1.964,146.628,4.026,10.066,-0.863,-99.707,-263.93,-140.762
4.53,3.784,8.957,5.03,152.493,-2.826,8.43,-4.359,152.493,4.026,10.21,-2.732,-87.977,-275.66,-140.762
4.535,3.784,8.766,7.472,164.223,-3.114,8.191,-6.85,164.223,3.883,10.21,-5.033,-70.381,-281.525,-152.493
4.54,4.024,8.478,9.867,164.223,-3.401,8.095,-9.293,158.358,3.451,9.922,-7.478,-52.786,-281.525,-158.358
4.545,3.688,7.999,12.262,158.358,-3.114,7.808,-11.736,158.358,3.451,9.347,-9.922,-41.056,-281.525,-164.223
4.55,3.209,7.281,14.61,152.493,-2.826,7.137,-14.178,146.628,3.307,8.628,-12.367,-29.326,-275.66,-158.358
4.555,2.443,6.419,16.909,140.762,-2.299,6.419,-16.573,140.762,2.588,7.765,-14.668,-17.595,-269.795,-152.493
4.5600000000000005,1.677,5.509,19.16,134.897,-1.82,5.509,-18.968,129.032,1.582,6.759,-16.968,-11.73,-269.795,-140.762
4.565,0.91,4.694,21.363,129.032,-1.389,4.742,-21.316,123.167,0.431,5.752,-19.269,-5.865,-258.064,-134.897
4.57,0.479,3.976,23.423,123.167,-1.245,4.024,-23.758,123.167,-0.719,4.889,-21.57,-5.865,-240.469,-123.167
4.575,0.24,3.305,24.429,117.302,-1.245,3.449,-24.573,111.437,-1.582,3.883,-23.583,-5.865,-222.874,-123.167
4.58,-0.096,2.635,24.429,111.437,-1.102,2.73,-24.573,105.572,-2.157,3.164,-25.453,-5.865,-199.413,-117.302
4.585,-0.575,1.82,24.429,99.707,-0.719,1.772,-24.573,99.707,-2.732,2.445,-26.747,-5.865,-175.953,-111.437
4.59,-0.91,1.054,24.429,93.842,-0.479,0.719,-24.573,93.842,-3.164,1.869,-27.466,-11.73,-140.762,-105.572
4.595,-0.958,0.144,24.429,82.111,-0.383,-0.335,-24.573,76.246,-3.451,1.15,-27.466,-17.595,-111.437,-93.842
4.6000000000000005,-1.054,-0.671,24.429,64.516,-0.096,-1.102,-24.573,64.516,-3.595,0.431,-27.178,-17.595,-76.246,-82.111
4.605,-1.245,-0.91,24.429,52.786,0.048,-1.437,-24.573,52.786,-3.307,-0.288,-26.315,-17.595,-46.921,-64.516
4.61,-1.054,-1.054,23.519,41.056,-0.192,-1.485,-24.573,41.056,-3.451,-0.719,-25.309,-11.73,-17.595,-52.786
4.615,-0.958,-0.958,22.369,17.595,-0.144,-1.341,-24.573,23.46,-3.451,-0.863,-24.158,-11.73,11.73,-41.056
4.62,-1.102,-0.479,20.884,5.865,0.096,-0.91,-20.837,5.865,-3.02,-0.863,-23.008,-5.865,41.056,-23.46
4.625,-1.15,0.287,19.112,-0.0,0.192,-0.144,-18.921,0.0,-3.02,-0.288,-21.57,-5.865,70.381,-5.865
4.63,-1.198,0.91,16.813,-5.865,0.766,0.719,-16.43,0.0,-3.164,0.719,-19.844,0.0,93.842,5.865
4.635,-0.383,1.389,14.274,-5.865,0.335,1.293,-13.747,-5.865,-2.876,1.15,-17.544,5.865,117.302,5.865
4.64,0.623,1.198,11.304,-17.595,-0.144,0.862,-10.682,-17.595,-1.582,1.294,-15.099,5.865,140.762,5.865
4.6450000000000005,1.341,1.437,8.335,-35.191,-0.431,0.862,-7.568,-29.326,0.0,1.438,-12.079,5.865,152.493,17.595
4.65,1.102,2.299,6.371,-46.921,0.24,1.868,-5.652,-46.921,1.582,2.013,-9.059,5.865,158.358,29.326
4.655,0.766,4.167,4.934,-52.786,0.24,3.928,-4.311,-52.786,1.869,3.02,-6.759,17.595,158.358,46.921
4.66,1.485,5.796,3.784,-52.786,-0.479,5.988,-3.209,-52.786,1.007,4.458,-5.321,29.326,146.628,52.786
4.665,1.293,6.467,3.64,-58.651,-0.096,6.179,-3.066,-58.651,1.294,5.896,-4.026,35.191,140.762,58.651
4.67,1.581,7.377,2.73,-58.651,-0.096,7.568,-2.108,-64.516,1.582,6.902,-3.739,41.056,134.897,58.651
4.675,1.485,8.335,1.341,-64.516,0.24,8.814,-0.719,-64.516,2.013,7.478,-3.02,46.921,129.032,64.516
4.68,1.772,8.766,0.144,-64.516,-0.383,9.149,0.431,-64.516,2.013,8.197,-1.726,46.921,123.167,70.381
4.6850000000000005,1.437,9.772,-0.479,-58.651,0.479,10.155,1.054,-52.786,1.869,8.772,-0.431,46.921,111.437,64.516
4.69,1.485,10.634,-1.15,-46.921,0.479,11.065,1.724,-46.921,2.157,9.778,0.431,46.921,105.572,58.651
4.695,1.629,11.257,-1.82,-41.056,0.479,11.831,2.395,-41.056,2.157,10.641,1.007,46.921,93.842,52.786
4.7,1.916,11.64,-2.251,-35.191,0.287,12.31,2.778,-35.191,2.301,11.073,1.869,46.921,82.111,41.056
4.705,1.677,11.927,-2.347,-29.326,0.671,12.502,2.922,-29.326,2.732,11.504,2.301,46.921,70.381,35.191
4.71,1.341,12.023,-2.443,-23.46,0.862,12.454,2.97,-23.46,2.732,11.935,2.445,41.056,52.786,35.191
4.715,1.293,12.023,-2.203,-17.595,0.862,12.598,2.73,-17.595,2.301,12.079,2.588,35.191,41.056,29.326
4.72,1.054,12.023,-1.629,-11.73,0.91,12.454,2.06,-11.73,2.013,12.079,2.445,35.191,23.46,23.46
4.7250000000000005,0.91,12.119,-1.006,-0.0,1.006,12.31,1.485,0.0,1.582,12.223,1.869,29.326,5.865,11.73
4.73,0.048,19.879,-6.371,11.73,1.293,16.909,6.993,11.73,1.582,11.935,1.15,29.326,-5.865,5.865
4.735,-1.054,21.124,-5.173,35.191,4.934,22.369,5.652,35.191,-0.575,23.439,5.177,35.191,-17.595,-5.865
4.74,2.299,18.681,-0.479,82.111,1.389,23.327,0.671,87.977,0.0,22.577,6.04,64.516,-17.595,-23.46
4.745,2.635,13.652,1.581,129.032,-0.527,15.568,-1.15,129.032,3.739,15.674,1.15,87.977,-29.326,-70.381
4.75,1.629,10.059,2.443,123.167,-0.24,10.778,-2.06,117.302,3.883,11.792,-1.294,58.651,-52.786,-123.167
4.755,-0.24,8.335,2.778,82.111,1.245,8.574,-2.347,82.111,2.013,9.203,-2.445,5.865,-76.246,-123.167
4.76,-1.389,7.664,4.311,64.516,2.06,7.664,-4.024,64.516,-0.144,8.34,-2.732,-11.73,-82.111,-87.977
4.765,-0.814,7.616,6.227,64.516,1.341,7.712,-5.94,64.516,-2.013,8.053,-4.026,-23.46,-87.977,-64.516
4.7700000000000005,0.0,7.999,7.329,64.516,0.766,7.808,-6.993,64.516,-2.013,7.909,-6.04,-23.46,-82.111,-64.516
4.775,-0.335,8.383,7.808,58.651,1.102,8.047,-7.425,58.651,-1.007,8.053,-7.19,-23.46,-76.246,-64.516
4.78,-0.527,8.191,7.712,58.651,1.485,7.76,-7.329,58.651,-1.007,9.059,-7.909,-23.46,-70.381,-58.651
4.785,-0.383,7.712,7.808,58.651,1.389,7.281,-7.425,58.651,-1.15,9.203,-7.765,-17.595,-64.516,-52.786
4.79,-0.287,7.329,8.047,58.651,1.245,6.85,-7.664,58.651,-0.719,8.628,-7.765,-5.865,-64.516,-58.651
4.795,-0.575,7.233,8.095,58.651,1.485,6.754,-7.76,58.651,-0.719,8.197,-8.053,0.0,-58.651,-58.651
4.8,-0.623,7.329,8.622,52.786,1.485,7.089,-8.287,52.786,-1.007,8.197,-8.053,5.865,-58.651,-58.651
4.805,-0.719,7.329,9.053,52.786,1.533,7.233,-8.718,52.786,-1.007,7.909,-8.484,23.46,-58.651,-52.786
4.8100000000000005,-0.814,7.329,8.622,52.786,1.581,7.089,-8.287,52.786,-1.294,7.765,-9.059,29.326,-58.651,-52.786
4.815,-0.862,7.281,7.951,52.786,1.581,6.85,-7.568,52.786,-1.438,7.765,-8.772,35.191,-52.786,-52.786
4.82,-0.719,7.329,7.425,52.786,1.533,6.946,-7.041,52.786,-1.582,8.053,-8.197,35.191,-52.786,-52.786
4.825,-0.575,7.472,7.089,52.786,1.485,7.377,-6.706,52.786,-1.294,8.053,-7.621,46.921,-46.921,-52.786
4.83,-0.431,7.664,6.754,52.786,1.437,7.808,-6.371,52.786,-1.15,7.909,-7.19,52.786,-41.056,-52.786
4.835,-0.287,7.904,6.371,52.786,1.389,8.191,-5.94,52.786,-0.863,7.765,-6.902,58.651,-41.056,-52.786
4.84,-0.24,8.095,5.892,52.786,1.341,8.478,-5.509,52.786,-0.719,7.909,-6.471,58.651,-41.056,-52.786
4.845,-0.144,8.191,5.604,58.651,1.293,8.574,-5.173,58.651,-0.575,7.909,-6.04,58.651,-35.191,-52.786
4.8500000000000005,-0.144,8.335,5.317,58.651,1.198,8.67,-4.934,58.651,-0.431,8.053,-5.752,58.651,-41.056,-52.786
4.855,-0.048,8.335,5.221,58.651,1.245,8.718,-4.838,52.786,-0.575,8.197,-5.464,52.786,-41.056,-52.786
4.86,0.048,8.239,5.269,52.786,1.15,8.67,-4.886,52.786,-0.288,8.197,-5.321,52.786,-41.056,-58.651
4.865,-0.144,8.191,5.269,58.651,1.245,8.478,-4.886,58.651,-0.144,8.197,-5.321,46.921,-41.056,-52.786
4.87,-0.144,8.047,5.413,58.651,1.198,8.239,-5.03,58.651,-0.431,8.197,-5.321,46.921,-41.056,-58.651
4.875,-0.144,7.808,5.413,58.651,1.245,7.999,-5.03,58.651,-0.431,8.053,-5.464,41.056,-41.056,-58.651
4.88,-0.192,7.664,5.173,58.651,1.293,7.856,-4.79,58.651,-0.431,8.053,-5.464,41.056,-41.056,-58.651
4.885,-0.144,7.568,5.03,58.651,1.245,7.76,-4.598,58.651,-0.431,7.765,-5.321,41.056,-41.056,-58.651
4.89,-0.096,7.329,4.886,52.786,1.245,7.616,-4.503,52.786,-0.431,7.621,-5.033,41.056,-41.056,-58.651
4.8950000000000005,-0.24,7.089,4.694,52.786,1.389,7.472,-4.263,46.921,-0.288,7.334,-5.033,35.191,-41.056,-52.786
4.9,-0.192,6.946,4.359,41.056,1.437,7.329,-3.88,41.056,-0.288,6.902,-4.889,35.191,-46.921,-46.921
4.905,0.048,7.185,4.598,35.191,1.054,7.425,-4.167,35.191,-0.144,6.759,-4.458,29.326,-46.921,-41.056
4.91,-0.527,8.143,5.604,35.191,1.293,8.047,-5.317,35.191,-0.144,7.046,-4.458,23.46,-52.786,-35.191
4.915,-0.958,8.862,6.323,41.056,1.724,8.814,-6.035,41.056,-1.007,8.484,-5.464,23.46,-52.786,-35.191
4.92,-0.766,8.814,6.61,52.786,1.581,8.766,-6.275,52.786,-1.726,9.203,-6.183,23.46,-52.786,-41.056
4.925,-0.527,8.335,6.658,58.651,1.581,8.335,-6.323,58.651,-1.726,9.347,-6.615,29.326,-46.921,-46.921
4.93,-0.383,8.143,6.131,58.651,1.581,8.047,-5.7,58.651,-1.15,8.772,-6.759,35.191,-41.056,-58.651
4.9350000000000005,-0.719,8.335,5.652,58.651,2.06,8.335,-5.221,58.651,-0.575,8.484,-6.327,35.191,-35.191,-58.651
4.94,-0.814,8.766,5.509,58.651,2.203,8.909,-5.077,52.786,-0.719,8.628,-5.752,41.056,-35.191,-58.651
4.945,-0.575,8.862,5.604,52.786,1.82,9.053,-5.221,58.651,-0.863,8.916,-5.608,41.056,-41.056,-52.786
4.95,-0.527,8.862,5.7,52.786,1.82,9.005,-5.269,46.921,-0.719,8.772,-5.608,41.056,-41.056,-52.786
4.955,-0.862,9.101,5.556,46.921,2.156,9.245,-5.173,46.921,-0.719,9.059,-5.752,41.056,-46.921,-46.921
4.96,-1.006,9.053,5.317,46.921,2.251,9.245,-4.934,46.921,-1.007,9.203,-5.608,41.056,-46.921,-41.056
4.965,-0.575,8.957,5.604,46.921,1.82,9.101,-5.221,46.921,-1.15,9.203,-5.464,41.056,-52.786,-46.921
4.97,-0.671,9.101,5.509,46.921,1.916,9.197,-5.077,46.921,-1.007,9.347,-5.752,41.056,-52.786,-46.921
4.9750000000000005,-0.814,9.053,5.317,52.786,2.012,9.149,-4.886,52.786,-0.863,9.347,-5.608,41.056,-52.786,-46.921
4.98,-0.814,8.909,5.221,52.786,1.964,8.957,-4.838,52.786,-1.15,9.347,-5.464,41.056,-52.786,-46.921
4.985,-0.814,8.574,5.221,52.786,2.012,8.718,-4.79,58.651,-1.15,9.203,-5.321,41.056,-52.786,-52.786
4.99,-0.91,8.143,4.982,58.651,2.108,8.335,-4.598,58.651,-1.15,8.772,-5.321,46.921,-52.786,-52.786
4.995,-0.958,7.904,4.886,52.786,2.108,7.999,-4.455,52.786,-1.15,8.34,-5.177,46.921,-52.786,-52.786
5.0,-1.054,7.856,4.886,52.786,2.156,7.951,-4.455,52.786,-1.15,8.053,-5.033,46.921,-52.786,-52.786
5.005,-1.15,7.856,4.934,58.651,2.156,7.999,-4.503,52.786,-1.294,8.053,-4.889,46.921,-58.651,-52.786
5.01,-1.198,7.808,4.934,58.651,2.203,7.904,-4.503,58.651,-1.582,8.053,-5.033,46.921,-58.651,-52.786
5.015,-1.245,7.664,4.838,58.651,2.251,7.76,-4.455,58.651,-1.582,8.053,-5.033,46.921,-58.651,-52.786
5.0200000000000005,-1.341,7.568,4.79,58.651,2.347,7.712,-4.359,58.651,-1.582,7.909,-4.889,46.921,-58.651,-58.651
5.025,-1.437,7.616,4.694,64.516,2.491,7.712,-4.263,64.516,-1.726,7.909,-4.889,46.921,-58.651,-58.651
5.03,-1.533,7.616,4.598,64.516,2.587,7.76,-4.167,64.516,-1.869,7.765,-4.745,46.921,-52.786,-58.651
5.035,-1.485,7.616,4.503,64.516,2.635,7.808,-4.024,64.516,-1.869,7.765,-4.745,52.786,-52.786,-64.516
5.04,-1.533,7.664,4.455,64.516,2.73,7.904,-4.024,64.516,-1.726,7.765,-4.458,52.786,-52.786,-64.516
5.045,-1.533,7.712,4.503,64.516,2.682,7.904,-4.072,64.516,-1.726,7.765,-4.458,52.786,-58.651,-64.516
5.05,-1.533,7.664,4.551,58.651,2.73,7.904,-4.119,64.516,-1.726,7.765,-4.602,46.921,-58.651,-64.516
5.055,-1.677,7.712,4.598,58.651,2.826,7.904,-4.167,58.651,-1.726,7.765,-4.602,46.921,-58.651,-64.516
5.0600000000000005,-1.629,7.76,4.598,58.651,2.922,7.999,-4.167,58.651,-1.869,7.765,-4.602,46.921,-58.651,-58.651
5.065,-1.82,7.951,4.79,52.786,3.018,8.095,-4.359,52.786,-1.726,7.478,-4.602,46.921,-58.651,-58.651
5.07,-2.06,8.335,4.886,52.786,3.257,8.526,-4.503,46.921,-2.157,7.909,-4.745,41.056,-64.516,-52.786
5.075,-2.203,8.909,4.934,52.786,3.401,9.101,-4.551,46.921,-2.301,8.34,-4.889,41.056,-64.516,-46.921
5.08,-2.156,9.58,5.03,52.786,3.401,9.772,-4.598,52.786,-2.445,8.916,-5.033,41.056,-64.516,-46.921
5.085,-2.06,10.442,5.03,52.786,3.401,10.49,-4.598,52.786,-2.445,9.635,-5.033,41.056,-70.381,-52.786
5.09,-2.06,11.4,5.125,58.651,3.497,11.4,-4.742,58.651,-2.445,10.641,-5.033,41.056,-70.381,-52.786
5.095,-2.156,12.167,5.317,64.516,3.593,12.262,-4.982,64.516,-2.445,11.648,-5.177,41.056,-70.381,-52.786
5.1000000000000005,-2.156,12.789,5.509,70.381,3.64,12.885,-5.173,70.381,-2.588,12.511,-5.321,46.921,-70.381,-58.651
5.105,-2.06,13.22,5.652,76.246,3.593,13.268,-5.269,82.111,-2.588,13.086,-5.608,52.786,-70.381,-70.381
5.11,-1.964,13.364,5.652,87.977,3.497,13.46,-5.317,87.977,-2.445,13.517,-5.608,52.786,-70.381,-76.246
5.115,-1.964,13.316,5.509,93.842,3.593,13.412,-5.125,93.842,-2.301,13.661,-5.752,52.786,-70.381,-87.977
5.12,-1.677,13.077,5.652,99.707,3.209,13.029,-5.269,99.707,-2.301,13.661,-5.608,58.651,-70.381,-93.842
5.125,-1.82,12.837,5.413,99.707,3.401,12.789,-4.982,99.707,-2.013,13.517,-5.752,58.651,-70.381,-93.842
5.13,-1.82,12.646,5.221,105.572,3.353,12.55,-4.79,105.572,-2.013,13.373,-5.608,64.516,-70.381,-99.707
5.135,-1.772,12.454,4.934,105.572,3.305,12.406,-4.551,105.572,-2.157,13.23,-5.321,64.516,-70.381,-99.707
5.14,-1.629,12.31,4.838,111.437,3.161,12.31,-4.407,111.437,-2.013,13.086,-5.033,70.381,-76.246,-105.572
5.1450000000000005,-1.533,12.071,4.742,117.302,3.066,12.167,-4.311,117.302,-2.013,12.798,-5.033,76.246,-76.246,-111.437
5.15,-1.629,11.592,4.503,123.167,3.161,11.688,-4.024,123.167,-1.869,12.511,-4.889,82.111,-76.246,-117.302
5.155,-1.533,10.921,4.072,123.167,2.97,10.921,-3.593,129.032,-1.726,12.079,-4.602,82.111,-76.246,-117.302
5.16,-1.437,10.299,3.784,134.897,2.874,10.203,-3.257,134.897,-1.726,11.504,-4.314,87.977,-82.111,-123.167
5.165,-1.245,9.915,3.64,134.897,2.635,9.82,-3.161,134.897,-1.582,11.073,-3.883,87.977,-82.111,-129.032
5.17,-1.054,9.628,3.784,140.762,2.491,9.82,-3.305,140.762,-1.438,10.497,-3.739,93.842,-82.111,-134.897
5.175,-0.958,9.436,3.88,140.762,2.299,9.676,-3.401,140.762,-1.15,9.922,-3.883,99.707,-87.977,-140.762
5.18,-0.91,9.293,3.976,146.628,2.299,9.532,-3.497,146.628,-1.15,9.635,-4.026,99.707,-87.977,-140.762
5.1850000000000005,-0.814,9.149,4.119,146.628,2.156,9.484,-3.64,146.628,-1.007,9.491,-4.026,105.572,-93.842,-140.762
5.19,-0.862,8.909,4.263,146.628,2.203,9.293,-3.784,146.628,-0.863,9.203,-4.17,99.707,-93.842,-140.762
5.195,-0.862,8.574,4.359,146.628,2.156,8.957,-3.88,146.628,-1.007,8.916,-4.314,99.707,-99.707,-146.628
5.2,-0.814,8.191,4.455,146.628,2.06,8.574,-3.976,146.628,-1.007,8.484,-4.458,99.707,-99.707,-146.628
5.205,-0.958,7.76,4.551,146.628,2.203,8.095,-4.024,152.493,-1.007,8.197,-4.602,99.707,-99.707,-146.628
5.21,-1.054,7.185,4.407,152.493,2.156,7.329,-3.88,152.493,-1.007,7.765,-4.602,93.842,-99.707,-146.628
5.215,-1.102,6.61,4.359,146.628,2.156,6.658,-3.832,152.493,-1.294,7.334,-4.602,93.842,-105.572,-146.628
5.22,-1.102,6.131,4.311,152.493,2.156,6.083,-3.784,152.493,-1.294,6.902,-4.458,93.842,-105.572,-146.628
5.2250000000000005,-1.054,5.652,4.311,152.493,2.108,5.604,-3.736,152.493,-1.294,6.471,-4.458,93.842,-105.572,-152.493
5.23,-1.054,5.173,4.407,146.628,2.012,5.125,-3.832,146.628,-1.15,6.04,-4.458,99.707,-105.572,-152.493
5.235,-1.102,4.79,4.598,146.628,2.012,4.742,-4.072,146.628,-1.15,5.608,-4.458,99.707,-105.572,-146.628
5.24,-1.198,4.407,4.838,140.762,2.012,4.407,-4.311,140.762,-1.15,5.177,-4.745,99.707,-111.437,-140.762
5.245,-1.293,4.024,5.077,134.897,2.06,4.072,-4.551,134.897,-1.294,4.745,-5.033,105.572,-111.437,-140.762
5.25,-1.389,3.64,5.317,129.032,2.108,3.784,-4.742,129.032,-1.438,4.314,-5.177,111.437,-111.437,-134.897
5.255,-1.533,3.257,5.461,129.032,2.203,3.449,-4.934,129.032,-1.726,3.739,-5.464,111.437,-111.437,-134.897
5.26,-1.629,2.874,5.556,123.167,2.299,3.209,-5.03,123.167,-1.869,3.307,-5.608,111.437,-111.437,-129.032
5.265,-1.772,2.539,5.604,123.167,2.443,2.874,-5.125,123.167,-2.013,2.876,-5.752,111.437,-111.437,-129.032
5.2700000000000005,-1.82,2.06,5.7,117.302,2.491,2.491,-5.173,117.302,-2.013,2.445,-5.752,111.437,-111.437,-123.167
5.275,-2.012,1.677,5.748,111.437,2.635,2.108,-5.221,117.302,-2.157,1.869,-5.896,105.572,-111.437,-117.302
5.28,-2.156,1.341,5.796,111.437,2.73,1.772,-5.317,111.437,-2.301,1.294,-5.896,99.707,-105.572,-111.437
5.285,-2.299,1.006,5.892,105.572,2.826,1.389,-5.365,105.572,-2.445,1.007,-6.04,99.707,-105.572,-111.437
5.29,-2.491,0.671,5.988,99.707,2.97,1.102,-5.461,99.707,-2.588,0.719,-6.04,93.842,-105.572,-105.572
5.295,-2.587,0.24,6.083,93.842,3.018,0.671,-5.556,93.842,-2.876,0.288,-6.183,87.977,-105.572,-99.707
5.3,-2.826,-0.24,6.179,87.977,3.209,0.192,-5.652,87.977,-3.02,-0.144,-6.183,82.111,-99.707,-93.842
5.305,-3.018,-0.671,6.227,82.111,3.305,-0.335,-5.7,82.111,-3.164,-0.719,-6.327,76.246,-99.707,-87.977
5.3100000000000005,-3.161,-1.15,6.227,76.246,3.401,-0.91,-5.7,76.246,-3.451,-1.007,-6.327,64.516,-99.707,-82.111
5.315,-3.353,-1.724,6.131,64.516,3.497,-1.533,-5.604,64.516,-3.739,-1.438,-6.327,58.651,-93.842,-76.246
5.32,-3.64,-2.347,5.94,58.651,3.736,-2.251,-5.461,58.651,-3.883,-1.869,-6.327,52.786,-93.842,-64.516
5.325,-3.832,-2.922,5.844,46.921,3.88,-2.97,-5.317,46.921,-4.17,-2.445,-6.04,52.786,-87.977,-58.651
5.33,-3.928,-3.401,5.796,41.056,3.976,-3.497,-5.269,35.191,-4.458,-2.876,-6.04,46.921,-87.977,-46.921
5.335,-3.976,-3.593,5.7,29.326,3.976,-3.736,-5.173,29.326,-4.458,-3.307,-5.896,46.921,-82.111,-41.056
5.34,-3.976,-3.593,5.652,17.595,4.024,-3.688,-5.125,11.73,-4.602,-3.595,-5.896,46.921,-76.246,-23.46
5.345,-3.88,-3.305,5.652,-0.0,3.976,-3.401,-5.077,0.0,-4.602,-3.739,-5.752,46.921,-76.246,-11.73
5.3500000000000005,-3.88,-2.778,5.7,-11.73,3.976,-2.874,-5.173,-11.73,-4.458,-3.307,-5.752,46.921,-70.381,0.0
5.355,-3.976,-2.203,5.796,-23.46,4.072,-2.156,-5.269,-23.46,-4.314,-2.876,-5.752,46.921,-70.381,11.73
5.36,-3.976,-1.724,5.892,-29.326,4.167,-1.581,-5.413,-35.191,-4.602,-2.301,-5.896,46.921,-64.516,23.46
5.365,-4.072,-1.245,5.94,-41.056,4.263,-1.054,-5.461,-41.056,-4.745,-2.013,-6.04,46.921,-64.516,29.326
5.37,-4.167,-0.958,5.892,-41.056,4.311,-0.766,-5.461,-46.921,-4.889,-1.582,-6.04,46.921,-58.651,41.056
5.375,-4.072,-0.623,5.892,-46.921,4.215,-0.527,-5.461,-52.786,-4.889,-1.294,-6.04,41.056,-52.786,46.921
5.38,-4.407,-0.575,5.461,-52.786,4.742,-0.527,-4.934,-52.786,-4.889,-0.863,-5.896,41.056,-52.786,46.921
5.385,-4.072,-0.287,5.413,-58.651,4.311,-0.287,-4.934,-58.651,-5.177,-0.863,-5.608,35.191,-46.921,52.786
5.39,-4.072,0.144,5.556,-64.516,4.407,0.192,-5.125,-64.516,-4.745,-0.431,-5.464,35.191,-41.056,58.651
5.3950000000000005,-4.024,0.575,5.7,-70.381,4.359,0.719,-5.269,-76.246,-4.745,-0.144,-5.608,29.326,-41.056,64.516
5.4,-3.928,1.15,5.652,-76.246,4.359,1.293,-5.221,-82.111,-4.745,0.288,-5.752,29.326,-35.191,70.381
5.405,-3.88,2.012,5.461,-82.111,4.311,2.203,-5.03,-87.977,-4.602,0.863,-5.752,29.326,-35.191,82.111
5.41,-3.928,2.874,5.221,-87.977,4.455,3.066,-4.79,-93.842,-4.602,1.726,-5.608,23.46,-29.326,87.977
5.415,-3.736,3.497,5.03,-93.842,4.311,3.688,-4.598,-99.707,-4.602,2.588,-5.321,23.46,-29.326,93.842
5.42,-3.688,4.119,4.742,-93.842,4.359,4.311,-4.311,-99.707,-4.458,3.307,-5.177,17.595,-23.46,93.842
5.425,-3.64,4.79,4.551,-99.707,4.551,5.125,-4.072,-99.707,-4.314,4.026,-4.889,17.595,-17.595,99.707
5.43,-0.192,21.555,-8.67,-93.842,8.047,22.226,10.778,-99.707,-4.17,4.602,-4.602,5.865,-17.595,99.707
5.4350000000000005,-8.191,23.95,-15.184,87.977,22.417,24.429,11.544,23.46,-2.732,23.296,-3.307,5.865,-17.595,99.707
5.44,10.873,13.316,2.922,375.366,-9.58,15.376,-2.491,351.906,-22.145,50.186,19.988,23.46,-5.865,5.865
5.445,4.072,10.394,-3.832,357.771,-1.533,10.921,5.317,351.906,14.38,34.943,0.288,41.056,11.73,-258.064
5.45,-10.442,8.43,-7.664,287.39,11.783,9.149,8.335,287.39,9.347,12.511,2.013,-87.977,-87.977,-322.581
5.455,-11.4,3.545,-6.179,222.874,9.341,-1.629,6.754,222.874,-8.197,7.765,7.478,-123.167,-123.167,-281.525
5.46,-7.951,8.862,-0.814,152.493,7.712,4.838,0.91,152.493,-14.092,7.909,6.759,-146.628,-140.762,-234.604
5.465,-2.682,8.478,7.041,105.572,3.353,7.137,-6.658,105.572,-11.073,15.243,3.307,-117.302,-129.032,-164.223
5.47,-2.874,7.52,4.407,23.46,3.114,4.886,-3.688,17.595,-2.732,9.347,-6.615,-41.056,-111.437,-117.302
5.4750000000000005,-5.892,10.059,3.161,-76.246,6.658,8.526,-2.778,-82.111,-2.445,9.203,-5.321,-11.73,-105.572,-41.056
5.48,-5.365,11.783,6.227,-117.302,6.227,11.352,-5.988,-123.167,-6.183,11.935,-2.876,5.865,-99.707,64.516
5.485,-3.928,11.113,7.425,-123.167,4.646,11.017,-7.089,-129.032,-6.615,12.942,-5.608,41.056,-93.842,117.302
5.49,-3.88,9.676,6.993,-123.167,5.269,10.155,-6.514,-129.032,-5.177,11.935,-7.478,58.651,-87.977,129.032
5.495,-4.551,8.909,6.227,-111.437,5.604,9.963,-5.844,-111.437,-4.17,10.354,-7.334,64.516,-82.111,129.032
5.5,-5.173,8.766,7.329,-93.842,5.796,9.293,-7.137,-93.842,-4.889,8.34,-6.471,64.516,-76.246,117.302
5.505,-5.413,8.526,7.52,-58.651,6.227,8.957,-7.089,-58.651,-6.615,9.203,-7.19,58.651,-76.246,99.707
5.51,-4.694,7.856,6.706,-11.73,5.461,8.67,-6.467,-11.73,-6.615,9.059,-8.053,52.786,-70.381,70.381
5.515,-3.257,7.329,7.712,29.326,4.311,8.718,-7.425,29.326,-6.04,8.34,-6.759,52.786,-58.651,23.46
5.5200000000000005,-2.491,7.185,7.185,46.921,3.545,7.951,-6.706,46.921,-3.883,6.183,-7.765,52.786,-52.786,-17.595
5.525,-3.88,8.047,4.215,52.786,5.077,8.191,-3.64,46.921,-3.02,6.183,-7.765,41.056,-52.786,-41.056
5.53,-3.066,8.862,3.832,52.786,4.215,8.814,-3.353,52.786,-3.883,8.053,-4.745,29.326,-52.786,-46.921
5.535,-3.018,9.628,3.497,52.786,4.503,9.915,-3.018,52.786,-3.739,9.203,-3.739,23.46,-52.786,-52.786
5.54,-2.73,9.867,3.545,52.786,3.976,10.059,-3.066,52.786,-2.732,9.778,-3.595,23.46,-52.786,-52.786
5.545,-2.635,9.963,3.497,52.786,3.928,10.011,-3.018,52.786,-3.02,9.922,-3.451,29.326,-58.651,-52.786
5.55,-3.066,10.346,3.161,46.921,4.263,10.538,-2.778,46.921,-2.732,10.21,-3.595,23.46,-64.516,-52.786
5.555,-3.114,10.299,2.73,41.056,4.311,10.538,-2.299,41.056,-3.164,10.497,-3.307,29.326,-64.516,-46.921
5.5600000000000005,-2.73,10.107,2.874,29.326,4.072,10.346,-2.395,29.326,-3.451,10.21,-2.876,23.46,-64.516,-41.056
5.565,-2.922,10.538,3.257,29.326,4.119,10.825,-2.826,29.326,-2.732,10.354,-2.876,23.46,-64.516,-35.191
5.57,-2.97,10.586,3.401,29.326,4.263,10.825,-2.97,23.46,-3.02,10.497,-3.307,23.46,-64.516,-23.46
5.575,-2.73,10.251,3.784,23.46,3.976,10.394,-3.353,23.46,-3.164,10.641,-3.451,23.46,-70.381,-23.46
5.58,-2.826,9.82,4.119,23.46,4.024,9.915,-3.688,17.595,-3.02,10.497,-3.739,23.46,-70.381,-23.46
5.585,-2.778,9.197,4.359,17.595,4.024,9.293,-3.88,17.595,-3.02,10.21,-4.17,17.595,-70.381,-17.595
5.59,-2.922,8.718,4.503,17.595,4.072,8.766,-4.072,17.595,-2.876,9.635,-4.314,17.595,-76.246,-17.595
5.595,-2.826,8.43,4.598,17.595,3.976,8.43,-4.167,17.595,-3.02,9.203,-4.602,17.595,-76.246,-11.73
5.6000000000000005,-2.682,8.047,4.694,17.595,3.736,8.095,-4.263,11.73,-3.02,8.772,-4.602,23.46,-76.246,-17.595
5.605,-2.635,7.904,4.742,11.73,3.688,7.904,-4.263,11.73,-2.876,8.484,-4.745,23.46,-76.246,-11.73
5.61,-2.539,7.904,4.646,5.865,3.64,7.999,-4.215,5.865,-2.876,8.197,-4.745,23.46,-82.111,-11.73
5.615,-2.491,8.191,4.79,5.865,3.545,8.383,-4.359,5.865,-2.732,8.197,-4.745,23.46,-82.111,-5.865
5.62,-2.347,8.622,4.934,5.865,3.401,8.862,-4.551,5.865,-2.732,8.34,-4.889,29.326,-82.111,-5.865
5.625,-2.203,9.053,5.077,5.865,3.305,9.293,-4.694,0.0,-2.588,8.628,-5.033,29.326,-82.111,-5.865
5.63,-2.156,9.436,5.317,5.865,3.209,9.676,-4.934,5.865,-2.588,9.059,-5.177,23.46,-82.111,0.0
5.635,-1.916,9.867,5.604,5.865,2.97,10.011,-5.221,5.865,-2.588,9.491,-5.321,23.46,-82.111,0.0
5.64,-1.772,10.155,5.796,5.865,2.73,10.299,-5.461,5.865,-2.445,9.922,-5.608,23.46,-82.111,0.0
5.6450000000000005,-1.677,10.251,5.748,5.865,2.682,10.299,-5.365,5.865,-2.301,10.354,-5.752,23.46,-82.111,0.0
5.65,-1.389,10.155,5.844,11.73,2.347,10.203,-5.461,11.73,-2.157,10.641,-5.752,23.46,-82.111,-5.865
5.655,-1.341,10.011,5.796,11.73,2.299,10.011,-5.461,11.73,-2.013,10.497,-5.896,23.46,-76.246,-11.73
5.66,-1.485,9.915,5.556,17.595,2.299,9.867,-5.221,17.595,-1.869,10.497,-5.896,29.326,-76.246,-11.73
5.665,-1.389,9.724,5.413,23.46,2.251,9.676,-5.03,23.46,-2.157,10.497,-5.752,29.326,-70.381,-11.73
5.67,-1.245,9.388,5.221,29.326,2.012,9.436,-4.838,29.326,-2.013,10.354,-5.608,35.191,-70.381,-17.595
5.675,-1.15,9.005,5.03,35.191,1.868,9.053,-4.646,35.191,-1.869,9.922,-5.321,35.191,-64.516,-23.46
5.68,-1.245,8.622,4.646,41.056,2.012,8.67,-4.263,35.191,-1.726,9.491,-5.177,41.056,-58.651,-29.326
5.6850000000000005,-1.102,8.239,4.263,35.191,1.772,8.43,-3.88,35.191,-1.726,9.059,-4.745,41.056,-52.786,-35.191
5.69,-1.006,7.999,3.832,41.056,1.724,8.239,-3.449,41.056,-1.726,8.484,-4.458,46.921,-46.921,-35.191
5.695,-0.91,7.951,3.449,41.056,1.677,8.287,-3.066,41.056,-1.726,8.197,-4.026,46.921,-41.056,-41.056
5.7,-0.671,8.047,2.874,41.056,1.485,8.383,-2.443,41.056,-1.438,8.053,-3.595,46.921,-41.056,-41.056
5.705,-0.91,8.191,2.443,41.056,1.964,8.766,-2.012,41.056,-1.294,8.053,-3.02,46.921,-35.191,-41.056
5.71,-0.766,8.047,1.293,46.921,2.06,8.383,-0.719,46.921,-1.294,7.909,-2.588,41.056,-29.326,-41.056
5.715,-0.527,7.904,-0.144,52.786,2.012,7.904,0.766,46.921,-0.719,8.053,-1.582,41.056,-29.326,-46.921
5.72,-0.335,7.904,-1.389,52.786,2.06,7.664,2.06,52.786,-0.144,8.34,-0.0,35.191,-29.326,-46.921
5.7250000000000005,-0.048,8.143,-2.299,52.786,1.868,7.76,2.97,52.786,0.431,8.628,1.294,35.191,-35.191,-46.921
5.73,0.144,8.622,-2.682,52.786,1.677,8.239,3.353,52.786,0.863,8.916,2.301,41.056,-46.921,-52.786
5.735,0.24,9.293,-2.778,46.921,1.581,9.149,3.401,46.921,1.15,9.491,2.732,52.786,-58.651,-46.921
5.74,0.335,10.059,-2.73,46.921,1.389,10.203,3.305,46.921,1.15,9.922,2.876,58.651,-76.246,-46.921
5.745,0.527,10.873,-2.539,46.921,1.198,11.161,3.161,46.921,1.15,10.354,2.876,70.381,-93.842,-46.921
5.75,0.719,11.64,-2.395,46.921,1.006,12.023,2.97,46.921,1.15,10.929,2.588,76.246,-105.572,-46.921
5.755,0.958,12.406,-2.395,52.786,0.766,12.933,2.97,46.921,1.15,11.792,2.445,76.246,-117.302,-46.921
5.76,1.293,12.981,-2.491,52.786,0.575,13.652,3.018,52.786,1.438,12.223,2.301,76.246,-123.167,-46.921
5.765,1.533,13.316,-2.682,58.651,0.431,14.035,3.305,58.651,1.869,12.798,2.301,76.246,-134.897,-52.786
5.7700000000000005,1.485,13.556,-2.922,70.381,0.527,14.418,3.545,70.381,2.157,13.086,2.588,70.381,-140.762,-58.651
5.775,1.772,13.46,-2.97,76.246,0.287,14.37,3.593,76.246,2.301,13.23,2.732,70.381,-152.493,-64.516
5.78,1.916,13.125,-2.874,87.977,0.192,14.131,3.545,82.111,2.588,13.086,2.876,64.516,-164.223,-76.246
5.785,1.916,12.789,-2.682,93.842,0.144,13.891,3.305,93.842,2.876,12.798,2.732,52.786,-175.953,-82.111
5.79,1.964,12.262,-2.299,105.572,-0.048,13.508,2.97,105.572,2.732,12.223,2.588,46.921,-187.683,-93.842
5.795,2.012,11.688,-1.868,117.302,-0.24,13.029,2.491,117.302,2.732,11.648,2.157,41.056,-199.413,-105.572
5.8,2.012,11.065,-1.389,129.032,-0.335,12.454,2.108,123.167,2.732,10.929,1.726,29.326,-211.144,-111.437
5.805,2.012,10.442,-1.054,134.897,-0.479,11.783,1.724,134.897,2.588,10.21,1.15,5.865,-222.874,-123.167
5.8100000000000005,2.156,9.772,-0.671,146.628,-0.766,10.921,1.389,146.628,2.445,9.635,0.719,0.0,-234.604,-134.897
5.815,2.299,9.005,-0.287,158.358,-0.958,9.867,1.054,158.358,2.588,9.059,0.431,-11.73,-246.334,-146.628
5.82,2.443,8.143,0.096,164.223,-1.245,8.67,0.719,164.223,2.732,8.628,-0.0,-23.46,-252.199,-152.493
5.825,2.491,7.233,0.623,170.088,-1.485,7.329,0.24,170.088,2.732,8.053,-0.431,-35.191,-258.064,-164.223
5.83,2.682,6.227,1.437,175.953,-1.82,5.94,-0.575,175.953,2.732,7.621,-0.863,-35.191,-263.93,-170.088
5.835,2.682,5.317,2.491,175.953,-1.964,4.742,-1.629,175.953,2.876,7.046,-1.582,-35.191,-269.795,-175.953
5.84,2.539,4.646,3.784,175.953,-1.964,3.832,-3.018,170.088,2.876,6.327,-2.588,-29.326,-275.66,-175.953
5.845,2.299,4.167,5.413,164.223,-1.916,3.257,-4.646,164.223,2.588,5.896,-3.883,-17.595,-281.525,-175.953
5.8500000000000005,2.012,3.832,7.185,158.358,-1.82,2.97,-6.467,158.358,2.157,5.464,-5.464,0.0,-281.525,-164.223
5.855,1.724,3.545,9.149,146.628,-1.533,2.874,-8.526,146.628,1.726,5.033,-7.19,17.595,-281.525,-158.358
5.86,1.485,3.209,11.304,140.762,-1.389,2.874,-10.73,140.762,1.294,4.602,-9.203,41.056,-275.66,-152.493
5.865,1.198,2.922,13.652,134.897,-1.15,2.874,-13.173,129.032,1.007,3.883,-11.36,52.786,-275.66,-140.762
5.87,0.862,2.539,15.999,123.167,-1.006,2.826,-15.663,123.167,0.575,3.164,-13.661,64.516,-263.93,-134.897
5.875,0.287,2.108,18.394,117.302,-0.623,2.491,-18.106,111.437,-0.144,2.301,-16.106,70.381,-258.064,-129.032
5.88,-0.287,1.629,20.645,105.572,-0.335,2.012,-20.501,99.707,-0.863,1.582,-18.55,70.381,-246.334,-117.302
5.885,-0.335,1.677,21.795,93.842,0.048,2.108,-21.555,93.842,-1.726,1.007,-20.851,64.516,-234.604,-105.572
5.89,-1.054,1.198,23.184,87.977,0.192,1.533,-23.567,87.977,-1.726,1.15,-22.145,58.651,-217.009,-93.842
5.8950000000000005,-1.772,0.383,24.381,82.111,0.766,0.383,-24.573,82.111,-2.876,0.719,-23.439,52.786,-199.413,-87.977
5.9,-2.06,-0.431,24.429,76.246,0.814,-0.623,-24.573,76.246,-3.883,0.144,-25.021,46.921,-175.953,-82.111
5.905,-2.299,-1.198,24.429,64.516,0.575,-1.533,-24.573,64.516,-4.458,-0.431,-26.172,41.056,-152.493,-76.246
5.91,-2.778,-1.581,24.429,52.786,0.862,-2.012,-24.573,52.786,-5.177,-1.15,-26.891,41.056,-123.167,-64.516
5.915,-3.736,-1.533,24.429,35.191,1.916,-2.156,-24.573,35.191,-5.896,-1.438,-27.466,41.056,-87.977,-52.786
5.92,-3.449,-1.724,24.429,17.595,1.629,-2.299,-24.573,17.595,-6.759,-1.294,-27.466,41.056,-52.786,-41.056
5.925,-3.497,-0.91,24.429,5.865,1.724,-1.724,-24.573,5.865,-6.615,-1.294,-26.603,41.056,-11.73,-17.595
5.93,-3.353,0.192,23.902,-5.865,1.629,-0.479,-24.573,-5.865,-6.615,-0.431,-25.596,46.921,29.326,-5.865
5.9350000000000005,-3.018,1.006,22.417,-23.46,1.772,0.719,-24.573,-23.46,-6.615,0.575,-24.59,52.786,64.516,5.865
5.94,-2.97,1.581,20.597,-35.191,1.964,1.437,-20.453,-35.191,-5.752,1.15,-23.296,64.516,105.572,23.46
5.945,-2.682,1.964,18.873,-41.056,1.772,1.868,-18.585,-41.056,-5.464,1.582,-21.57,70.381,134.897,35.191
5.95,-1.82,2.443,18.106,-52.786,1.437,2.347,-17.675,-46.921,-5.033,1.869,-19.844,70.381,170.088,41.056
5.955,-2.443,3.114,14.657,-58.651,1.485,3.305,-14.274,-52.786,-4.026,2.588,-18.838,70.381,193.548,52.786
5.96,-1.964,3.353,13.987,-64.516,1.868,3.545,-13.316,-64.516,-4.602,2.301,-15.387,76.246,217.009,58.651
5.965,-2.108,3.018,12.598,-70.381,1.389,4.311,-12.215,-64.516,-3.739,3.307,-14.955,70.381,234.604,70.381
5.97,-1.964,5.413,10.155,-64.516,1.054,6.179,-9.532,-64.516,-3.451,2.732,-14.092,64.516,258.064,70.381
5.9750000000000005,-1.389,5.652,9.053,-76.246,1.868,6.131,-8.191,-70.381,-4.458,4.602,-10.785,64.516,269.795,70.381
5.98,-1.006,5.748,7.185,-70.381,1.198,6.083,-6.323,-70.381,-2.301,5.464,-9.778,58.651,293.255,76.246
5.985,-0.623,6.467,4.694,-70.381,1.341,6.898,-3.64,-64.516,-2.013,5.752,-8.34,52.786,304.985,76.246
5.99,-0.431,6.61,2.203,-64.516,1.245,6.658,-1.102,-64.516,-1.15,6.183,-5.896,52.786,316.715,70.381
5.995,-0.383,6.802,-0.431,-70.381,1.677,6.514,1.581,-64.516,-0.719,6.759,-3.307,46.921,322.581,70.381
6.0,-0.048,7.185,-3.305,-76.246,1.581,6.562,4.551,-70.381,0.0,7.334,-0.575,46.921,322.581,70.381
6.005,0.24,7.664,-6.179,-82.111,1.724,6.85,7.472,-82.111,0.719,8.053,2.445,52.786,316.715,82.111
6.01,0.24,8.383,-8.957,-93.842,2.156,7.472,10.299,-93.842,1.582,8.916,5.321,64.516,304.985,87.977
6.015000000000001,0.048,9.388,-11.688,-105.572,2.682,8.574,12.933,-105.572,2.157,9.635,8.34,82.111,287.39,99.707
6.0200000000000005,-0.048,10.634,-13.843,-117.302,3.114,10.203,15.041,-117.302,2.301,10.641,11.216,99.707,263.93,105.572
6.025,-0.192,12.119,-15.376,-129.032,3.497,12.262,16.478,-129.032,2.445,11.648,13.517,117.302,234.604,117.302
6.03,-0.431,13.699,-16.238,-129.032,3.976,14.514,17.196,-129.032,2.588,12.654,15.243,134.897,199.413,129.032
6.035,-0.862,15.041,-16.573,-123.167,4.455,16.573,17.388,-123.167,2.301,13.517,16.249,146.628,164.223,129.032
6.04,-1.293,16.094,-16.43,-111.437,4.886,18.346,17.148,-111.437,1.726,14.092,16.681,146.628,123.167,129.032
6.045,-1.485,16.861,-16.094,-93.842,4.982,19.687,16.669,-93.842,1.007,14.524,16.681,140.762,87.977,117.302
6.05,-1.629,17.196,-15.615,-70.381,5.125,20.405,16.142,-70.381,0.575,14.811,16.249,123.167,46.921,99.707
6.055,-1.485,17.196,-15.232,-41.056,4.934,20.501,15.759,-41.056,0.288,14.811,15.818,99.707,17.595,76.246
6.0600000000000005,-0.958,16.43,-14.945,-5.865,3.832,19.4,15.424,-5.865,0.288,14.524,15.387,64.516,-17.595,46.921
6.065,-1.868,16.047,-14.753,23.46,5.413,18.825,15.328,23.46,0.288,14.236,14.955,23.46,-46.921,17.595
6.07,-0.862,14.993,-14.418,46.921,3.688,17.196,15.041,46.921,0.431,13.949,14.811,-17.595,-70.381,-17.595
6.075,-0.91,14.226,-13.939,64.516,3.88,16.094,14.705,64.516,0.431,13.373,14.524,-52.786,-99.707,-41.056
6.08,-0.479,12.741,-13.604,76.246,2.874,14.083,14.37,76.246,0.863,12.942,13.949,-82.111,-129.032,-58.651
