time_aligned_sec,L_Acc_X_aligned,L_Acc_Y_aligned,L_Acc_Z_aligned,L_Gyro_Z_aligned,R_Acc_X_aligned,R_Acc_Y_aligned,R_Acc_Z_aligned,R_Gyro_Z_aligned,T_Acc_X_aligned,T_Acc_Y_aligned,T_Acc_Z_aligned,T_Gyro_X_aligned,T_Gyro_Y_aligned,T_Gyro_Z_aligned
0.0,0.431,7.425,-6.323,-11.73,0.0,7.616,5.94,-5.865,0.575,7.621,5.752,5.865,5.865,5.865
0.005,0.431,7.377,-6.323,-5.865,-0.048,7.616,5.94,0.0,0.575,7.621,5.752,5.865,5.865,5.865
0.01,0.431,7.377,-6.323,-11.73,-0.096,7.616,5.94,0.0,0.719,7.621,5.752,5.865,5.865,5.865
0.015,0.479,7.377,-6.323,-5.865,-0.096,7.616,5.94,0.0,0.719,7.621,5.752,5.865,5.865,5.865
0.02,0.479,7.377,-6.323,-11.73,-0.096,7.568,5.94,0.0,0.719,7.621,5.752,5.865,5.865,5.865
0.025,0.479,7.377,-6.323,-11.73,-0.096,7.568,5.94,0.0,0.719,7.621,5.752,5.865,5.865,5.865
0.03,0.527,7.377,-6.323,-5.865,-0.144,7.568,5.94,0.0,0.719,7.621,5.752,5.865,5.865,5.865
0.035,0.479,7.425,-6.371,-5.865,-0.144,7.616,5.94,-5.865,0.719,7.621,5.752,5.865,5.865,5.865
0.04,0.527,7.472,-6.419,-5.865,-0.144,7.616,6.035,0.0,0.719,7.621,5.896,5.865,5.865,5.865
0.045,0.527,7.472,-6.467,-5.865,-0.144,7.712,6.083,0.0,0.719,7.621,5.896,5.865,5.865,5.865
0.05,0.527,7.472,-6.467,-5.865,-0.144,7.712,6.083,0.0,0.719,7.621,5.896,5.865,5.865,5.865
0.055,0.575,7.472,-6.467,-11.73,-0.144,7.664,6.083,0.0,0.863,7.621,5.896,5.865,5.865,5.865
0.06,0.527,7.52,-6.467,-5.865,-0.144,7.664,6.083,0.0,0.719,7.765,5.896,5.865,5.865,5.865
0.065,0.575,7.52,-6.514,-11.73,-0.192,7.712,6.131,0.0,0.719,7.621,5.896,5.865,5.865,5.865
0.07,0.671,7.568,-6.514,-5.865,-0.287,7.712,6.131,0.0,0.863,7.765,5.896,5.865,5.865,5.865
0.075,0.671,7.568,-6.562,-5.865,-0.335,7.76,6.179,0.0,0.863,7.765,5.896,5.865,5.865,5.865
0.08,0.623,7.568,-6.61,-5.865,-0.335,7.808,6.227,0.0,0.863,7.765,6.04,5.865,5.865,5.865
0.085,0.623,7.568,-6.61,-11.73,-0.287,7.808,6.227,0.0,0.863,7.765,6.04,5.865,5.865,5.865
0.09,0.623,7.568,-6.61,-11.73,-0.287,7.808,6.275,-5.865,0.863,7.765,6.04,5.865,5.865,5.865
0.095,0.623,7.568,-6.658,-11.73,-0.287,7.76,6.275,0.0,0.863,7.765,6.04,5.865,5.865,5.865
0.1,0.575,7.568,-6.706,-5.865,-0.24,7.76,6.323,0.0,0.863,7.765,6.183,5.865,5.865,5.865
0.105,0.623,7.52,-6.706,-5.865,-0.287,7.808,6.323,0.0,0.719,7.765,6.183,5.865,5.865,5.865
0.11,0.671,7.52,-6.706,-5.865,-0.335,7.808,6.323,0.0,0.719,7.621,6.04,5.865,5.865,5.865
0.115,0.623,7.52,-6.706,-5.865,-0.335,7.808,6.371,0.0,0.719,7.621,6.183,0.0,11.73,0.0
0.12,0.671,7.568,-6.658,-5.865,-0.335,7.808,6.323,0.0,0.719,7.621,6.183,0.0,11.73,0.0
0.125,0.671,7.568,-6.658,-5.865,-0.335,7.808,6.323,0.0,0.863,7.765,6.04,0.0,11.73,0.0
0.13,0.671,7.616,-6.658,-5.865,-0.335,7.856,6.275,0.0,0.863,7.765,6.04,0.0,17.595,0.0
0.135,0.623,7.664,-6.658,-5.865,-0.287,7.904,6.323,0.0,0.863,7.765,6.04,0.0,17.595,0.0
0.14,0.671,7.664,-6.706,-5.865,-0.287,7.951,6.323,0.0,0.863,7.765,6.04,0.0,17.595,0.0
0.145,0.671,7.616,-6.706,-5.865,-0.335,8.047,6.323,5.865,0.863,7.621,6.183,-5.865,17.595,0.0
0.15,0.671,7.568,-6.754,-0.0,-0.431,7.999,6.371,0.0,0.863,7.621,6.183,-5.865,17.595,0.0
0.155,0.671,7.52,-6.754,-0.0,-0.431,7.951,6.371,5.865,0.719,7.621,6.183,-5.865,17.595,0.0
0.16,0.623,7.52,-6.802,-0.0,-0.335,7.904,6.419,5.865,0.719,7.478,6.183,-11.73,17.595,-5.865
0.165,0.575,7.568,-6.802,-0.0,-0.287,7.904,6.467,5.865,0.719,7.621,6.183,-11.73,23.46,-5.865
0.17,0.623,7.568,-6.802,-0.0,-0.335,7.856,6.467,5.865,0.719,7.621,6.183,-17.595,23.46,-5.865
0.17500000000000002,0.623,7.568,-6.85,-0.0,-0.335,7.856,6.467,5.865,0.719,7.621,6.183,-17.595,23.46,-5.865
0.18,0.575,7.568,-6.898,5.865,-0.287,7.856,6.467,11.73,0.719,7.621,6.327,-23.46,23.46,-5.865
0.185,0.575,7.616,-6.898,5.865,-0.24,7.808,6.514,11.73,0.719,7.765,6.327,-23.46,29.326,-11.73
0.19,0.575,7.616,-6.85,5.865,-0.24,7.808,6.467,11.73,0.719,7.765,6.183,-23.46,29.326,-11.73
0.195,0.575,7.616,-6.754,5.865,-0.24,7.76,6.419,11.73,0.719,7.909,6.183,-23.46,29.326,-11.73
0.2,0.575,7.712,-6.754,5.865,-0.24,7.856,6.419,11.73,0.719,7.909,6.183,-23.46,29.326,-11.73
0.20500000000000002,0.575,7.76,-6.754,5.865,-0.24,7.951,6.419,11.73,0.719,7.909,6.183,-23.46,29.326,-11.73
0.21,0.575,7.808,-6.706,5.865,-0.287,7.999,6.371,17.595,0.719,7.909,6.183,-23.46,29.326,-11.73
0.215,0.575,7.808,-6.658,5.865,-0.24,8.047,6.323,11.73,0.719,7.909,6.183,-23.46,29.326,-11.73
0.22,0.527,7.856,-6.658,5.865,-0.24,8.095,6.275,11.73,0.719,7.909,6.04,-23.46,35.191,-11.73
0.225,0.479,7.808,-6.562,5.865,-0.192,8.047,6.275,17.595,0.719,7.909,6.04,-23.46,35.191,-11.73
0.23,0.431,7.76,-6.562,5.865,-0.096,7.999,6.179,11.73,0.719,7.909,6.04,-23.46,35.191,-11.73
0.23500000000000001,0.431,7.76,-6.562,5.865,-0.048,7.951,6.179,11.73,0.719,7.909,5.896,-23.46,35.191,-11.73
0.24,0.431,7.808,-6.514,5.865,-0.048,7.999,6.179,11.73,0.719,8.053,5.896,-29.326,35.191,-11.73
0.245,0.479,7.856,-6.467,11.73,-0.096,8.047,6.131,17.595,0.575,8.053,5.896,-29.326,35.191,-11.73
0.25,0.527,7.856,-6.467,11.73,-0.144,8.047,6.083,17.595,0.719,8.053,5.896,-23.46,35.191,-11.73
0.255,0.527,7.856,-6.371,5.865,-0.144,8.095,6.083,17.595,0.719,8.053,5.896,-29.326,35.191,-11.73
0.26,0.527,7.856,-6.323,5.865,-0.144,8.095,5.988,17.595,0.719,8.053,5.752,-29.326,35.191,-11.73
0.265,0.479,7.856,-6.323,5.865,-0.144,8.095,5.94,11.73,0.719,8.053,5.752,-29.326,41.056,-11.73
0.27,0.479,7.856,-6.275,5.865,-0.144,8.095,5.94,17.595,0.719,8.053,5.752,-29.326,41.056,-11.73
0.275,0.527,7.808,-6.227,11.73,-0.144,8.047,5.844,17.595,0.719,8.053,5.608,-29.326,41.056,-11.73
0.28,0.527,7.808,-6.179,11.73,-0.144,8.047,5.796,17.595,0.719,8.053,5.608,-29.326,41.056,-11.73
0.28500000000000003,0.527,7.808,-6.131,11.73,-0.144,8.047,5.796,17.595,0.719,8.053,5.608,-29.326,41.056,-11.73
0.29,0.527,7.856,-6.131,11.73,-0.144,8.047,5.748,17.595,0.719,8.053,5.464,-29.326,41.056,-11.73
0.295,0.479,7.904,-6.083,11.73,-0.144,8.095,5.7,17.595,0.719,8.053,5.464,-29.326,41.056,-11.73
0.3,0.479,7.904,-6.035,11.73,-0.096,8.095,5.7,17.595,0.719,8.053,5.464,-29.326,41.056,-17.595
0.305,0.431,7.951,-5.94,11.73,-0.096,8.143,5.604,17.595,0.575,8.053,5.464,-29.326,41.056,-17.595
0.31,0.431,7.951,-5.844,11.73,-0.048,8.143,5.556,17.595,0.719,8.053,5.321,-29.326,41.056,-17.595
0.315,0.431,7.999,-5.796,11.73,-0.048,8.191,5.461,17.595,0.719,8.197,5.177,-29.326,41.056,-17.595
0.32,0.431,8.047,-5.7,17.595,-0.048,8.239,5.365,17.595,0.719,8.197,5.177,-29.326,41.056,-17.595
0.325,0.431,8.047,-5.652,11.73,-0.048,8.287,5.269,17.595,0.575,8.197,5.033,-29.326,46.921,-17.595
0.33,0.431,8.047,-5.604,11.73,-0.048,8.287,5.221,17.595,0.719,8.197,5.033,-29.326,41.056,-17.595
0.335,0.431,8.095,-5.556,11.73,0.0,8.239,5.173,17.595,0.719,8.34,5.033,-35.191,41.056,-17.595
0.34,0.431,8.143,-5.556,11.73,0.0,8.287,5.173,17.595,0.719,8.34,4.889,-35.191,46.921,-17.595
0.34500000000000003,0.431,8.143,-5.509,11.73,0.048,8.287,5.125,17.595,0.719,8.34,4.889,-35.191,41.056,-17.595
0.35000000000000003,0.431,8.191,-5.509,11.73,0.048,8.287,5.125,17.595,0.719,8.484,4.889,-35.191,41.056,-17.595
0.355,0.431,8.239,-5.509,11.73,0.048,8.335,5.125,17.595,0.719,8.484,4.889,-29.326,41.056,-17.595
0.36,0.431,8.335,-5.461,11.73,0.048,8.383,5.125,17.595,0.719,8.628,4.889,-29.326,41.056,-11.73
0.365,0.479,8.43,-5.413,11.73,0.0,8.43,5.03,17.595,0.719,8.772,4.889,-29.326,41.056,-11.73
0.37,0.479,8.478,-5.317,5.865,0.0,8.478,4.982,11.73,0.719,8.772,4.745,-29.326,41.056,-11.73
0.375,0.431,8.574,-5.269,5.865,0.048,8.526,4.886,11.73,0.863,8.916,4.745,-23.46,41.056,-11.73
0.38,0.431,8.622,-5.221,5.865,0.144,8.574,4.838,11.73,0.863,9.059,4.602,-23.46,35.191,-11.73
0.385,0.431,8.67,-5.221,-0.0,0.192,8.574,4.79,5.865,0.863,9.059,4.602,-17.595,35.191,-5.865
0.39,0.383,8.766,-5.125,-0.0,0.24,8.622,4.79,5.865,0.863,9.347,4.602,-17.595,35.191,-5.865
0.395,0.383,8.814,-4.982,-5.865,0.24,8.766,4.646,5.865,0.863,9.347,4.458,-11.73,29.326,0.0
0.4,0.335,8.909,-4.886,-5.865,0.24,8.909,4.503,0.0,0.863,9.203,4.314,-5.865,29.326,0.0
0.405,0.383,8.957,-4.742,-5.865,0.24,9.053,4.407,0.0,0.719,9.203,4.17,-5.865,23.46,0.0
0.41000000000000003,0.431,9.005,-4.598,-5.865,0.192,9.101,4.263,0.0,0.719,9.203,4.17,0.0,23.46,0.0
0.41500000000000004,0.431,9.053,-4.455,-11.73,0.144,9.197,4.119,0.0,0.719,9.203,3.883,0.0,23.46,5.865
0.42,0.383,9.101,-4.311,-11.73,0.144,9.293,3.976,-5.865,0.863,9.203,3.739,0.0,17.595,5.865
0.425,0.287,9.197,-4.215,-11.73,0.24,9.388,3.832,-5.865,0.719,9.203,3.739,0.0,17.595,5.865
0.43,0.287,9.341,-4.072,-11.73,0.335,9.532,3.736,-5.865,0.719,9.347,3.595,0.0,17.595,5.865
0.435,0.335,9.484,-3.88,-11.73,0.24,9.772,3.545,-5.865,0.575,9.347,3.451,0.0,11.73,5.865
0.44,0.335,9.628,-3.688,-11.73,0.24,9.963,3.353,-5.865,0.575,9.491,3.164,-5.865,11.73,5.865
0.445,0.335,9.772,-3.401,-11.73,0.192,10.155,3.114,-5.865,0.575,9.635,3.02,-5.865,5.865,5.865
0.45,0.335,9.915,-3.161,-11.73,0.335,10.299,2.874,-5.865,0.719,9.635,2.732,-11.73,5.865,11.73
0.455,0.335,10.059,-2.922,-17.595,0.383,10.442,2.635,-11.73,0.719,9.778,2.445,-17.595,5.865,11.73
0.46,0.335,10.155,-2.682,-17.595,0.383,10.586,2.395,-11.73,0.719,9.922,2.301,-17.595,5.865,11.73
0.465,0.335,10.251,-2.443,-17.595,0.479,10.586,2.108,-11.73,0.863,10.066,2.013,-23.46,0.0,11.73
0.47000000000000003,0.287,10.346,-2.156,-17.595,0.575,10.682,1.916,-11.73,1.007,10.21,1.869,-29.326,-5.865,11.73
0.47500000000000003,0.287,10.442,-1.916,-17.595,0.623,10.682,1.581,-11.73,1.007,10.354,1.438,-29.326,-5.865,17.595
0.48,0.287,10.442,-1.82,-23.46,0.719,10.682,1.437,-17.595,1.15,10.497,1.294,-35.191,-11.73,17.595
0.485,0.24,10.442,-1.772,-23.46,0.766,10.634,1.341,-17.595,1.15,10.497,1.15,-41.056,-17.595,23.46
0.49,0.24,10.538,-1.82,-29.326,0.766,10.634,1.341,-23.46,1.007,10.641,1.15,-41.056,-29.326,23.46
0.495,0.24,10.586,-1.916,-29.326,0.766,10.73,1.437,-29.326,1.007,10.785,1.294,-41.056,-35.191,23.46
0.5,0.287,10.538,-1.916,-35.191,0.671,10.73,1.485,-29.326,0.863,10.785,1.294,-41.056,-41.056,29.326
0.505,0.287,10.442,-2.012,-41.056,0.671,10.634,1.533,-35.191,1.007,10.785,1.294,-41.056,-46.921,35.191
0.51,0.24,10.251,-2.156,-41.056,0.623,10.394,1.677,-41.056,1.007,10.641,1.438,-41.056,-52.786,35.191
0.515,0.287,10.107,-2.251,-46.921,0.671,10.203,1.772,-41.056,0.863,10.641,1.582,-41.056,-58.651,41.056
0.52,0.287,10.011,-2.347,-52.786,0.623,10.011,1.916,-46.921,1.007,10.641,1.582,-35.191,-70.381,41.056
0.525,0.24,9.867,-2.491,-52.786,0.671,9.82,2.06,-46.921,1.007,10.497,1.726,-35.191,-70.381,46.921
0.53,0.24,9.772,-2.682,-52.786,0.671,9.724,2.203,-52.786,1.007,10.497,1.869,-29.326,-82.111,52.786
0.535,0.24,9.628,-2.874,-58.651,0.671,9.628,2.347,-52.786,0.863,10.21,2.013,-23.46,-87.977,52.786
0.54,0.192,9.436,-3.114,-64.516,0.623,9.484,2.635,-58.651,0.863,10.066,2.301,-23.46,-93.842,58.651
0.545,0.287,9.197,-3.353,-64.516,0.575,9.245,2.874,-58.651,0.863,9.922,2.445,-17.595,-99.707,58.651
0.55,0.287,8.957,-3.64,-64.516,0.479,8.957,3.161,-64.516,0.863,9.635,2.732,-17.595,-105.572,58.651
0.555,0.24,8.718,-4.024,-70.381,0.431,8.766,3.449,-64.516,0.863,9.491,3.02,-11.73,-111.437,64.516
0.56,0.096,8.383,-4.455,-70.381,0.527,8.574,3.832,-70.381,0.719,9.203,3.307,-5.865,-117.302,64.516
0.5650000000000001,0.096,7.856,-5.125,-70.381,0.575,8.191,4.407,-70.381,0.575,8.628,3.883,-5.865,-117.302,70.381
0.5700000000000001,0.096,7.377,-5.844,-70.381,0.527,7.664,5.173,-70.381,0.719,8.197,4.602,0.0,-123.167,64.516
0.5750000000000001,0.048,6.802,-6.706,-70.381,0.479,7.185,5.94,-70.381,0.719,7.621,5.321,0.0,-129.032,64.516
0.58,-0.048,6.227,-7.951,-64.516,0.527,6.754,6.993,-64.516,0.575,6.902,6.327,5.865,-129.032,64.516
0.585,-0.192,5.509,-9.484,-64.516,0.479,6.323,8.383,-64.516,0.288,6.04,7.621,0.0,-134.897,64.516
0.59,-0.24,4.551,-11.113,-58.651,0.335,5.652,9.963,-58.651,-0.144,5.177,9.203,0.0,-134.897,58.651
0.595,-0.24,3.545,-12.789,-46.921,0.048,4.79,11.688,-52.786,-0.431,4.026,10.929,-5.865,-134.897,52.786
0.6,-0.144,2.539,-14.514,-35.191,-0.431,3.832,13.364,-41.056,-0.863,3.02,12.654,-11.73,-129.032,41.056
0.605,0.144,1.629,-16.047,-23.46,-1.054,2.826,14.993,-29.326,-1.15,1.869,14.236,-17.595,-123.167,29.326
0.61,0.431,1.006,-17.388,-5.865,-1.82,2.06,16.478,-11.73,-1.438,1.15,15.818,-23.46,-105.572,11.73
0.615,0.719,0.575,-18.537,11.73,-2.491,1.629,17.771,5.865,-1.582,0.288,17.112,-29.326,-87.977,-5.865
0.62,0.958,0.431,-19.208,29.326,-3.161,1.389,18.681,23.46,-1.726,-0.144,18.119,-41.056,-58.651,-23.46
0.625,1.293,0.431,-19.447,46.921,-3.688,1.389,19.16,41.056,-1.726,-0.144,18.694,-46.921,-23.46,-41.056
0.63,1.485,0.575,-19.208,58.651,-4.024,1.341,19.208,58.651,-1.582,-0.144,18.838,-58.651,17.595,-52.786
0.635,1.198,0.958,-18.585,70.381,-3.88,1.485,18.777,70.381,-1.438,0.144,18.263,-64.516,58.651,-70.381
0.64,0.527,1.772,-17.675,82.111,-3.114,2.012,18.058,82.111,-1.582,0.719,17.544,-76.246,99.707,-76.246
0.645,0.144,2.635,-16.573,87.977,-2.203,2.874,17.052,93.842,-1.869,1.582,16.537,-87.977,134.897,-87.977
0.65,0.0,3.497,-15.424,99.707,-1.772,3.545,15.999,99.707,-2.013,2.732,15.387,-93.842,170.088,-99.707
0.655,-0.144,4.359,-14.035,105.572,-1.15,4.167,14.753,111.437,-1.582,3.883,14.092,-99.707,199.413,-105.572
0.66,-0.24,5.03,-12.646,111.437,-0.719,4.694,13.364,123.167,-1.294,5.033,12.654,-99.707,222.874,-117.302
0.665,-0.527,5.604,-11.352,117.302,-0.192,5.221,12.119,123.167,-1.15,5.752,11.36,-99.707,246.334,-117.302
0.67,-0.862,6.035,-10.059,117.302,0.527,5.461,10.825,123.167,-1.15,6.327,9.922,-99.707,258.064,-117.302
0.675,-0.958,6.514,-8.766,111.437,0.91,5.748,9.484,123.167,-1.007,7.046,8.628,-93.842,269.795,-117.302
0.68,-1.102,6.706,-7.472,111.437,1.245,6.179,8.143,123.167,-0.863,7.621,7.334,-87.977,275.66,-117.302
0.685,-1.341,6.898,-6.227,111.437,1.724,6.275,6.898,123.167,-0.863,7.909,6.04,-82.111,275.66,-111.437
0.6900000000000001,-1.437,7.041,-4.982,111.437,2.108,6.467,5.652,123.167,-0.863,7.909,4.889,-70.381,275.66,-111.437
0.6950000000000001,-1.437,7.425,-3.64,111.437,2.156,6.85,4.311,123.167,-0.863,7.909,3.595,-64.516,269.795,-111.437
0.7000000000000001,-1.389,7.999,-2.443,111.437,2.108,7.52,2.97,123.167,-0.863,8.197,2.301,-58.651,263.93,-117.302
0.705,-1.341,8.766,-1.293,111.437,1.964,8.43,1.772,123.167,-1.007,8.484,1.15,-52.786,258.064,-117.302
0.71,-1.198,9.628,-0.096,105.572,1.82,9.628,0.623,117.302,-1.15,8.916,-0.0,-52.786,258.064,-117.302
0.715,-1.245,10.203,1.245,99.707,1.82,10.346,-0.623,117.302,-1.007,9.491,-1.294,-52.786,252.199,-111.437
0.72,-1.533,10.73,2.635,93.842,2.347,10.778,-2.06,111.437,-0.863,10.354,-2.588,-64.516,252.199,-105.572
0.725,-1.916,11.161,4.119,93.842,3.066,11.113,-3.593,105.572,-0.719,10.929,-4.026,-70.381,246.334,-99.707
0.73,-2.012,11.736,5.461,93.842,3.688,11.496,-5.03,99.707,-0.575,11.504,-5.464,-70.381,240.469,-99.707
0.735,-1.868,12.358,6.754,93.842,3.88,12.119,-6.419,105.572,-0.431,12.079,-6.759,-76.246,228.739,-99.707
0.74,-1.581,12.981,7.808,87.977,3.832,12.694,-7.664,99.707,0.0,12.798,-7.909,-82.111,205.279,-93.842
0.745,-1.293,13.508,8.574,87.977,3.736,13.173,-8.622,99.707,0.431,13.373,-8.772,-82.111,187.683,-93.842
0.75,-0.91,14.035,9.053,76.246,3.497,13.508,-9.388,87.977,1.007,14.092,-9.491,-82.111,164.223,-87.977
0.755,-0.862,14.322,9.053,64.516,3.401,13.843,-9.676,76.246,1.438,14.811,-9.778,-76.246,134.897,-76.246
0.76,-0.623,14.418,8.957,46.921,3.161,13.987,-9.58,64.516,1.294,14.955,-9.778,-76.246,105.572,-64.516
0.765,-0.431,14.322,8.814,35.191,2.922,13.747,-9.484,46.921,1.582,15.387,-9.635,-70.381,82.111,-46.921
0.77,-0.431,14.226,8.526,17.595,2.778,13.556,-9.293,29.326,1.726,15.387,-9.491,-64.516,52.786,-29.326
0.775,-0.335,14.083,8.239,-0.0,2.635,13.556,-9.005,11.73,1.582,15.243,-9.059,-52.786,29.326,-17.595
0.78,-0.383,13.891,8.047,-17.595,2.539,13.46,-8.766,0.0,1.582,14.955,-8.916,-41.056,0.0,0.0
0.785,-0.431,13.604,7.712,-29.326,2.491,13.268,-8.526,-17.595,1.438,14.668,-8.628,-29.326,-23.46,17.595
0.79,-0.575,13.22,7.137,-41.056,2.539,12.981,-8.047,-29.326,1.438,14.236,-8.197,-17.595,-46.921,29.326
0.795,-0.719,12.837,6.419,-52.786,2.635,12.741,-7.377,-46.921,1.15,13.805,-7.765,-11.73,-70.381,41.056
0.8,-0.719,12.454,5.509,-64.516,2.539,12.358,-6.562,-52.786,0.863,13.373,-7.046,-5.865,-87.977,52.786
0.805,-0.814,12.262,4.359,-70.381,2.491,11.975,-5.461,-64.516,0.863,13.086,-6.04,0.0,-111.437,64.516
0.81,-0.766,12.167,3.114,-82.111,2.443,11.688,-4.215,-70.381,0.575,13.23,-4.889,5.865,-129.032,70.381
0.8150000000000001,-0.719,12.023,1.724,-87.977,2.299,11.496,-2.874,-82.111,0.575,13.086,-3.595,17.595,-146.628,76.246
0.8200000000000001,-0.719,11.927,0.24,-93.842,2.156,11.352,-1.341,-87.977,0.575,13.23,-2.157,23.46,-158.358,82.111
0.8250000000000001,-0.575,11.736,-1.198,-99.707,1.964,11.304,0.144,-93.842,0.288,13.086,-0.719,35.191,-175.953,87.977
0.8300000000000001,-0.287,11.4,-2.491,-99.707,1.437,11.161,1.533,-99.707,0.288,12.654,0.719,46.921,-187.683,93.842
0.835,-0.144,11.113,-3.88,-105.572,1.006,11.017,2.922,-105.572,0.144,12.079,2.013,52.786,-193.548,99.707
0.84,-0.048,10.73,-5.365,-105.572,0.527,10.825,4.359,-105.572,0.0,11.648,3.307,64.516,-199.413,99.707
0.845,0.144,10.155,-6.85,-111.437,0.192,10.586,5.844,-111.437,-0.288,10.929,4.889,70.381,-205.279,105.572
0.85,0.335,9.532,-8.143,-105.572,-0.383,10.203,7.281,-105.572,-0.288,10.21,6.327,70.381,-199.413,105.572
0.855,0.575,8.814,-9.293,-99.707,-0.91,9.724,8.478,-105.572,-0.431,9.347,7.621,64.516,-193.548,99.707
0.86,0.766,8.095,-10.299,-99.707,-1.389,9.245,9.532,-99.707,-0.575,8.34,8.772,64.516,-181.818,99.707
0.865,0.91,7.377,-11.161,-87.977,-1.82,8.718,10.442,-93.842,-0.575,7.334,9.778,52.786,-164.223,93.842
0.87,0.958,6.754,-11.927,-82.111,-2.108,8.191,11.257,-82.111,-0.719,6.471,10.641,46.921,-146.628,82.111
0.875,0.958,6.419,-12.598,-70.381,-2.251,7.76,11.975,-76.246,-0.719,5.752,11.36,29.326,-123.167,76.246
0.88,1.054,6.275,-12.981,-58.651,-2.347,7.568,12.502,-58.651,-0.863,5.464,12.079,17.595,-99.707,64.516
0.885,1.198,6.179,-13.125,-41.056,-2.443,7.377,12.741,-46.921,-0.719,5.321,12.367,0.0,-70.381,46.921
0.89,1.15,6.131,-12.981,-29.326,-2.443,7.137,12.741,-35.191,-0.431,5.464,12.511,-11.73,-41.056,35.191
0.895,0.958,6.083,-12.598,-17.595,-2.156,6.898,12.55,-17.595,-0.431,5.608,12.223,-29.326,-17.595,23.46
0.9,0.719,5.94,-12.071,-5.865,-1.724,6.706,12.023,-5.865,-0.431,5.752,11.792,-35.191,5.865,11.73
0.905,0.479,5.844,-11.304,5.865,-1.437,6.467,11.4,5.865,-0.431,5.752,11.216,-46.921,29.326,0.0
0.91,0.144,5.892,-10.299,17.595,-0.862,6.275,10.538,17.595,-0.431,5.752,10.497,-52.786,46.921,-11.73
0.915,-0.048,6.035,-9.197,29.326,-0.335,6.323,9.484,29.326,-0.431,5.896,9.347,-52.786,64.516,-23.46
0.92,0.048,6.371,-8.143,35.191,-0.096,6.562,8.43,41.056,-0.431,6.183,8.34,-58.651,76.246,-35.191
0.925,-0.048,6.658,-7.137,41.056,-0.048,6.754,7.377,46.921,-0.144,6.471,7.19,-58.651,82.111,-41.056
0.93,-0.431,6.993,-6.275,46.921,0.335,6.898,6.419,52.786,-0.288,7.046,6.183,-64.516,87.977,-46.921
0.935,-0.671,7.52,-5.461,52.786,0.862,7.185,5.604,58.651,-0.431,7.621,5.321,-64.516,93.842,-52.786
0.9400000000000001,-0.479,8.239,-4.455,58.651,0.91,7.999,4.694,64.516,-0.575,8.053,4.458,-64.516,99.707,-58.651
0.9450000000000001,-0.431,8.622,-3.401,52.786,0.719,8.622,3.593,64.516,-0.431,8.628,3.451,-58.651,99.707,-64.516
0.9500000000000001,-0.719,8.718,-2.347,58.651,1.006,8.766,2.587,64.516,-0.431,8.916,2.445,-58.651,99.707,-58.651
0.9550000000000001,-1.006,8.814,-1.341,52.786,1.485,8.814,1.581,64.516,-0.575,9.059,1.438,-58.651,99.707,-58.651
0.96,-1.102,9.053,-0.192,52.786,1.772,9.053,0.431,64.516,-0.575,9.059,0.288,-58.651,99.707,-58.651
0.965,-1.102,9.532,0.814,52.786,1.916,9.532,-0.671,58.651,-0.575,9.203,-0.863,-58.651,99.707,-58.651
0.97,-1.006,9.867,1.724,52.786,1.964,10.155,-1.629,58.651,-0.575,9.347,-1.726,-58.651,93.842,-58.651
0.975,-1.102,10.107,2.347,46.921,2.108,10.203,-2.539,58.651,-0.288,9.922,-2.732,-64.516,87.977,-58.651
0.98,-1.15,10.107,2.491,46.921,2.299,10.251,-2.778,52.786,-0.288,10.354,-3.02,-64.516,82.111,-52.786
0.985,-1.006,10.346,2.826,41.056,2.347,10.107,-3.257,46.921,0.0,10.497,-3.451,-70.381,70.381,-46.921
0.99,-0.814,10.394,2.874,41.056,2.203,10.107,-3.401,46.921,0.144,10.929,-3.595,-70.381,58.651,-46.921
0.995,-0.814,10.155,2.539,35.191,1.964,9.867,-3.209,41.056,0.144,11.216,-3.451,-64.516,46.921,-41.056
1.0,-0.575,10.107,2.395,29.326,2.06,9.772,-2.826,35.191,0.288,11.073,-3.164,-58.651,35.191,-35.191
1.0050000000000001,-0.479,9.963,2.347,23.46,1.677,9.532,-2.874,29.326,0.575,11.216,-3.02,-52.786,23.46,-29.326
1.01,-0.575,9.867,2.108,23.46,1.772,9.436,-2.682,29.326,0.575,10.929,-3.02,-41.056,11.73,-23.46
1.0150000000000001,-0.335,9.867,1.916,17.595,1.581,9.436,-2.491,23.46,0.288,10.641,-2.732,-29.326,0.0,-23.46
1.02,-0.096,9.915,1.629,5.865,1.293,9.532,-2.251,17.595,0.575,10.641,-2.588,-23.46,-11.73,-17.595
1.025,-0.096,9.867,1.15,5.865,1.102,9.676,-1.868,11.73,0.719,10.497,-2.157,-17.595,-17.595,-11.73
1.03,-0.096,9.82,0.479,-0.0,0.958,9.915,-1.293,5.865,0.431,10.21,-1.726,-5.865,-29.326,-5.865
1.035,0.0,9.724,-0.287,-5.865,0.814,9.963,-0.575,0.0,0.288,9.922,-1.007,-5.865,-35.191,0.0
1.04,0.048,9.724,-1.198,-11.73,0.623,9.963,0.287,-5.865,0.288,9.778,-0.144,-5.865,-35.191,5.865
1.045,0.096,9.628,-2.156,-11.73,0.479,9.915,1.245,-5.865,0.288,9.778,0.863,-5.865,-41.056,5.865
1.05,0.144,9.58,-3.161,-11.73,0.383,9.772,2.203,-5.865,0.288,9.778,1.869,-5.865,-41.056,5.865
1.055,0.287,9.58,-3.976,-11.73,0.192,9.772,3.161,-5.865,0.144,9.778,2.732,-5.865,-41.056,5.865
1.06,0.431,9.628,-4.646,-11.73,-0.096,9.867,3.928,-5.865,0.144,9.635,3.595,-5.865,-41.056,5.865
1.065,0.479,9.82,-5.269,-5.865,-0.287,10.155,4.551,-5.865,0.144,9.635,4.17,-5.865,-35.191,5.865
1.07,0.383,10.059,-5.94,-5.865,-0.287,10.394,5.173,-5.865,0.144,9.778,4.889,-11.73,-35.191,5.865
1.075,0.671,10.107,-6.275,-11.73,-0.575,10.586,5.7,-5.865,0.0,9.922,5.464,-17.595,-29.326,5.865
1.08,0.479,10.107,-6.802,-11.73,-0.671,10.634,6.131,-5.865,0.144,9.922,5.752,-17.595,-17.595,5.865
1.085,0.335,10.155,-7.185,-11.73,-0.479,10.634,6.61,-5.865,-0.144,9.922,6.327,-23.46,-11.73,5.865
1.09,0.383,10.299,-7.329,-11.73,-0.287,10.538,6.85,-5.865,-0.144,10.21,6.615,-29.326,0.0,5.865
1.095,0.383,10.442,-7.377,-5.865,-0.335,10.49,6.946,0.0,0.0,10.641,6.759,-35.191,5.865,5.865
1.1,0.24,10.73,-7.425,-5.865,-0.144,10.49,6.993,0.0,0.144,11.073,6.759,-35.191,17.595,0.0
1.105,0.431,11.017,-7.089,-5.865,-0.096,10.778,6.85,0.0,0.144,11.36,6.759,-29.326,23.46,0.0
1.11,0.287,10.873,-6.898,-5.865,-0.287,10.873,6.562,0.0,0.288,11.648,6.327,-23.46,29.326,0.0
1.115,0.096,10.682,-6.371,-5.865,0.048,11.017,6.371,0.0,0.0,11.073,6.183,-23.46,35.191,0.0
1.12,0.096,10.634,-5.796,-5.865,0.287,10.586,5.652,0.0,0.0,11.216,5.608,-17.595,41.056,0.0
1.125,0.096,10.634,-5.461,-11.73,0.287,10.538,5.221,0.0,0.144,11.216,5.033,-17.595,46.921,0.0
1.1300000000000001,-0.048,10.49,-5.077,-11.73,0.383,10.778,4.886,-5.865,0.144,10.929,4.745,-11.73,46.921,5.865
1.135,-0.192,10.394,-4.598,-11.73,0.527,10.634,4.455,-5.865,-0.144,10.785,4.314,-5.865,46.921,5.865
1.1400000000000001,-0.144,10.346,-4.215,-11.73,0.719,10.442,3.976,-5.865,-0.144,10.641,3.883,-5.865,52.786,5.865
1.145,-0.096,10.394,-3.928,-11.73,0.671,10.538,3.64,-5.865,0.0,10.641,3.595,-5.865,52.786,5.865
1.1500000000000001,-0.24,10.442,-3.784,-17.595,0.623,10.586,3.401,-11.73,0.0,10.641,3.164,-5.865,52.786,11.73
1.155,-0.287,10.346,-3.497,-17.595,0.814,10.49,3.257,-11.73,-0.144,10.785,3.02,-5.865,52.786,11.73
1.16,-0.335,10.299,-3.305,-17.595,0.862,10.299,2.97,-11.73,0.0,10.785,2.876,-5.865,58.651,11.73
1.165,-0.287,10.203,-2.97,-17.595,0.862,10.203,2.778,-11.73,-0.144,10.641,2.588,0.0,52.786,11.73
1.17,-0.335,10.251,-2.73,-17.595,0.91,10.394,2.443,-11.73,0.0,10.497,2.301,0.0,52.786,11.73
1.175,-0.335,10.203,-2.443,-23.46,0.862,10.538,2.203,-11.73,-0.288,10.354,2.013,5.865,52.786,17.595
1.18,-0.383,10.059,-2.299,-23.46,0.862,10.49,1.964,-17.595,-0.144,10.21,1.726,0.0,52.786,17.595
1.185,-0.479,9.963,-2.347,-23.46,0.958,10.299,1.868,-17.595,-0.288,10.21,1.582,0.0,52.786,17.595
1.19,-0.431,9.915,-2.347,-23.46,0.958,10.251,1.916,-17.595,-0.288,9.922,1.726,0.0,52.786,17.595
1.195,-0.335,9.915,-2.299,-23.46,0.91,10.251,1.916,-17.595,-0.288,9.922,1.726,0.0,52.786,17.595
1.2,-0.287,9.963,-2.395,-23.46,0.766,10.251,1.868,-17.595,-0.288,9.922,1.582,-5.865,52.786,17.595
1.205,-0.144,9.963,-2.443,-23.46,0.671,10.299,2.012,-11.73,-0.144,9.922,1.726,-11.73,58.651,17.595
1.21,-0.192,9.963,-2.587,-23.46,0.671,10.203,2.108,-17.595,0.0,10.066,1.869,-11.73,58.651,17.595
1.215,-0.192,10.011,-2.682,-23.46,0.719,10.107,2.251,-17.595,0.0,10.21,2.013,-11.73,58.651,17.595
1.22,-0.192,10.011,-2.778,-29.326,0.719,10.107,2.347,-17.595,0.0,10.354,2.013,-11.73,58.651,23.46
1.225,-0.144,9.963,-2.778,-29.326,0.719,10.059,2.395,-23.46,0.0,10.354,2.157,-11.73,58.651,23.46
1.23,-0.048,9.867,-2.682,-29.326,0.671,9.963,2.347,-23.46,0.144,10.354,2.157,-11.73,58.651,23.46
1.235,-0.144,9.772,-2.682,-29.326,0.671,9.867,2.251,-23.46,0.144,10.21,2.013,-5.865,58.651,23.46
1.24,-0.192,9.676,-2.73,-35.191,0.719,9.82,2.299,-29.326,0.0,10.066,2.013,-5.865,58.651,29.326
1.245,-0.192,9.58,-2.874,-35.191,0.766,9.724,2.395,-29.326,0.0,9.922,2.157,-5.865,58.651,29.326
1.25,-0.144,9.484,-2.97,-35.191,0.719,9.628,2.491,-29.326,0.0,9.922,2.301,-5.865,58.651,29.326
1.2550000000000001,0.0,9.388,-3.114,-35.191,0.527,9.532,2.635,-29.326,0.144,9.778,2.445,0.0,52.786,29.326
1.26,0.096,9.245,-3.114,-35.191,0.383,9.388,2.73,-29.326,0.144,9.635,2.445,0.0,52.786,29.326
1.2650000000000001,0.096,9.101,-3.161,-35.191,0.383,9.245,2.73,-29.326,0.288,9.491,2.588,0.0,52.786,29.326
1.27,0.0,8.957,-3.305,-35.191,0.431,9.053,2.826,-29.326,0.144,9.347,2.588,0.0,58.651,29.326
1.2750000000000001,-0.048,8.862,-3.353,-35.191,0.479,8.862,2.97,-29.326,0.144,9.347,2.732,5.865,58.651,29.326
1.28,0.048,8.766,-3.401,-35.191,0.431,8.814,3.018,-29.326,0.144,9.347,2.732,5.865,58.651,29.326
1.285,0.144,8.622,-3.305,-35.191,0.287,8.718,2.97,-29.326,0.144,9.059,2.732,5.865,58.651,29.326
1.29,0.144,8.574,-3.209,-29.326,0.24,8.67,2.826,-29.326,0.288,8.916,2.588,5.865,58.651,29.326
1.295,0.096,8.574,-3.161,-35.191,0.24,8.718,2.778,-29.326,0.144,8.772,2.588,17.595,58.651,29.326
1.3,0.096,8.574,-3.114,-29.326,0.287,8.718,2.73,-23.46,0.144,8.772,2.588,17.595,58.651,29.326
1.305,0.0,8.67,-2.922,-29.326,0.623,8.957,2.682,-23.46,0.144,8.772,2.445,17.595,58.651,23.46
1.31,0.0,8.718,-2.874,-29.326,-0.144,8.574,2.299,-23.46,0.144,8.916,2.013,17.595,64.516,23.46
1.315,0.287,8.622,-2.874,-23.46,0.287,8.909,2.539,-17.595,0.144,8.772,2.301,17.595,64.516,23.46
1.32,0.335,8.718,-2.778,-23.46,0.096,8.862,2.395,-17.595,0.431,8.772,2.157,17.595,64.516,23.46
1.325,0.24,8.67,-2.874,-23.46,0.096,8.957,2.443,-17.595,0.431,8.916,2.157,5.865,64.516,23.46
1.33,0.192,8.622,-2.922,-29.326,0.192,8.909,2.539,-17.595,0.288,8.772,2.301,5.865,64.516,23.46
1.335,0.24,8.526,-2.826,-23.46,0.192,8.766,2.491,-17.595,0.288,8.772,2.301,5.865,70.381,23.46
1.34,0.383,8.574,-2.826,-23.46,0.048,8.718,2.443,-17.595,0.288,8.772,2.157,5.865,70.381,23.46
1.345,0.431,8.622,-2.682,-23.46,-0.096,8.862,2.395,-17.595,0.575,8.628,2.157,5.865,70.381,17.595
1.35,0.335,8.622,-2.539,-23.46,-0.048,8.909,2.251,-17.595,0.575,8.772,2.013,5.865,70.381,17.595
1.355,0.24,8.622,-2.443,-23.46,0.144,8.909,2.156,-17.595,0.431,8.772,1.869,5.865,76.246,17.595
1.36,0.287,8.67,-2.251,-23.46,0.144,8.909,1.964,-11.73,0.288,8.628,1.726,5.865,76.246,17.595
1.365,0.431,8.718,-2.012,-17.595,0.048,9.005,1.724,-11.73,0.431,8.772,1.438,5.865,76.246,17.595
1.37,0.431,8.766,-1.916,-17.595,0.0,9.053,1.533,-11.73,0.575,8.772,1.294,0.0,76.246,11.73
1.375,0.431,8.814,-1.964,-17.595,0.0,9.101,1.533,-11.73,0.575,8.772,1.294,0.0,76.246,11.73
1.3800000000000001,0.527,9.293,-1.82,-17.595,0.096,9.101,1.533,-11.73,0.575,8.916,1.294,0.0,76.246,11.73
1.385,0.862,10.059,-1.437,-23.46,0.048,9.436,1.245,-11.73,1.15,9.922,1.007,-5.865,76.246,17.595
1.3900000000000001,1.006,10.586,-1.245,-29.326,-0.192,10.155,0.862,-17.595,1.438,10.929,0.719,0.0,76.246,17.595
1.395,0.91,10.346,-1.341,-35.191,-0.383,10.442,0.862,-23.46,1.438,11.073,0.575,5.865,70.381,29.326
1.4000000000000001,0.671,9.772,-1.389,-41.056,-0.192,9.867,0.958,-29.326,1.15,10.785,0.719,5.865,70.381,29.326
1.405,0.623,9.101,-1.485,-41.056,-0.048,9.245,1.054,-35.191,1.15,10.354,0.719,17.595,70.381,35.191
1.41,0.719,8.862,-1.245,-35.191,-0.048,8.862,1.006,-29.326,1.007,9.635,0.719,23.46,64.516,35.191
1.415,0.862,8.957,-1.006,-35.191,-0.24,8.862,0.719,-29.326,1.15,9.347,0.575,29.326,64.516,29.326
1.42,0.958,9.149,-0.719,-29.326,-0.335,9.245,0.479,-23.46,1.15,9.203,0.288,29.326,64.516,29.326
1.425,0.91,9.197,-0.479,-29.326,-0.431,9.388,0.24,-29.326,1.294,9.347,-0.0,35.191,64.516,29.326
1.43,0.671,9.101,-0.335,-29.326,-0.192,9.388,0.0,-23.46,1.294,9.203,-0.288,29.326,58.651,29.326
1.435,0.671,9.101,-0.479,-29.326,0.048,9.388,-0.144,-23.46,1.15,9.059,-0.288,29.326,58.651,23.46
1.44,0.91,9.724,-0.575,-23.46,-0.144,9.676,0.192,-17.595,1.007,9.203,-0.144,29.326,52.786,23.46
1.445,1.245,10.873,0.0,-23.46,-0.766,11.209,-0.048,-17.595,1.15,9.491,-0.144,23.46,52.786,23.46
1.45,1.198,11.161,0.527,-11.73,-1.054,12.167,-0.671,-11.73,1.007,9.922,-0.863,17.595,52.786,11.73
1.455,1.054,9.484,0.048,-0.0,-0.91,12.119,-1.006,0.0,1.007,9.778,-1.294,0.0,58.651,5.865
1.46,1.102,8.287,-1.102,-5.865,-0.096,9.005,0.192,5.865,1.726,8.772,-0.431,-17.595,64.516,-5.865
1.465,1.485,8.67,-1.533,-17.595,-1.054,8.239,0.958,-5.865,1.438,8.628,0.575,-29.326,58.651,5.865
1.47,1.629,9.149,-1.581,-11.73,-1.533,9.197,1.245,-11.73,1.294,9.059,0.863,-29.326,58.651,11.73
1.475,1.772,9.197,-1.724,-0.0,-1.629,9.484,1.15,0.0,1.438,9.203,0.863,-29.326,64.516,5.865
1.48,1.772,9.197,-2.156,-0.0,-1.341,8.814,1.533,5.865,2.013,9.778,1.15,-29.326,70.381,-5.865
1.485,1.581,9.149,-2.156,-11.73,-1.054,8.574,1.772,5.865,2.157,10.354,1.438,-29.326,76.246,0.0
1.49,1.389,9.005,-2.06,-11.73,-0.91,8.478,1.724,-5.865,2.013,10.21,1.438,-17.595,70.381,5.865
1.495,1.341,8.862,-2.012,-11.73,-0.766,8.526,1.677,-5.865,1.726,9.922,1.438,-5.865,70.381,11.73
1.5,1.389,8.526,-2.06,-11.73,-0.814,8.43,1.629,-5.865,1.869,9.491,1.438,5.865,70.381,11.73
1.5050000000000001,1.245,8.239,-2.203,-11.73,-0.766,8.143,1.724,-5.865,1.726,9.059,1.438,5.865,64.516,5.865
1.51,1.245,8.047,-2.395,-11.73,-0.671,7.999,1.964,-5.865,1.726,8.772,1.582,23.46,64.516,5.865
1.5150000000000001,1.293,7.951,-2.682,-11.73,-0.766,7.999,2.108,0.0,1.726,8.34,1.726,29.326,58.651,5.865
1.52,1.389,8.095,-3.114,-5.865,-0.958,7.999,2.491,0.0,1.582,8.34,2.157,29.326,58.651,5.865
1.5250000000000001,1.437,8.43,-3.449,-5.865,-1.102,8.335,2.922,0.0,1.582,8.484,2.588,35.191,58.651,0.0
1.53,1.533,8.718,-3.545,-0.0,-1.198,8.862,3.114,5.865,1.582,8.628,2.876,35.191,58.651,0.0
1.5350000000000001,1.629,8.814,-3.449,-5.865,-1.389,9.053,3.114,5.865,1.582,8.916,2.876,35.191,58.651,0.0
1.54,1.677,8.718,-3.305,-5.865,-1.341,9.101,3.018,5.865,1.726,8.772,2.732,35.191,64.516,0.0
1.545,1.485,8.574,-3.161,-5.865,-1.437,9.053,2.826,0.0,1.869,8.484,2.588,29.326,64.516,0.0
1.55,1.293,8.43,-3.161,-11.73,-1.054,8.909,2.73,0.0,1.582,8.484,2.445,29.326,70.381,5.865
1.555,1.293,8.287,-3.114,-11.73,-0.958,8.67,2.73,-5.865,1.438,8.34,2.445,23.46,70.381,5.865
1.56,1.245,8.239,-3.114,-11.73,-0.862,8.526,2.73,-5.865,1.438,8.34,2.445,23.46,70.381,5.865
1.565,1.245,8.239,-2.97,-5.865,-0.862,8.43,2.682,0.0,1.438,8.484,2.445,17.595,76.246,5.865
1.57,1.341,8.191,-2.874,-5.865,-0.91,8.383,2.539,0.0,1.582,8.484,2.301,17.595,76.246,5.865
1.575,1.341,8.143,-2.73,-5.865,-0.958,8.383,2.443,0.0,1.582,8.34,2.157,17.595,76.246,0.0
1.58,1.437,8.143,-2.587,-0.0,-1.054,8.335,2.299,5.865,1.582,8.34,2.013,17.595,76.246,0.0
1.585,1.437,8.239,-2.491,-0.0,-1.054,8.383,2.156,5.865,1.726,8.34,1.869,17.595,76.246,0.0
1.59,1.389,8.383,-2.443,-0.0,-1.006,8.526,2.06,5.865,1.726,8.34,1.869,5.865,76.246,-5.865
1.595,1.389,8.574,-2.347,-0.0,-0.958,8.67,2.012,5.865,1.582,8.484,1.726,5.865,76.246,-5.865
1.6,1.485,8.718,-2.203,-0.0,-0.958,8.766,1.868,11.73,1.726,8.772,1.582,5.865,76.246,-5.865
1.605,1.485,8.862,-2.108,-0.0,-1.006,8.862,1.772,11.73,1.869,9.059,1.582,5.865,76.246,-5.865
1.61,1.533,8.957,-2.012,-0.0,-1.006,8.957,1.677,11.73,1.869,9.203,1.438,5.865,76.246,-5.865
1.615,1.581,9.053,-1.916,5.865,-1.006,9.053,1.581,11.73,2.013,9.347,1.294,5.865,76.246,-5.865
1.62,1.629,9.101,-1.868,5.865,-1.054,9.005,1.437,11.73,2.013,9.491,1.294,5.865,70.381,-5.865
1.625,1.677,9.197,-1.82,5.865,-1.054,9.101,1.437,11.73,2.013,9.635,1.15,17.595,70.381,-5.865
1.6300000000000001,1.82,9.293,-1.772,-0.0,-1.15,9.197,1.389,11.73,2.157,9.778,1.15,23.46,70.381,-5.865
1.635,1.868,9.341,-1.82,-0.0,-1.245,9.245,1.389,5.865,2.301,9.778,1.15,23.46,64.516,-5.865
1.6400000000000001,1.964,9.293,-1.916,-0.0,-1.341,9.245,1.437,5.865,2.301,9.778,1.15,29.326,64.516,-5.865
1.645,2.108,9.245,-2.06,-0.0,-1.437,9.341,1.533,5.865,2.445,9.635,1.294,29.326,58.651,0.0
1.6500000000000001,2.156,9.197,-2.203,-5.865,-1.724,9.341,1.677,5.865,2.588,9.491,1.438,35.191,58.651,0.0
1.655,2.156,8.957,-2.395,-5.865,-1.724,9.197,1.916,5.865,2.445,9.491,1.582,35.191,58.651,0.0
1.6600000000000001,2.251,8.766,-2.491,-5.865,-1.724,9.005,2.012,5.865,2.588,9.203,1.726,35.191,58.651,0.0
1.665,2.395,8.718,-2.635,-0.0,-1.916,8.909,2.156,5.865,2.588,8.916,1.869,35.191,58.651,0.0
1.67,2.443,8.67,-2.682,-0.0,-2.108,8.814,2.251,5.865,2.732,8.916,2.013,35.191,58.651,-5.865
1.675,2.587,8.622,-2.73,-0.0,-2.203,8.766,2.299,11.73,2.732,8.772,2.013,35.191,58.651,-5.865
1.68,2.635,8.622,-2.73,5.865,-2.251,8.766,2.347,11.73,2.876,8.772,2.013,35.191,58.651,-5.865
1.685,2.682,8.622,-2.73,5.865,-2.299,8.766,2.347,11.73,3.02,8.916,2.157,35.191,58.651,-5.865
1.69,2.682,8.67,-2.682,5.865,-2.347,8.766,2.347,11.73,3.02,8.916,2.013,35.191,58.651,-5.865
1.695,2.73,8.766,-2.682,5.865,-2.299,8.909,2.299,11.73,3.02,8.916,2.013,35.191,58.651,-11.73
1.7,2.778,8.814,-2.682,5.865,-2.347,8.957,2.299,11.73,3.02,9.059,2.013,35.191,58.651,-5.865
1.705,2.778,8.766,-2.682,5.865,-2.395,8.909,2.299,11.73,3.02,9.059,2.013,35.191,58.651,-11.73
1.71,2.73,8.718,-2.635,5.865,-2.395,8.909,2.251,11.73,3.02,8.916,2.013,35.191,58.651,-11.73
1.715,2.73,8.67,-2.635,5.865,-2.395,8.862,2.251,11.73,3.02,8.916,2.013,35.191,58.651,-11.73
1.72,2.635,8.67,-2.682,11.73,-2.299,8.814,2.251,17.595,3.02,8.916,2.013,35.191,58.651,-11.73
1.725,2.635,8.67,-2.635,11.73,-2.251,8.766,2.251,17.595,3.02,8.916,2.013,35.191,58.651,-11.73
1.73,2.635,8.67,-2.73,17.595,-2.251,8.814,2.251,23.46,2.876,8.772,2.013,35.191,58.651,-17.595
1.735,2.635,8.67,-2.826,17.595,-2.299,8.909,2.347,23.46,2.876,8.772,2.157,35.191,58.651,-23.46
1.74,2.635,8.718,-3.018,23.46,-2.299,8.909,2.539,29.326,2.876,8.772,2.157,35.191,64.516,-23.46
1.745,2.635,8.766,-3.066,23.46,-2.347,9.005,2.635,29.326,2.876,8.916,2.445,29.326,64.516,-23.46
1.75,2.635,8.814,-3.066,29.326,-2.347,9.005,2.635,35.191,2.876,8.916,2.445,29.326,64.516,-35.191
1.7550000000000001,2.587,8.909,-3.161,29.326,-2.299,9.053,2.682,35.191,2.876,8.916,2.445,29.326,64.516,-35.191
1.76,2.491,9.053,-3.305,29.326,-2.251,9.245,2.826,41.056,2.876,9.059,2.588,29.326,64.516,-35.191
1.7650000000000001,2.347,9.197,-3.257,35.191,-2.06,9.388,2.874,41.056,2.732,9.203,2.588,23.46,70.381,-41.056
1.77,2.251,9.388,-3.209,35.191,-1.916,9.484,2.778,41.056,2.588,9.347,2.588,23.46,70.381,-41.056
1.7750000000000001,2.203,9.58,-3.257,35.191,-1.916,9.676,2.73,41.056,2.445,9.491,2.445,23.46,70.381,-41.056
1.78,2.012,9.58,-3.353,35.191,-1.629,9.772,2.874,41.056,2.445,9.778,2.588,17.595,70.381,-41.056
1.7850000000000001,2.06,9.58,-3.449,35.191,-1.533,9.724,2.97,41.056,2.301,9.922,2.732,17.595,70.381,-41.056
1.79,2.108,9.58,-3.64,35.191,-1.677,9.724,3.114,41.056,2.301,9.922,2.876,17.595,70.381,-41.056
1.795,2.156,9.628,-3.832,35.191,-1.724,9.82,3.353,41.056,2.301,9.635,3.02,17.595,70.381,-41.056
1.8,2.299,9.915,-3.88,29.326,-1.964,10.059,3.497,41.056,2.301,9.635,3.164,17.595,70.381,-35.191
1.805,2.203,10.011,-3.736,29.326,-1.964,10.299,3.449,35.191,2.445,9.922,3.164,17.595,76.246,-35.191
1.81,2.108,10.059,-3.64,29.326,-1.868,10.394,3.257,35.191,2.301,9.922,3.02,5.865,76.246,-35.191
1.815,2.012,10.059,-3.497,23.46,-1.724,10.442,3.161,29.326,2.157,10.066,3.02,5.865,82.111,-23.46
1.82,1.868,10.059,-3.257,23.46,-1.581,10.538,2.97,29.326,2.157,10.066,2.732,5.865,82.111,-23.46
1.825,1.677,9.915,-2.682,23.46,-1.341,10.634,2.587,29.326,2.013,9.778,2.445,0.0,82.111,-23.46
1.83,1.629,9.676,-2.587,23.46,-1.293,10.299,2.203,29.326,1.726,9.635,2.013,-5.865,87.977,-23.46
1.835,1.724,9.484,-2.539,29.326,-1.15,9.915,2.156,35.191,2.013,9.635,1.869,-11.73,87.977,-29.326
1.84,1.772,9.341,-2.539,29.326,-1.293,9.676,2.156,35.191,2.013,9.491,1.869,-17.595,87.977,-35.191
1.845,1.82,9.197,-2.347,35.191,-1.437,9.484,2.06,41.056,2.013,9.491,1.869,-17.595,87.977,-35.191
1.85,1.82,9.101,-1.964,35.191,-1.389,9.341,1.772,41.056,2.157,9.347,1.582,-17.595,87.977,-35.191
1.855,1.82,9.101,-1.629,35.191,-1.389,9.245,1.389,41.056,2.013,9.347,1.15,-17.595,87.977,-41.056
1.86,1.772,9.101,-1.485,41.056,-1.293,9.149,1.15,46.921,2.157,9.491,0.863,-17.595,87.977,-41.056
1.865,1.724,9.053,-1.389,35.191,-1.245,9.005,1.006,46.921,2.157,9.491,0.719,-17.595,87.977,-41.056
1.87,1.677,8.957,-1.437,35.191,-1.198,8.909,1.006,46.921,2.157,9.491,0.719,-17.595,87.977,-41.056
1.875,1.772,8.766,-1.533,35.191,-1.293,8.766,1.15,41.056,2.013,9.491,0.719,-17.595,87.977,-41.056
1.8800000000000001,1.485,8.862,-1.437,35.191,-0.958,8.766,1.054,41.056,2.157,9.347,0.863,-11.73,82.111,-41.056
1.885,1.533,8.766,-1.341,35.191,-1.054,8.67,1.006,41.056,1.726,9.347,0.719,-5.865,82.111,-41.056
1.8900000000000001,1.533,8.718,-1.198,35.191,-1.054,8.718,0.862,41.056,1.869,9.203,0.575,-5.865,82.111,-41.056
1.895,1.437,8.718,-1.006,35.191,-1.006,8.766,0.719,41.056,1.869,9.059,0.431,0.0,82.111,-41.056
1.9000000000000001,1.341,8.766,-0.862,35.191,-0.91,8.814,0.575,41.056,1.726,9.059,0.288,0.0,82.111,-41.056
1.905,1.245,8.957,-0.719,35.191,-0.766,9.005,0.383,41.056,1.726,8.916,0.144,0.0,82.111,-41.056
1.9100000000000001,0.766,9.053,-0.814,35.191,-0.671,9.245,0.335,41.056,1.869,9.203,0.144,0.0,76.246,-41.056
1.915,1.102,9.436,-0.575,35.191,-0.383,9.388,0.335,41.056,2.588,9.635,0.144,0.0,76.246,-35.191
1.92,1.389,9.772,-0.287,35.191,-0.671,9.772,0.0,46.921,1.726,9.778,-0.144,0.0,82.111,-17.595
1.925,1.772,10.203,-0.144,35.191,-0.91,10.299,-0.192,41.056,1.582,9.778,-0.431,0.0,82.111,-11.73
1.93,1.724,10.442,0.048,29.326,-1.15,10.634,-0.383,41.056,1.582,10.066,-0.575,0.0,76.246,-11.73
1.935,1.629,10.538,0.24,23.46,-1.102,10.825,-0.575,29.326,1.726,10.21,-0.719,-5.865,76.246,-11.73
1.94,1.245,10.586,0.24,11.73,-0.862,10.873,-0.719,23.46,1.726,10.354,-1.007,-11.73,76.246,-11.73
1.945,1.15,10.634,0.192,11.73,-0.575,10.921,-0.671,17.595,1.726,10.497,-1.007,-11.73,76.246,-11.73
1.95,1.198,10.73,0.192,5.865,-0.479,10.921,-0.623,17.595,1.726,10.641,-0.863,-17.595,70.381,-5.865
1.955,1.293,10.825,0.048,5.865,-0.575,10.921,-0.575,17.595,1.582,10.929,-0.863,-17.595,70.381,-5.865
1.96,1.533,10.969,-0.144,5.865,-0.766,10.921,-0.431,11.73,1.726,11.073,-0.719,-17.595,70.381,-5.865
1.965,1.581,11.017,-0.192,5.865,-0.958,10.921,-0.24,11.73,1.869,11.216,-0.431,-17.595,64.516,-5.865
1.97,1.485,11.113,-0.431,5.865,-0.91,11.017,-0.192,11.73,2.013,11.504,-0.431,-17.595,64.516,-5.865
1.975,1.485,11.065,-0.814,-0.0,-0.814,11.161,0.144,11.73,1.869,11.504,-0.144,-17.595,64.516,-5.865
1.98,1.245,11.065,-0.814,5.865,-0.527,10.825,0.431,11.73,2.013,11.648,0.144,-11.73,64.516,-5.865
1.985,1.15,11.161,-0.814,-0.0,-0.431,11.017,0.335,11.73,1.869,11.648,0.144,-11.73,64.516,-5.865
1.99,1.245,11.352,-0.91,5.865,-0.431,11.209,0.383,11.73,1.869,11.648,0.144,-5.865,58.651,-5.865
1.995,1.389,11.161,-0.91,5.865,-0.623,11.352,0.479,11.73,1.869,11.648,0.288,0.0,58.651,-11.73
2.0,1.389,10.969,-0.766,5.865,-0.719,11.209,0.431,11.73,1.869,11.36,0.144,0.0,52.786,-11.73
2.005,1.341,10.778,-0.575,5.865,-0.719,10.969,0.24,11.73,1.869,11.216,0.144,0.0,52.786,-5.865
2.0100000000000002,1.293,10.778,-0.431,-0.0,-0.623,10.825,0.096,11.73,2.013,11.073,-0.144,0.0,52.786,-5.865
2.015,1.245,10.969,-0.479,-0.0,-0.575,10.873,0.048,5.865,1.869,11.073,-0.288,5.865,46.921,-5.865
2.02,1.245,11.113,-0.623,-0.0,-0.527,11.065,0.096,5.865,1.869,11.36,-0.144,5.865,46.921,-5.865
2.025,1.293,11.209,-0.862,-0.0,-0.527,11.113,0.287,5.865,1.869,11.648,-0.0,5.865,41.056,-5.865
2.0300000000000002,1.389,11.257,-1.054,-5.865,-0.671,11.209,0.479,5.865,1.869,11.648,0.288,5.865,41.056,0.0
2.035,1.437,11.113,-1.15,-5.865,-0.766,11.257,0.623,5.865,1.869,11.648,0.431,5.865,41.056,0.0
2.04,1.437,11.017,-1.198,-5.865,-0.91,11.209,0.719,0.0,1.869,11.36,0.575,5.865,35.191,0.0
2.045,1.389,10.921,-1.198,-5.865,-0.862,11.209,0.814,0.0,1.726,11.073,0.575,17.595,35.191,0.0
2.05,1.389,10.825,-1.198,-5.865,-0.91,11.161,0.766,0.0,1.869,10.929,0.575,5.865,35.191,0.0
2.055,1.389,10.682,-1.102,-5.865,-0.91,11.065,0.719,0.0,1.726,10.785,0.575,5.865,35.191,5.865
2.06,1.293,10.586,-1.102,-5.865,-0.91,10.969,0.623,0.0,1.869,10.641,0.431,5.865,35.191,5.865
2.065,1.341,10.442,-1.198,-11.73,-0.91,10.825,0.719,0.0,1.869,10.497,0.431,5.865,41.056,0.0
2.07,1.437,10.299,-1.245,-11.73,-0.91,10.73,0.814,-5.865,1.726,10.354,0.575,5.865,41.056,0.0
2.075,1.437,10.107,-1.198,-11.73,-0.91,10.538,0.814,-5.865,1.582,10.21,0.575,0.0,41.056,-5.865
2.08,1.437,10.011,-1.245,-5.865,-0.862,10.299,0.766,0.0,1.869,10.21,0.575,0.0,41.056,-5.865
2.085,1.533,9.915,-1.341,-5.865,-0.958,10.107,0.814,0.0,1.869,10.21,0.575,-5.865,41.056,-5.865
2.09,1.677,9.724,-1.437,-5.865,-1.102,9.963,0.958,0.0,1.869,10.066,0.719,-5.865,41.056,-5.865
2.095,1.724,9.58,-1.437,-5.865,-1.198,9.724,1.006,0.0,1.869,10.066,0.863,-5.865,41.056,-5.865
2.1,1.724,9.436,-1.389,-5.865,-1.245,9.532,1.006,0.0,2.013,9.922,0.719,-5.865,41.056,-5.865
2.105,1.772,9.388,-1.341,-5.865,-1.293,9.388,0.91,0.0,2.157,9.778,0.719,-5.865,41.056,0.0
2.11,1.772,9.388,-1.245,-5.865,-1.293,9.388,0.862,0.0,2.013,9.635,0.719,0.0,41.056,0.0
2.115,1.772,9.436,-1.198,-11.73,-1.293,9.436,0.814,0.0,2.157,9.635,0.575,0.0,41.056,0.0
2.12,1.82,9.532,-1.15,-11.73,-1.341,9.58,0.719,-5.865,2.157,9.778,0.575,0.0,41.056,5.865
2.125,2.203,9.053,-1.15,-11.73,-1.341,9.867,0.766,-5.865,2.157,9.778,0.431,5.865,41.056,5.865
2.13,2.156,9.484,-1.15,-5.865,-0.862,10.49,0.719,-5.865,2.301,9.491,0.431,5.865,41.056,5.865
2.1350000000000002,1.629,9.772,-1.245,-5.865,-1.437,9.676,0.814,-17.595,2.445,9.635,0.575,5.865,46.921,0.0
2.14,1.389,9.772,-1.198,-5.865,-1.198,9.676,0.766,-17.595,2.013,9.778,0.575,5.865,46.921,0.0
2.145,1.485,9.58,-1.198,-5.865,-1.15,9.676,0.766,-11.73,1.869,9.778,0.575,5.865,46.921,0.0
2.15,1.533,9.58,-1.245,-0.0,-1.006,9.772,0.766,-11.73,2.013,9.778,0.575,0.0,46.921,0.0
2.1550000000000002,1.581,9.628,-1.293,-0.0,-1.102,9.724,0.814,-5.865,2.013,9.778,0.575,0.0,41.056,0.0
2.16,1.772,9.628,-1.341,-0.0,-1.245,9.82,0.862,-5.865,2.013,9.778,0.575,0.0,41.056,0.0
2.165,1.772,9.772,-1.293,-0.0,-1.245,10.011,0.862,-5.865,2.157,9.922,0.719,0.0,41.056,0.0
2.17,1.724,9.724,-1.293,-0.0,-1.293,9.963,0.862,-5.865,2.013,9.922,0.575,0.0,41.056,0.0
2.1750000000000003,1.533,9.772,-1.341,-5.865,-1.245,9.82,0.862,-11.73,2.013,9.922,0.719,0.0,41.056,0.0
2.18,1.533,9.724,-1.341,-0.0,-1.198,9.676,0.91,-11.73,2.013,9.922,0.719,0.0,41.056,0.0
2.185,1.629,9.724,-1.389,-5.865,-1.198,9.724,0.91,-11.73,1.869,9.922,0.719,0.0,41.056,0.0
2.19,1.581,9.676,-1.389,-0.0,-1.293,9.628,0.958,-11.73,2.013,9.922,0.719,0.0,41.056,0.0
2.195,1.629,9.58,-1.437,-0.0,-1.198,9.58,1.006,-5.865,2.013,9.922,0.719,0.0,35.191,0.0
2.2,1.533,9.484,-1.437,-0.0,-1.389,9.388,1.006,-11.73,2.013,9.778,0.719,-5.865,35.191,0.0
2.205,1.677,9.341,-1.389,-0.0,-1.437,9.341,1.006,-5.865,2.013,9.635,0.863,0.0,35.191,0.0
2.21,1.724,9.197,-1.341,-0.0,-1.533,9.245,0.958,-5.865,2.013,9.635,0.719,0.0,35.191,0.0
2.215,1.629,9.053,-1.485,-0.0,-1.581,9.149,0.958,-5.865,2.013,9.491,0.719,0.0,35.191,0.0
2.22,1.581,9.053,-1.533,-0.0,-1.581,9.053,1.054,-5.865,2.013,9.347,0.863,0.0,35.191,0.0
2.225,1.581,9.053,-1.581,-0.0,-1.485,9.101,1.15,0.0,1.869,9.347,0.863,0.0,35.191,0.0
2.23,1.677,9.053,-1.629,-0.0,-1.485,9.053,1.198,5.865,1.869,9.347,0.863,0.0,35.191,-5.865
2.235,1.82,9.053,-1.629,-0.0,-1.533,9.101,1.245,5.865,2.013,9.347,1.007,0.0,35.191,-5.865
2.24,1.916,9.101,-1.629,5.865,-1.724,9.149,1.198,5.865,2.157,9.347,1.007,5.865,35.191,-5.865
2.245,1.964,9.197,-1.629,-0.0,-1.772,9.245,1.198,11.73,2.157,9.347,1.007,5.865,35.191,-5.865
2.25,1.964,9.245,-1.581,-0.0,-1.772,9.341,1.198,11.73,2.157,9.347,1.007,5.865,41.056,-5.865
2.255,1.772,9.245,-1.485,-0.0,-1.677,9.341,1.102,5.865,2.301,9.491,0.863,5.865,41.056,-5.865
2.2600000000000002,1.629,9.245,-1.533,-0.0,-1.389,9.293,1.102,5.865,2.157,9.491,0.863,5.865,41.056,-5.865
2.265,1.533,9.436,-1.485,-0.0,-1.293,9.436,1.102,5.865,2.157,9.491,0.863,5.865,41.056,0.0
2.27,1.533,9.628,-1.437,-0.0,-1.15,9.676,1.054,5.865,2.013,9.635,0.863,5.865,41.056,0.0
2.275,1.485,9.676,-1.341,-5.865,-1.102,9.82,0.958,5.865,1.869,9.778,0.719,5.865,41.056,0.0
2.2800000000000002,1.437,9.676,-1.293,-5.865,-1.102,9.867,0.91,0.0,1.869,9.778,0.719,5.865,35.191,0.0
2.285,1.389,9.676,-1.245,-5.865,-1.054,9.867,0.862,0.0,1.869,9.778,0.575,0.0,35.191,0.0
2.29,1.389,9.676,-1.198,-5.865,-1.006,9.82,0.814,0.0,1.869,9.778,0.575,0.0,35.191,0.0
2.295,1.341,9.676,-1.15,-11.73,-1.054,9.82,0.766,0.0,1.726,9.778,0.575,0.0,35.191,5.865
2.3000000000000003,1.341,9.628,-1.15,-11.73,-1.054,9.772,0.671,0.0,1.726,9.778,0.431,0.0,35.191,5.865
2.305,1.293,9.676,-1.198,-11.73,-0.958,9.867,0.766,-5.865,1.726,9.635,0.575,0.0,29.326,5.865
2.31,1.293,9.772,-1.198,-11.73,-1.006,9.915,0.814,-5.865,1.726,9.778,0.575,0.0,29.326,5.865
2.315,1.437,9.82,-1.245,-11.73,-1.102,10.011,0.814,-5.865,1.726,9.778,0.575,-5.865,29.326,5.865
2.32,1.581,9.915,-1.245,-11.73,-1.198,10.107,0.814,-5.865,1.869,9.778,0.575,-5.865,29.326,5.865
2.325,1.629,10.011,-1.15,-11.73,-1.389,10.203,0.766,-5.865,1.869,9.922,0.575,-5.865,29.326,5.865
2.33,1.677,10.011,-1.15,-11.73,-1.437,10.299,0.719,0.0,1.869,10.066,0.431,-11.73,29.326,5.865
2.335,1.629,10.059,-1.054,-11.73,-1.389,10.299,0.671,-5.865,2.013,10.066,0.431,-11.73,29.326,5.865
2.34,1.485,10.155,-0.958,-11.73,-1.293,10.394,0.623,-5.865,2.013,10.066,0.431,-17.595,35.191,5.865
2.345,1.437,10.299,-0.814,-17.595,-1.054,10.394,0.383,-5.865,1.869,10.21,0.144,-17.595,35.191,5.865
2.35,1.437,10.442,-0.623,-17.595,-1.006,10.538,0.383,-11.73,1.869,10.354,0.144,-17.595,35.191,11.73
2.355,0.671,10.346,0.575,-17.595,-0.335,10.059,-0.383,-11.73,1.869,10.785,-0.288,-23.46,35.191,11.73
2.36,1.389,10.442,0.0,-29.326,-0.144,10.155,-0.719,-17.595,1.726,10.929,-1.007,-17.595,29.326,17.595
2.365,1.629,10.442,-0.287,-35.191,-0.862,10.346,-0.287,-29.326,2.301,10.929,-0.575,-17.595,23.46,29.326
2.37,1.533,10.251,-0.335,-41.056,-1.102,10.107,-0.096,-29.326,2.157,10.929,-0.431,-11.73,17.595,35.191
2.375,1.437,9.963,-0.431,-35.191,-1.198,10.107,0.0,-35.191,1.869,10.497,-0.288,-5.865,11.73,35.191
2.38,1.389,9.82,-0.383,-35.191,-1.102,9.963,-0.048,-29.326,1.869,10.21,-0.288,0.0,11.73,35.191
2.3850000000000002,1.293,9.867,-0.383,-35.191,-1.054,9.867,0.048,-29.326,1.726,10.21,-0.288,0.0,11.73,29.326
2.39,1.15,9.963,-0.719,-29.326,-0.862,9.915,0.048,-29.326,1.869,10.21,-0.288,0.0,11.73,29.326
2.395,1.198,9.867,-0.91,-29.326,-0.671,9.867,0.383,-23.46,1.726,10.497,0.144,5.865,11.73,29.326
2.4,1.341,9.915,-0.958,-23.46,-0.766,9.915,0.479,-17.595,1.869,10.354,0.288,5.865,5.865,23.46
2.4050000000000002,1.293,10.059,-1.054,-23.46,-0.862,10.107,0.575,-17.595,1.869,10.354,0.431,5.865,5.865,23.46
2.41,1.389,10.011,-1.15,-17.595,-0.91,10.011,0.623,-11.73,1.726,10.354,0.431,5.865,0.0,17.595
2.415,1.293,10.059,-1.15,-11.73,-0.527,10.299,1.006,-5.865,2.157,10.21,0.575,5.865,0.0,11.73
2.42,1.629,9.82,-1.006,-11.73,-1.198,10.155,0.575,-11.73,1.726,10.066,0.431,5.865,-5.865,11.73
2.4250000000000003,1.437,9.676,-0.958,-17.595,-1.437,10.107,0.766,-5.865,2.013,9.635,0.431,5.865,-5.865,11.73
2.43,1.533,9.388,-1.054,-17.595,-1.341,10.011,0.623,-11.73,1.726,9.347,0.288,5.865,-5.865,11.73
2.435,1.629,9.245,-1.341,-11.73,-1.437,9.772,0.766,-11.73,1.726,9.059,0.431,0.0,-5.865,11.73
2.44,1.629,9.101,-1.581,-17.595,-1.533,9.532,1.054,-11.73,1.869,9.059,0.719,-5.865,-5.865,11.73
2.445,1.581,8.957,-1.868,-17.595,-1.485,9.245,1.293,-11.73,1.869,9.059,1.007,-11.73,0.0,11.73
2.45,1.533,8.814,-2.108,-17.595,-1.437,8.957,1.581,-11.73,1.726,9.203,1.294,-11.73,0.0,11.73
2.455,1.581,8.622,-2.251,-17.595,-1.437,8.622,1.772,-11.73,1.726,9.203,1.438,-11.73,0.0,11.73
2.46,1.485,8.478,-2.299,-11.73,-1.389,8.335,1.868,-5.865,1.869,9.203,1.582,-11.73,5.865,11.73
2.465,1.389,8.383,-2.203,-11.73,-1.245,8.239,1.868,-5.865,1.869,9.059,1.726,-5.865,5.865,11.73
2.47,1.293,8.143,-2.06,-11.73,-1.102,8.095,1.724,-5.865,1.726,8.916,1.582,0.0,5.865,5.865
2.475,1.15,7.904,-1.964,-5.865,-0.958,7.904,1.581,-5.865,1.726,8.628,1.294,0.0,5.865,5.865
2.48,1.006,7.664,-1.964,-5.865,-0.814,7.76,1.533,0.0,1.582,8.197,1.294,5.865,5.865,5.865
2.485,1.054,7.425,-1.964,-0.0,-0.814,7.568,1.533,0.0,1.438,7.909,1.294,5.865,5.865,0.0
2.49,1.054,7.185,-2.06,5.865,-0.91,7.329,1.581,5.865,1.438,7.621,1.294,5.865,5.865,-5.865
2.495,1.006,7.185,-2.203,5.865,-0.91,7.185,1.724,11.73,1.294,7.478,1.438,5.865,5.865,-11.73
2.5,1.485,8.862,-2.347,17.595,-0.862,7.281,1.916,17.595,1.438,7.765,1.582,17.595,5.865,-11.73
2.505,3.353,16.717,-2.203,17.595,-0.766,8.814,2.156,23.46,3.164,12.942,1.869,17.595,5.865,-23.46
2.5100000000000002,4.646,18.825,2.347,5.865,-3.114,21.795,-0.335,23.46,6.04,22.289,0.431,41.056,-5.865,-23.46
2.515,0.91,8.957,-0.623,-35.191,-3.784,13.604,-2.156,-5.865,3.02,12.079,-3.164,70.381,-17.595,0.0
2.52,0.335,8.909,-3.209,-58.651,0.575,8.574,1.964,-46.921,0.863,8.628,1.007,58.651,-17.595,41.056
2.525,1.772,9.963,-2.203,-46.921,-0.623,9.053,2.539,-46.921,1.726,10.497,2.445,46.921,-11.73,52.786
2.5300000000000002,2.347,9.772,-2.06,-23.46,-2.347,11.209,1.389,-29.326,1.869,9.347,1.294,52.786,-17.595,35.191
2.535,1.916,9.245,-2.778,-17.595,-2.587,10.873,2.012,-11.73,1.869,8.053,1.582,46.921,-17.595,17.595
2.54,2.012,9.293,-2.73,-17.595,-2.108,9.963,2.443,-11.73,1.582,8.484,2.157,29.326,-5.865,11.73
2.545,2.347,9.484,-2.203,-11.73,-2.251,9.915,2.012,-5.865,2.157,8.916,2.013,5.865,5.865,11.73
2.5500000000000003,1.964,9.676,-2.012,-5.865,-2.156,10.203,1.629,0.0,2.445,9.203,1.438,5.865,11.73,5.865
2.555,1.629,9.676,-1.868,-5.865,-1.581,10.155,1.533,0.0,2.013,9.491,1.294,-5.865,17.595,0.0
2.56,1.533,9.532,-1.677,-5.865,-1.245,9.772,1.293,0.0,2.013,9.635,1.15,-11.73,17.595,0.0
2.565,1.581,9.388,-1.629,-0.0,-1.15,9.436,1.198,0.0,2.157,9.778,1.007,-17.595,17.595,0.0
2.57,1.581,9.149,-1.677,-0.0,-1.15,9.197,1.198,5.865,2.157,9.635,1.007,-17.595,17.595,0.0
2.575,1.772,9.005,-1.772,-0.0,-1.389,9.053,1.293,5.865,2.013,9.491,1.007,-11.73,11.73,-5.865
2.58,1.916,8.909,-1.677,-0.0,-1.677,8.957,1.341,5.865,2.157,9.203,1.15,-11.73,11.73,-5.865
2.585,1.772,8.814,-1.581,-5.865,-1.724,8.957,1.198,5.865,2.157,9.203,1.007,-5.865,11.73,-5.865
2.59,1.629,8.766,-1.581,-5.865,-1.533,8.909,1.198,0.0,2.013,9.059,1.007,-5.865,11.73,0.0
2.595,1.533,8.766,-1.485,-5.865,-1.341,8.814,1.15,0.0,1.869,9.059,1.007,-5.865,17.595,0.0
2.6,1.437,8.67,-1.293,-5.865,-1.245,8.766,0.958,0.0,1.869,9.059,0.863,-5.865,17.595,0.0
2.605,1.341,8.574,-1.054,-0.0,-1.15,8.718,0.766,5.865,1.869,8.916,0.575,-5.865,17.595,0.0
2.61,1.245,8.622,-0.862,-0.0,-1.006,8.67,0.527,5.865,1.726,8.772,0.288,-5.865,17.595,0.0
2.615,1.245,8.766,-0.766,5.865,-0.91,8.718,0.383,11.73,1.726,8.916,0.144,-5.865,17.595,-5.865
2.62,1.245,8.909,-0.719,5.865,-0.91,8.862,0.287,11.73,1.726,9.059,0.144,-5.865,17.595,-5.865
2.625,1.341,9.053,-0.671,5.865,-0.958,8.957,0.287,11.73,1.726,9.347,-0.0,-5.865,11.73,-11.73
2.63,1.437,9.101,-0.671,5.865,-1.102,9.053,0.24,11.73,1.726,9.347,-0.0,0.0,11.73,-11.73
2.6350000000000002,1.389,9.197,-0.766,-0.0,-1.102,9.149,0.287,11.73,1.869,9.491,-0.0,0.0,11.73,-11.73
2.64,1.245,9.197,-0.766,-0.0,-1.054,9.197,0.335,5.865,1.726,9.491,0.144,0.0,11.73,-5.865
2.645,1.198,9.245,-0.766,-0.0,-0.91,9.245,0.335,5.865,1.726,9.491,0.144,0.0,11.73,-5.865
2.65,1.102,9.293,-0.719,-0.0,-0.862,9.341,0.287,5.865,1.582,9.491,0.144,5.865,5.865,-5.865
2.6550000000000002,1.102,9.388,-0.719,-0.0,-0.814,9.436,0.287,5.865,1.582,9.491,0.144,5.865,5.865,-5.865
2.66,1.102,9.532,-0.719,-0.0,-0.766,9.58,0.287,5.865,1.582,9.635,-0.0,5.865,5.865,-5.865
2.665,1.15,9.724,-0.766,-0.0,-0.814,9.82,0.335,5.865,1.582,9.778,0.144,5.865,5.865,-5.865
2.67,1.245,9.915,-0.814,5.865,-0.862,10.011,0.335,11.73,1.582,9.922,0.144,5.865,5.865,-5.865
2.6750000000000003,1.293,10.059,-0.862,5.865,-0.958,10.155,0.383,11.73,1.726,10.066,0.144,5.865,5.865,-5.865
2.68,1.293,10.251,-1.006,5.865,-1.006,10.394,0.479,11.73,1.726,10.21,0.288,0.0,5.865,-5.865
2.685,1.389,10.442,-1.102,5.865,-1.054,10.586,0.575,11.73,1.726,10.354,0.431,0.0,5.865,-11.73
2.69,1.437,10.586,-1.102,5.865,-1.102,10.73,0.623,11.73,1.726,10.497,0.431,-5.865,5.865,-11.73
2.695,1.437,10.682,-1.15,5.865,-1.15,10.873,0.623,11.73,1.869,10.641,0.431,-5.865,5.865,-11.73
2.7,1.437,10.682,-1.245,5.865,-1.102,10.969,0.766,11.73,1.869,10.785,0.575,-5.865,5.865,-11.73
2.705,1.485,10.682,-1.245,5.865,-1.102,10.969,0.814,11.73,1.726,10.785,0.575,-5.865,5.865,-11.73
2.71,1.533,10.634,-1.198,5.865,-1.245,10.921,0.766,11.73,1.869,10.785,0.575,-11.73,5.865,-11.73
2.715,1.533,10.538,-1.15,5.865,-1.245,10.825,0.719,11.73,1.869,10.641,0.575,-11.73,5.865,-11.73
2.72,1.533,10.442,-1.198,5.865,-1.245,10.682,0.719,11.73,1.869,10.641,0.431,-17.595,5.865,-11.73
2.725,1.533,10.346,-1.245,5.865,-1.245,10.538,0.814,11.73,1.869,10.641,0.575,-17.595,5.865,-5.865
2.73,1.581,10.394,-1.15,-0.0,-1.341,10.49,0.766,5.865,1.869,10.497,0.575,-17.595,5.865,-5.865
2.735,1.581,10.442,-1.198,-0.0,-1.293,10.49,0.766,5.865,1.869,10.641,0.575,-17.595,5.865,-5.865
2.74,1.581,10.49,-1.15,-5.865,-1.293,10.49,0.766,5.865,1.869,10.641,0.575,-17.595,5.865,0.0
2.745,1.629,10.538,-0.91,-5.865,-1.341,10.586,0.623,0.0,1.869,10.641,0.431,-17.595,5.865,0.0
2.75,1.437,10.873,-0.862,-5.865,-1.293,10.778,0.383,0.0,2.013,10.785,0.288,-17.595,5.865,0.0
2.755,1.437,10.969,-1.054,-11.73,-1.054,10.873,0.527,0.0,2.013,11.216,0.288,-17.595,5.865,5.865
2.7600000000000002,1.198,11.065,-1.485,-5.865,-0.527,10.873,1.006,-5.865,1.869,11.36,0.431,-17.595,5.865,5.865
2.765,1.629,11.257,-1.15,-5.865,-1.15,11.113,0.719,0.0,1.726,11.504,0.575,-17.595,5.865,5.865
2.77,1.82,11.4,-1.102,-5.865,-1.293,11.4,0.671,0.0,2.013,11.648,0.575,-11.73,0.0,0.0
2.775,1.868,11.64,-1.006,-5.865,-1.533,11.64,0.623,5.865,2.301,11.648,0.431,-11.73,0.0,0.0
2.7800000000000002,1.868,11.736,-0.958,-5.865,-1.581,11.831,0.527,0.0,2.301,11.792,0.288,-11.73,0.0,0.0
2.785,1.772,11.688,-0.91,-11.73,-1.485,11.879,0.479,-5.865,2.301,11.935,0.288,-11.73,0.0,5.865
2.79,1.677,11.496,-0.862,-17.595,-1.293,11.736,0.431,-5.865,2.157,11.792,0.288,-11.73,5.865,5.865
2.795,1.629,11.304,-0.814,-17.595,-1.245,11.592,0.383,-11.73,2.157,11.648,0.144,-11.73,0.0,11.73
2.8000000000000003,1.629,11.065,-0.766,-17.595,-1.293,11.352,0.335,-11.73,2.013,11.36,0.144,-17.595,0.0,11.73
2.805,1.629,10.921,-0.766,-17.595,-1.293,11.209,0.335,-11.73,2.013,11.073,0.144,-17.595,0.0,11.73
2.81,1.629,10.778,-0.766,-23.46,-1.293,11.065,0.287,-11.73,2.013,10.929,0.144,-17.595,0.0,17.595
2.815,1.629,10.682,-0.814,-17.595,-1.293,10.921,0.335,-11.73,2.013,10.785,0.144,-17.595,0.0,17.595
2.82,1.677,10.538,-0.862,-23.46,-1.293,10.73,0.383,-17.595,2.013,10.785,0.144,-17.595,0.0,17.595
2.825,1.724,10.346,-0.91,-23.46,-1.341,10.49,0.431,-17.595,2.157,10.785,0.288,-23.46,0.0,17.595
2.83,1.724,10.059,-1.054,-23.46,-1.341,10.203,0.527,-17.595,2.157,10.641,0.288,-17.595,-5.865,17.595
2.835,1.724,9.772,-1.15,-23.46,-1.389,9.915,0.671,-17.595,2.157,10.354,0.431,-17.595,-5.865,17.595
2.84,1.724,9.436,-1.245,-29.326,-1.389,9.484,0.766,-17.595,2.157,10.066,0.431,-17.595,-5.865,23.46
2.845,1.724,9.101,-1.293,-23.46,-1.437,9.149,0.814,-17.595,2.157,9.922,0.575,-17.595,-5.865,23.46
2.85,1.677,8.766,-1.341,-23.46,-1.437,8.814,0.91,-23.46,2.157,9.491,0.575,-11.73,-5.865,23.46
2.855,1.677,8.383,-1.341,-23.46,-1.485,8.478,0.862,-23.46,2.013,9.059,0.719,-5.865,-5.865,23.46
2.86,1.629,8.047,-1.341,-23.46,-1.485,8.191,0.91,-17.595,2.013,8.628,0.719,0.0,-5.865,23.46
2.865,1.629,7.664,-1.341,-23.46,-1.485,7.856,0.91,-17.595,1.869,8.34,0.719,0.0,-5.865,23.46
2.87,1.581,7.329,-1.341,-23.46,-1.437,7.472,0.91,-17.595,1.869,7.909,0.719,0.0,-5.865,17.595
2.875,1.533,6.898,-1.437,-17.595,-1.389,7.089,1.006,-11.73,1.869,7.621,0.719,5.865,-5.865,17.595
2.88,1.485,6.419,-1.533,-11.73,-1.389,6.61,1.102,-11.73,1.726,7.19,0.863,5.865,0.0,11.73
2.8850000000000002,1.533,5.988,-1.533,-11.73,-1.437,6.131,1.15,-5.865,1.726,6.759,0.863,5.865,0.0,5.865
2.89,1.533,5.556,-1.533,-5.865,-1.485,5.604,1.15,0.0,1.726,6.327,0.863,5.865,0.0,5.865
2.895,1.389,5.269,-1.533,-0.0,-1.389,5.317,1.15,5.865,1.726,5.896,0.863,5.865,0.0,0.0
2.9,1.293,5.077,-1.533,5.865,-1.293,5.221,1.15,5.865,1.582,5.464,0.863,17.595,0.0,-5.865
2.9050000000000002,1.198,4.934,-1.533,11.73,-1.198,5.125,1.15,11.73,1.438,5.177,0.863,23.46,0.0,-11.73
2.91,1.198,4.742,-1.581,17.595,-1.198,4.934,1.198,17.595,1.438,5.033,0.863,17.595,5.865,-17.595
2.915,1.15,4.551,-1.772,17.595,-1.15,4.79,1.293,23.46,1.438,4.889,1.007,17.595,5.865,-23.46
2.92,1.006,4.407,-1.916,23.46,-1.054,4.646,1.485,29.326,1.294,4.745,1.15,17.595,5.865,-23.46
2.9250000000000003,0.958,4.119,-2.012,29.326,-1.054,4.359,1.629,35.191,1.15,4.602,1.294,17.595,11.73,-29.326
2.93,0.814,3.88,-2.108,35.191,-0.958,4.072,1.724,35.191,1.15,4.17,1.438,17.595,11.73,-35.191
2.935,0.719,3.688,-2.156,41.056,-0.862,3.88,1.82,41.056,0.863,4.026,1.438,17.595,17.595,-41.056
2.94,0.527,3.593,-2.299,46.921,-0.719,3.784,1.868,46.921,0.719,3.739,1.582,17.595,17.595,-46.921
2.945,0.335,3.688,-2.443,52.786,-0.527,3.784,2.012,52.786,0.431,3.739,1.726,17.595,23.46,-52.786
2.95,0.287,4.024,-2.539,58.651,-0.383,4.024,2.156,58.651,0.288,3.883,1.869,17.595,23.46,-58.651
2.955,0.287,4.551,-2.635,64.516,-0.335,4.311,2.251,70.381,0.431,4.314,1.869,5.865,29.326,-70.381
2.96,0.287,5.125,-2.635,76.246,-0.287,4.934,2.299,76.246,0.288,4.889,2.013,5.865,29.326,-76.246
2.965,4.742,23.232,11.065,82.111,-0.431,6.275,1.916,82.111,0.575,6.471,1.869,5.865,35.191,-82.111
2.97,3.209,8.335,3.64,93.842,-6.993,22.417,-11.161,105.572,12.367,60.252,-13.949,35.191,17.595,-93.842
2.975,-3.257,7.76,-2.682,-5.865,3.545,10.251,1.677,76.246,5.752,8.34,-0.575,64.516,-17.595,-76.246
2.98,0.192,14.274,-1.006,-64.516,1.245,9.724,1.82,-52.786,-5.177,7.909,1.294,82.111,-46.921,35.191
2.985,4.742,13.029,1.772,-5.865,-2.826,11.927,-0.862,-41.056,2.157,15.818,-0.431,99.707,-52.786,52.786
2.99,2.778,7.951,-0.766,17.595,-5.844,14.37,-1.485,11.73,3.451,6.759,-2.157,99.707,-46.921,-11.73
2.995,2.156,9.293,-1.964,-0.0,-2.203,12.646,1.245,11.73,1.15,6.04,0.719,64.516,-29.326,-17.595
3.0,2.06,9.149,-1.581,-0.0,-2.491,11.209,1.341,0.0,2.013,8.628,1.294,23.46,-11.73,0.0
3.005,1.82,9.484,-1.198,11.73,-2.06,11.113,1.006,11.73,1.726,8.053,0.863,5.865,0.0,-5.865
3.0100000000000002,1.868,10.251,-0.766,17.595,-1.533,10.921,0.479,17.595,2.013,9.059,0.431,-11.73,11.73,-17.595
3.015,2.06,10.682,-1.102,23.46,-1.724,11.017,0.383,29.326,2.301,10.21,0.144,-23.46,17.595,-23.46
3.02,2.108,10.394,-1.581,23.46,-1.677,10.73,0.91,29.326,2.588,10.929,0.575,-35.191,17.595,-29.326
3.025,2.108,9.867,-2.06,17.595,-1.772,9.867,1.389,23.46,2.732,10.929,1.007,-35.191,17.595,-23.46
3.0300000000000002,2.203,9.101,-2.682,5.865,-1.916,9.149,1.916,17.595,2.588,10.497,1.582,-29.326,17.595,-17.595
3.035,2.108,8.526,-3.161,-0.0,-2.012,8.478,2.539,11.73,2.588,9.635,2.157,-23.46,11.73,-11.73
3.04,1.964,8.239,-3.209,-5.865,-1.964,8.143,2.826,5.865,2.301,8.916,2.588,-17.595,11.73,-5.865
3.045,1.677,8.383,-2.922,-5.865,-1.629,8.335,2.682,0.0,2.157,8.628,2.445,-11.73,11.73,0.0
3.0500000000000003,1.485,8.718,-2.491,-5.865,-1.533,8.478,2.347,0.0,1.869,8.772,2.157,-5.865,17.595,5.865
3.055,1.198,9.341,-2.012,-5.865,-0.91,9.197,1.868,0.0,1.726,9.059,1.726,-5.865,17.595,0.0
3.06,1.15,9.867,-1.533,-5.865,-0.719,9.676,1.341,0.0,1.726,9.635,1.294,-5.865,17.595,0.0
3.065,1.006,10.346,-1.293,-5.865,-0.575,10.251,0.958,0.0,1.726,10.21,0.863,-5.865,17.595,0.0
3.0700000000000003,1.102,10.49,-1.245,-0.0,-0.623,10.634,0.814,0.0,1.582,10.497,0.719,-5.865,11.73,0.0
3.075,1.245,10.538,-1.293,-0.0,-0.814,10.73,0.814,5.865,1.582,10.641,0.575,-5.865,5.865,0.0
3.08,1.293,10.634,-1.389,-0.0,-0.958,10.778,0.862,5.865,1.582,10.785,0.719,-5.865,5.865,-5.865
3.085,1.245,10.682,-1.389,-0.0,-1.006,10.825,0.958,5.865,1.582,10.785,0.719,-11.73,5.865,0.0
3.09,1.245,10.634,-1.389,-0.0,-1.006,10.73,0.958,5.865,1.582,10.929,0.719,-11.73,5.865,0.0
3.095,1.293,10.49,-1.198,-0.0,-0.958,10.634,0.862,5.865,1.582,10.785,0.719,-11.73,5.865,0.0
3.1,1.293,10.299,-1.102,-0.0,-1.006,10.49,0.719,5.865,1.726,10.785,0.575,-11.73,5.865,-5.865
3.105,1.389,10.155,-1.102,-0.0,-1.006,10.299,0.623,5.865,1.726,10.497,0.431,-5.865,5.865,-5.865
3.11,1.437,10.011,-1.15,-0.0,-1.102,10.155,0.671,11.73,1.726,10.354,0.431,-5.865,5.865,-5.865
3.115,1.485,9.82,-1.293,-0.0,-1.15,9.915,0.814,5.865,1.869,10.21,0.575,-5.865,5.865,-5.865
3.12,1.629,9.58,-1.485,-0.0,-1.293,9.676,0.958,5.865,1.869,10.066,0.719,-5.865,5.865,-5.865
3.125,1.724,9.341,-1.677,-0.0,-1.485,9.436,1.15,5.865,2.013,9.778,0.863,-5.865,5.865,-5.865
3.13,1.82,9.149,-1.82,-0.0,-1.629,9.245,1.341,5.865,2.013,9.635,1.007,-5.865,5.865,-5.865
3.1350000000000002,1.82,9.005,-1.916,-0.0,-1.677,9.101,1.437,5.865,2.157,9.491,1.15,0.0,5.865,-5.865
3.14,1.82,9.005,-1.82,-0.0,-1.677,9.005,1.437,5.865,2.013,9.203,1.294,0.0,11.73,0.0
3.145,1.772,9.101,-1.677,-5.865,-1.581,9.101,1.341,5.865,2.013,9.203,1.15,0.0,11.73,0.0
3.15,1.724,9.293,-1.629,-5.865,-1.485,9.245,1.198,0.0,2.013,9.347,1.007,0.0,11.73,0.0
3.1550000000000002,1.724,9.388,-1.485,-5.865,-1.437,9.436,1.15,0.0,2.157,9.635,1.007,0.0,11.73,0.0
3.16,1.724,9.341,-1.341,-5.865,-1.437,9.532,1.006,0.0,2.157,9.491,0.863,5.865,11.73,0.0
3.165,1.677,9.388,-1.245,-5.865,-1.485,9.532,0.862,5.865,2.013,9.491,0.719,0.0,11.73,0.0
3.17,1.677,9.484,-1.293,-0.0,-1.437,9.58,0.814,5.865,2.013,9.491,0.575,0.0,11.73,0.0
3.1750000000000003,1.677,9.628,-1.341,-0.0,-1.437,9.628,0.91,5.865,2.013,9.635,0.719,0.0,11.73,0.0
3.18,1.629,9.772,-1.341,-0.0,-1.389,9.82,0.91,5.865,2.013,9.922,0.719,0.0,11.73,-5.865
3.185,1.629,9.82,-1.341,-0.0,-1.389,9.915,0.91,5.865,2.013,10.066,0.719,0.0,11.73,-5.865
3.19,1.629,9.82,-1.389,-0.0,-1.437,9.963,0.91,5.865,2.013,10.066,0.719,0.0,11.73,-5.865
3.1950000000000003,1.581,9.867,-1.341,-0.0,-1.341,10.011,0.91,5.865,1.869,9.922,0.719,0.0,17.595,-5.865
3.2,1.581,9.963,-1.293,-0.0,-1.293,10.107,0.862,5.865,1.869,10.066,0.719,0.0,17.595,-5.865
3.205,1.581,10.059,-1.198,-0.0,-1.293,10.107,0.814,5.865,2.013,10.21,0.575,0.0,17.595,0.0
3.21,1.533,10.059,-1.198,-0.0,-1.245,10.107,0.766,5.865,2.013,10.354,0.575,0.0,17.595,0.0
3.215,1.533,9.963,-1.198,-0.0,-1.198,10.059,0.766,5.865,2.013,10.354,0.575,0.0,11.73,0.0
3.22,1.533,9.915,-1.293,-0.0,-1.198,10.011,0.766,5.865,2.013,10.21,0.575,0.0,11.73,0.0
3.225,1.485,9.867,-1.293,-0.0,-1.198,10.011,0.862,5.865,2.013,10.21,0.575,0.0,11.73,0.0
3.23,1.581,9.772,-1.341,-0.0,-1.198,9.867,0.862,5.865,2.013,10.066,0.719,0.0,11.73,0.0
3.235,1.629,9.724,-1.485,-0.0,-1.293,9.82,0.958,5.865,2.013,9.922,0.719,0.0,11.73,0.0
3.24,1.724,9.676,-1.581,-0.0,-1.485,9.772,1.054,5.865,2.013,9.922,0.863,0.0,11.73,-5.865
3.245,1.772,9.724,-1.677,-0.0,-1.533,9.772,1.198,5.865,2.013,9.922,1.007,0.0,5.865,0.0
3.25,1.772,9.772,-1.772,-5.865,-1.533,9.724,1.245,0.0,2.157,10.066,1.007,5.865,11.73,0.0
3.255,1.772,9.82,-1.868,-5.865,-1.485,9.772,1.341,0.0,2.157,10.21,1.15,5.865,11.73,0.0
3.2600000000000002,1.82,9.915,-1.964,-5.865,-1.485,9.82,1.533,0.0,2.301,10.21,1.294,5.865,5.865,0.0
3.265,1.916,9.963,-1.964,-5.865,-1.677,10.011,1.533,0.0,2.157,10.21,1.294,5.865,5.865,0.0
3.27,1.916,9.915,-2.06,-5.865,-1.724,10.011,1.581,0.0,2.301,10.21,1.438,5.865,11.73,0.0
3.275,1.916,9.82,-2.108,-5.865,-1.724,9.963,1.677,0.0,2.301,10.066,1.438,5.865,11.73,0.0
3.2800000000000002,1.964,9.772,-2.251,-5.865,-1.724,10.011,1.724,0.0,2.301,9.922,1.438,5.865,11.73,0.0
3.285,1.964,9.772,-2.251,-5.865,-1.82,10.059,1.82,0.0,2.157,9.778,1.582,5.865,11.73,0.0
3.29,2.012,9.915,-2.299,-5.865,-1.916,10.155,1.868,0.0,2.157,9.778,1.726,5.865,17.595,0.0
3.295,2.108,10.059,-1.916,-0.0,-1.916,10.251,1.82,0.0,2.301,9.922,1.726,5.865,17.595,0.0
3.3000000000000003,1.916,10.107,-1.724,-0.0,-1.772,10.49,1.102,0.0,2.445,9.922,1.294,0.0,17.595,0.0
3.305,2.06,10.059,-1.724,-0.0,-1.82,10.442,1.485,0.0,2.157,10.21,1.294,-5.865,23.46,0.0
3.31,2.06,10.203,-1.629,-5.865,-2.012,10.778,0.814,0.0,2.445,9.635,0.431,-5.865,23.46,0.0
3.315,1.964,10.107,-2.108,-5.865,-1.677,10.251,1.389,0.0,2.445,10.21,1.007,-11.73,23.46,0.0
3.3200000000000003,2.012,10.011,-2.251,-5.865,-1.772,10.011,1.82,0.0,2.445,10.497,1.582,-17.595,23.46,0.0
3.325,2.203,10.011,-1.437,-5.865,-1.916,10.011,1.724,0.0,2.301,10.354,1.582,-17.595,23.46,0.0
3.33,2.156,9.915,-1.533,-5.865,-2.012,10.203,1.054,5.865,2.301,9.778,0.863,-11.73,23.46,0.0
3.335,2.012,10.059,-1.629,-5.865,-1.82,9.963,1.15,5.865,2.588,10.21,0.863,-17.595,29.326,0.0
3.34,2.012,10.155,-1.677,-5.865,-1.724,10.107,1.245,0.0,2.445,10.497,1.007,-17.595,29.326,0.0
3.345,1.964,10.107,-1.581,-5.865,-1.677,10.155,1.198,0.0,2.445,10.497,1.007,-17.595,29.326,5.865
3.35,2.06,9.963,-1.533,-5.865,-1.724,10.107,1.102,0.0,2.445,10.354,0.863,-17.595,29.326,5.865
3.355,2.108,9.82,-1.533,-5.865,-1.82,9.963,1.054,0.0,2.445,10.21,0.863,-11.73,29.326,0.0
3.36,2.012,9.724,-1.533,-5.865,-1.82,9.867,1.102,0.0,2.445,10.066,0.863,-11.73,29.326,5.865
3.365,1.964,9.628,-1.581,-11.73,-1.724,9.724,1.15,0.0,2.445,9.922,0.863,-11.73,29.326,5.865
3.37,2.012,9.484,-1.581,-11.73,-1.772,9.628,1.198,-5.865,2.445,9.778,1.007,-11.73,29.326,5.865
3.375,2.012,9.341,-1.581,-11.73,-1.82,9.532,1.15,-5.865,2.445,9.635,1.007,-11.73,29.326,5.865
3.38,2.012,9.197,-1.629,-11.73,-1.82,9.436,1.15,0.0,2.301,9.491,1.007,-11.73,29.326,5.865
3.3850000000000002,2.012,9.101,-1.677,-11.73,-1.82,9.293,1.198,0.0,2.301,9.203,1.007,-11.73,29.326,5.865
3.39,2.012,9.101,-1.772,-5.865,-1.82,9.197,1.293,0.0,2.301,9.203,1.007,-11.73,29.326,5.865
3.395,2.108,9.149,-1.772,-5.865,-1.868,9.245,1.341,0.0,2.445,9.347,1.15,-11.73,29.326,5.865
3.4,2.203,9.245,-1.82,-5.865,-1.964,9.245,1.389,0.0,2.445,9.347,1.15,-17.595,29.326,0.0
3.4050000000000002,2.251,9.341,-1.868,-5.865,-2.06,9.341,1.437,0.0,2.588,9.491,1.294,-17.595,29.326,0.0
3.41,2.299,9.293,-1.82,-5.865,-2.108,9.388,1.437,0.0,2.588,9.491,1.294,-11.73,29.326,0.0
3.415,2.299,9.245,-1.82,-5.865,-2.108,9.341,1.389,0.0,2.588,9.491,1.15,-11.73,35.191,0.0
3.42,2.299,9.197,-1.82,-5.865,-2.156,9.245,1.389,0.0,2.588,9.491,1.15,-11.73,35.191,5.865
3.4250000000000003,2.347,9.101,-1.868,-5.865,-2.203,9.197,1.389,0.0,2.588,9.347,1.15,-11.73,35.191,5.865
3.43,2.299,9.149,-1.916,-5.865,-2.156,9.197,1.437,0.0,2.588,9.347,1.294,-11.73,35.191,5.865
3.435,2.299,9.197,-1.964,-5.865,-2.156,9.245,1.533,0.0,2.588,9.347,1.294,-11.73,35.191,5.865
3.44,2.395,9.245,-1.916,-5.865,-2.203,9.293,1.533,0.0,2.588,9.491,1.294,-11.73,41.056,5.865
3.4450000000000003,2.443,9.293,-1.868,-5.865,-2.251,9.293,1.485,0.0,2.732,9.491,1.294,-11.73,41.056,0.0
3.45,2.443,9.245,-1.82,-5.865,-2.251,9.293,1.389,0.0,2.876,9.491,1.15,-11.73,41.056,5.865
3.455,2.395,9.149,-1.772,-11.73,-2.251,9.293,1.389,0.0,2.732,9.491,1.15,-11.73,41.056,5.865
3.46,2.395,9.197,-1.868,-11.73,-2.251,9.245,1.389,-5.865,2.732,9.347,1.15,-5.865,41.056,5.865
3.465,2.443,9.149,-1.916,-11.73,-2.251,9.197,1.485,-5.865,2.732,9.491,1.294,-5.865,41.056,5.865
3.47,2.443,9.053,-1.964,-11.73,-2.347,9.101,1.533,-5.865,2.876,9.347,1.294,-5.865,41.056,5.865
3.475,2.395,8.909,-1.964,-11.73,-2.299,9.005,1.581,-5.865,2.732,9.203,1.294,-5.865,46.921,5.865
3.48,2.347,8.814,-1.964,-11.73,-2.251,8.909,1.533,-5.865,2.732,9.059,1.294,-5.865,46.921,5.865
3.485,2.347,8.766,-1.916,-11.73,-2.251,8.862,1.533,-5.865,2.588,9.059,1.294,-5.865,46.921,5.865
3.49,2.299,8.766,-1.868,-5.865,-2.251,8.862,1.485,-5.865,2.588,8.916,1.294,-5.865,52.786,5.865
3.495,2.251,8.814,-1.772,-5.865,-2.156,8.909,1.437,0.0,2.588,8.916,1.15,-5.865,52.786,5.865
3.5,2.203,8.957,-1.772,-5.865,-2.108,9.005,1.341,0.0,2.588,8.916,1.15,-5.865,52.786,0.0
3.505,2.108,9.149,-1.629,-5.865,-2.012,9.197,1.293,0.0,2.445,9.059,1.15,-5.865,52.786,0.0
3.5100000000000002,2.156,9.245,-1.533,-0.0,-1.964,9.341,1.15,5.865,2.445,9.203,1.007,-5.865,58.651,0.0
3.515,2.156,9.293,-1.485,-0.0,-2.012,9.436,1.102,5.865,2.445,9.347,0.863,-11.73,58.651,0.0
3.52,2.108,9.293,-1.437,-5.865,-1.964,9.436,1.054,5.865,2.445,9.491,0.863,-11.73,58.651,0.0
3.525,2.012,9.293,-1.437,-5.865,-1.868,9.388,1.006,0.0,2.445,9.491,0.719,-11.73,58.651,0.0
3.5300000000000002,1.964,9.149,-1.437,-5.865,-1.772,9.293,1.006,0.0,2.445,9.491,0.719,-11.73,58.651,0.0
3.535,1.916,9.053,-1.437,-5.865,-1.772,9.197,1.006,0.0,2.301,9.347,0.719,-11.73,58.651,5.865
3.54,1.82,8.957,-1.389,-5.865,-1.724,9.149,1.006,0.0,2.301,9.203,0.719,-11.73,58.651,5.865
3.545,1.677,8.574,-1.198,-5.865,-1.677,9.101,0.91,0.0,2.013,8.916,0.719,-11.73,58.651,5.865
3.5500000000000003,1.581,8.239,-0.862,-5.865,-1.581,8.766,0.671,0.0,1.726,8.34,0.431,-17.595,64.516,0.0
3.555,1.581,8.43,-0.671,-5.865,-1.341,8.478,0.335,0.0,1.869,8.197,0.144,-17.595,64.516,0.0
3.56,1.485,8.862,-0.766,-0.0,-1.198,8.622,0.287,5.865,2.013,8.772,-0.0,-23.46,64.516,0.0
3.565,1.533,9.197,-0.862,-0.0,-1.15,8.909,0.431,5.865,1.869,9.347,0.144,-23.46,64.516,-5.865
3.5700000000000003,1.724,9.436,-0.814,-0.0,-1.293,9.149,0.431,5.865,2.013,9.635,0.144,-17.595,64.516,-5.865
3.575,1.868,9.628,-0.719,-0.0,-1.485,9.293,0.335,5.865,2.301,10.066,0.144,-17.595,64.516,-5.865
3.58,1.916,9.772,-0.719,-5.865,-1.629,9.436,0.287,5.865,2.301,10.21,-0.0,-11.73,64.516,0.0
3.585,1.964,9.915,-0.814,-11.73,-1.629,9.532,0.383,0.0,2.445,10.497,0.144,-5.865,64.516,0.0
3.59,1.916,9.772,-0.862,-17.595,-1.629,9.58,0.431,-5.865,2.445,10.497,0.144,0.0,58.651,5.865
3.595,1.82,10.059,-1.198,-17.595,-1.533,9.532,0.479,-11.73,2.445,10.354,0.144,5.865,58.651,11.73
3.6,2.012,11.065,-1.389,-17.595,-1.485,10.107,1.054,-11.73,2.445,10.929,0.719,5.865,58.651,17.595
3.605,2.251,11.017,-0.575,-17.595,-1.964,11.304,0.479,-11.73,2.445,11.935,0.431,17.595,58.651,11.73
3.61,2.012,9.82,-0.91,-17.595,-1.868,10.586,0.24,-11.73,2.588,10.641,-0.144,23.46,58.651,11.73
3.615,1.868,9.676,-1.102,-23.46,-1.724,9.772,0.623,-11.73,2.301,9.778,0.288,23.46,58.651,11.73
3.62,2.108,9.867,-0.862,-23.46,-1.868,9.915,0.575,-17.595,2.157,9.922,0.288,23.46,58.651,17.595
3.625,2.203,9.676,-0.766,-17.595,-1.964,10.155,0.383,-11.73,2.445,9.778,0.144,23.46,58.651,17.595
3.63,2.156,9.532,-0.623,-11.73,-2.06,9.867,0.287,-5.865,2.588,9.635,0.144,23.46,58.651,11.73
3.6350000000000002,2.108,9.484,-0.479,-11.73,-1.964,9.772,0.144,-5.865,2.445,9.491,-0.144,17.595,58.651,11.73
3.64,2.108,9.532,-0.479,-17.595,-1.964,9.82,0.048,-5.865,2.445,9.347,-0.288,5.865,64.516,11.73
3.645,2.156,9.532,-0.575,-11.73,-2.012,9.915,0.144,-5.865,2.301,9.347,-0.144,5.865,64.516,11.73
3.65,2.156,9.484,-0.527,-11.73,-2.012,9.724,0.144,-5.865,2.445,9.491,-0.144,5.865,64.516,5.865
3.6550000000000002,2.156,9.341,-0.527,-11.73,-2.012,9.58,0.144,-5.865,2.445,9.491,-0.144,5.865,70.381,11.73
3.66,2.06,9.197,-0.479,-11.73,-2.012,9.436,0.096,-5.865,2.445,9.491,-0.288,0.0,70.381,5.865
3.665,1.964,9.005,-0.431,-11.73,-1.916,9.197,0.048,-5.865,2.301,9.347,-0.288,0.0,70.381,5.865
3.67,1.82,8.862,-0.383,-11.73,-1.772,8.957,0.0,0.0,2.157,9.203,-0.288,0.0,70.381,5.865
3.6750000000000003,1.772,8.862,-0.335,-5.865,-1.629,8.814,-0.048,0.0,2.157,9.203,-0.431,0.0,76.246,5.865
3.68,1.868,8.957,-0.383,-5.865,-1.629,8.814,-0.048,0.0,2.157,9.347,-0.431,0.0,76.246,0.0
3.685,1.916,9.053,-0.383,-5.865,-1.677,8.862,-0.048,5.865,2.301,9.491,-0.431,0.0,76.246,0.0
3.69,1.868,9.053,-0.383,-5.865,-1.724,8.909,0.0,5.865,2.157,9.491,-0.431,5.865,76.246,0.0
3.6950000000000003,1.82,9.101,-0.431,-5.865,-1.629,8.957,0.0,5.865,2.157,9.491,-0.431,5.865,76.246,0.0
3.7,1.772,9.197,-0.527,-5.865,-1.581,9.053,0.096,0.0,2.157,9.491,-0.288,5.865,82.111,0.0
3.705,1.724,9.293,-0.527,-5.865,-1.581,9.197,0.144,0.0,2.157,9.635,-0.144,17.595,82.111,0.0
3.71,1.677,9.436,-0.479,-5.865,-1.533,9.388,0.144,0.0,2.013,9.635,-0.288,17.595,82.111,0.0
3.715,1.677,9.58,-0.479,-5.865,-1.485,9.628,0.096,0.0,2.013,9.635,-0.288,17.595,82.111,5.865
3.72,1.677,9.532,-0.479,-11.73,-1.485,9.676,0.096,0.0,2.013,9.635,-0.288,17.595,82.111,5.865
3.725,1.677,9.484,-0.431,-11.73,-1.485,9.628,0.048,0.0,2.013,9.635,-0.288,17.595,82.111,5.865
3.73,1.677,9.436,-0.383,-11.73,-1.485,9.58,0.0,0.0,2.013,9.635,-0.288,17.595,82.111,5.865
3.735,1.677,9.388,-0.431,-11.73,-1.485,9.532,0.048,-5.865,2.013,9.635,-0.288,17.595,87.977,5.865
3.74,1.677,9.436,-0.479,-11.73,-1.485,9.436,0.096,0.0,2.013,9.635,-0.288,17.595,87.977,5.865
3.745,1.485,9.915,-0.479,-11.73,-1.437,9.484,0.096,-5.865,2.013,9.491,-0.288,17.595,87.977,5.865
3.75,1.533,9.82,-0.479,-11.73,-1.341,9.772,0.096,-5.865,2.157,9.059,-0.288,17.595,87.977,5.865
3.755,1.533,9.82,-0.431,-17.595,-1.389,9.676,0.048,-5.865,2.013,9.491,-0.288,23.46,93.842,0.0
3.7600000000000002,2.108,8.43,-0.383,-11.73,-1.533,9.436,0.0,-5.865,1.726,10.21,-0.288,29.326,93.842,0.0
3.765,1.916,9.149,-0.192,-11.73,-1.772,8.957,-0.096,-5.865,1.869,10.497,-0.431,29.326,93.842,0.0
3.77,1.724,9.436,-0.048,-5.865,-1.581,9.484,-0.335,0.0,2.157,9.635,-0.575,23.46,93.842,0.0
3.775,1.772,9.532,-0.048,-5.865,-1.533,9.628,-0.383,5.865,2.013,9.635,-0.719,23.46,93.842,0.0
3.7800000000000002,1.868,9.58,-0.048,-5.865,-1.581,9.628,-0.335,0.0,2.157,9.778,-0.719,23.46,93.842,0.0
3.785,1.916,9.58,-0.048,-5.865,-1.629,9.628,-0.335,0.0,2.301,9.778,-0.719,23.46,93.842,0.0
3.79,1.868,9.58,0.0,-5.865,-1.629,9.676,-0.383,0.0,2.301,9.778,-0.719,23.46,93.842,0.0
3.795,1.82,9.532,0.0,-5.865,-1.581,9.628,-0.383,0.0,2.157,9.635,-0.719,23.46,93.842,0.0
3.8000000000000003,1.82,9.532,-0.048,-5.865,-1.581,9.532,-0.383,0.0,2.301,9.635,-0.719,23.46,93.842,5.865
3.805,1.916,9.388,-0.096,-5.865,-1.629,9.484,-0.287,0.0,2.301,9.491,-0.719,23.46,93.842,5.865
3.81,1.916,9.341,-0.096,-5.865,-1.677,9.436,-0.287,0.0,2.301,9.491,-0.575,23.46,93.842,0.0
3.815,1.916,9.388,0.0,-5.865,-1.677,9.436,-0.383,0.0,2.301,9.347,-0.719,23.46,93.842,0.0
3.8200000000000003,1.964,9.149,0.0,-5.865,-1.677,9.341,-0.383,0.0,2.301,9.347,-0.719,23.46,93.842,0.0
3.825,1.916,9.484,0.0,-5.865,-1.677,9.293,-0.383,0.0,2.445,9.203,-0.719,23.46,93.842,0.0
3.83,1.916,9.436,0.048,-5.865,-1.581,9.532,-0.431,0.0,2.445,8.772,-0.719,23.46,93.842,0.0
3.835,1.916,9.149,0.048,-5.865,-1.724,9.293,-0.431,0.0,2.301,9.347,-0.863,23.46,93.842,5.865
3.84,2.012,8.622,0.048,-5.865,-1.724,9.149,-0.479,0.0,2.301,9.491,-0.863,29.326,93.842,5.865
3.845,2.108,8.909,0.144,-5.865,-1.772,8.957,-0.527,0.0,2.301,9.778,-0.863,29.326,93.842,0.0
3.85,2.108,8.957,0.096,-5.865,-1.82,9.149,-0.527,0.0,2.445,9.635,-0.863,23.46,93.842,0.0
3.855,2.06,9.101,0.096,-5.865,-1.868,9.197,-0.479,0.0,2.445,9.491,-0.863,23.46,93.842,0.0
3.86,2.156,9.293,0.048,-5.865,-1.868,9.293,-0.479,0.0,2.445,9.491,-0.863,17.595,93.842,0.0
3.865,2.203,9.436,0.048,-5.865,-1.916,9.484,-0.431,5.865,2.588,9.491,-0.863,17.595,93.842,0.0
3.87,2.203,9.484,0.096,-0.0,-2.012,9.628,-0.431,5.865,2.588,9.491,-0.863,17.595,93.842,0.0
3.875,2.203,9.532,0.24,-0.0,-2.012,9.676,-0.527,5.865,2.588,9.635,-0.863,5.865,93.842,0.0
3.88,2.156,9.58,0.24,-0.0,-1.964,9.772,-0.671,5.865,2.588,9.635,-1.007,5.865,93.842,-5.865
3.8850000000000002,2.108,9.628,0.24,-0.0,-1.868,9.82,-0.671,11.73,2.445,9.635,-1.007,5.865,93.842,-5.865
3.89,2.156,9.82,0.287,-0.0,-1.82,9.915,-0.671,5.865,2.445,9.635,-1.007,5.865,93.842,-5.865
3.895,2.299,9.867,0.24,-0.0,-1.964,10.011,-0.671,11.73,2.588,9.922,-1.007,5.865,93.842,-5.865
3.9,2.299,9.82,0.192,-0.0,-2.06,9.915,-0.671,11.73,2.732,10.066,-1.007,5.865,93.842,-5.865
3.9050000000000002,2.299,9.724,0.096,-0.0,-2.06,9.867,-0.575,5.865,2.732,9.922,-0.863,5.865,93.842,-5.865
3.91,2.347,9.628,0.0,-5.865,-2.108,9.772,-0.431,5.865,2.732,9.922,-0.863,0.0,93.842,0.0
3.915,2.347,9.532,-0.048,-5.865,-2.108,9.58,-0.431,5.865,2.732,9.778,-0.719,0.0,93.842,0.0
3.92,2.347,9.436,-0.24,-5.865,-2.06,9.436,-0.335,0.0,2.732,9.778,-0.719,0.0,93.842,0.0
3.9250000000000003,2.443,9.58,-0.24,-5.865,-2.156,9.388,-0.144,0.0,2.876,9.922,-0.431,5.865,93.842,0.0
3.93,2.539,9.772,-0.192,-5.865,-2.251,9.58,-0.287,0.0,2.876,10.066,-0.575,5.865,93.842,5.865
3.935,2.587,9.867,-0.096,-11.73,-2.299,9.724,-0.24,0.0,3.02,10.066,-0.575,5.865,93.842,5.865
3.94,2.443,9.915,0.144,-11.73,-2.251,9.867,-0.335,0.0,3.02,10.21,-0.719,5.865,93.842,5.865
3.9450000000000003,1.868,9.724,0.719,-11.73,-1.724,9.676,-1.102,0.0,1.438,10.497,-1.294,5.865,93.842,5.865
3.95,3.114,9.676,0.862,-23.46,-1.772,9.82,-1.198,-11.73,3.451,9.635,-1.294,5.865,93.842,11.73
3.955,2.395,9.772,0.958,-23.46,-2.539,9.676,-1.389,-17.595,3.595,9.922,-1.582,5.865,87.977,23.46
3.96,1.964,9.676,0.814,-17.595,-1.82,9.772,-1.293,-11.73,2.588,10.066,-1.726,5.865,87.977,17.595
3.9650000000000003,2.108,9.82,0.958,-17.595,-1.533,9.915,-1.245,-11.73,2.588,9.778,-1.582,17.595,87.977,11.73
3.97,2.395,9.867,1.006,-17.595,-1.868,9.915,-1.389,-11.73,2.732,10.066,-1.726,5.865,82.111,11.73
3.975,2.587,10.011,0.671,-17.595,-2.108,9.915,-1.389,-5.865,2.876,10.21,-1.726,5.865,82.111,11.73
3.98,2.682,10.059,0.0,-17.595,-2.395,9.82,-0.671,-5.865,2.876,10.785,-1.007,5.865,82.111,11.73
3.985,2.826,9.772,-1.054,-17.595,-2.347,9.724,-0.335,-5.865,3.451,10.497,-0.575,17.595,76.246,11.73
3.99,3.018,9.772,-2.299,-17.595,-2.156,8.239,2.299,-11.73,4.026,12.079,1.726,23.46,76.246,11.73
3.995,3.353,9.772,-1.437,-17.595,-3.161,9.053,1.533,-11.73,3.451,11.073,1.294,41.056,70.381,11.73
4.0,3.257,9.676,-0.623,-17.595,-3.353,9.724,0.623,-11.73,3.595,10.21,0.431,52.786,70.381,17.595
4.005,2.97,9.388,-0.24,-23.46,-3.018,9.772,0.0,-11.73,3.451,9.635,-0.288,64.516,70.381,17.595
4.01,2.73,9.197,-0.192,-23.46,-2.682,9.58,-0.24,-17.595,3.307,9.203,-0.575,64.516,70.381,17.595
4.015,2.587,9.053,-0.287,-29.326,-2.395,9.484,-0.192,-17.595,3.164,8.916,-0.575,58.651,76.246,23.46
4.0200000000000005,2.539,8.957,-0.431,-23.46,-2.347,9.436,-0.048,-17.595,3.02,8.772,-0.431,52.786,76.246,23.46
4.025,2.682,8.909,-0.623,-23.46,-2.395,9.293,0.096,-17.595,2.876,8.772,-0.288,52.786,76.246,23.46
4.03,2.922,8.862,-0.814,-17.595,-2.682,9.197,0.287,-11.73,3.02,8.772,-0.144,41.056,76.246,17.595
4.035,3.161,8.766,-0.958,-17.595,-3.018,9.005,0.479,-11.73,3.164,8.772,0.144,41.056,76.246,11.73
4.04,3.209,8.766,-1.054,-11.73,-3.209,8.909,0.623,-5.865,3.451,8.916,0.288,35.191,76.246,11.73
4.045,3.114,8.718,-1.054,-11.73,-3.161,8.814,0.671,-5.865,3.451,8.916,0.431,35.191,82.111,11.73
4.05,3.018,8.478,-0.958,-17.595,-3.018,8.67,0.623,-5.865,3.307,8.772,0.288,35.191,82.111,11.73
4.055,2.922,8.287,-0.814,-17.595,-2.874,8.43,0.527,-11.73,3.307,8.628,0.288,29.326,87.977,11.73
4.0600000000000005,2.826,8.047,-0.671,-17.595,-2.73,8.191,0.335,-5.865,3.164,8.484,0.144,35.191,87.977,11.73
4.065,2.682,7.856,-0.623,-11.73,-2.587,7.999,0.287,-5.865,3.164,8.197,-0.144,35.191,87.977,11.73
4.07,2.635,7.712,-0.527,-11.73,-2.491,7.856,0.24,-5.865,3.02,8.053,-0.144,35.191,87.977,5.865
4.075,2.635,7.664,-0.431,-5.865,-2.491,7.76,0.096,0.0,3.02,7.909,-0.288,35.191,87.977,5.865
4.08,2.539,7.712,-0.383,-5.865,-2.395,7.712,0.0,5.865,3.02,7.765,-0.288,35.191,87.977,5.865
4.085,2.539,7.999,-0.24,-0.0,-2.299,7.808,0.0,5.865,2.876,7.909,-0.431,35.191,87.977,0.0
4.09,2.73,10.394,0.766,5.865,-2.395,8.478,-0.431,5.865,2.876,8.628,-0.719,35.191,87.977,0.0
4.095,3.401,16.909,3.688,23.46,-2.156,13.747,-2.491,17.595,3.595,12.942,-2.157,35.191,87.977,-11.73
4.1,3.928,11.64,2.682,-5.865,-3.832,16.621,-4.598,23.46,4.889,15.099,-4.745,41.056,87.977,-23.46
4.105,1.724,9.341,-0.144,-41.056,-1.485,9.293,-1.677,-17.595,4.458,11.216,-2.588,29.326,82.111,11.73
4.11,2.395,8.622,-0.623,-41.056,-1.389,7.951,0.144,-41.056,2.732,10.641,-0.431,23.46,76.246,41.056
4.115,3.114,9.484,-0.048,-29.326,-2.97,9.101,0.096,-29.326,2.876,9.203,-0.144,41.056,64.516,35.191
4.12,3.018,9.101,0.479,-23.46,-3.305,10.011,-0.766,-17.595,2.876,9.059,-0.863,46.921,64.516,23.46
4.125,2.73,8.67,0.335,-17.595,-2.682,8.957,-0.862,-11.73,3.164,8.772,-1.15,41.056,70.381,17.595
4.13,2.587,8.957,0.383,-17.595,-2.395,8.766,-0.719,-11.73,3.164,8.916,-1.007,41.056,76.246,11.73
4.135,2.347,9.388,0.431,-17.595,-2.203,9.341,-0.814,-11.73,2.876,9.203,-1.15,35.191,76.246,11.73
4.14,2.347,9.628,0.431,-11.73,-1.916,9.628,-0.862,-5.865,2.876,9.491,-1.15,35.191,76.246,11.73
4.1450000000000005,2.587,9.772,0.335,-5.865,-2.06,9.676,-0.862,0.0,2.876,9.922,-1.15,35.191,70.381,5.865
4.15,2.73,9.82,0.144,-11.73,-2.251,9.772,-0.671,0.0,3.307,10.066,-1.007,35.191,70.381,5.865
4.155,2.73,9.82,-0.144,-5.865,-2.395,9.82,-0.431,0.0,3.307,10.066,-0.719,35.191,64.516,5.865
4.16,2.826,9.772,-0.431,-11.73,-2.491,9.82,-0.144,0.0,3.164,10.066,-0.431,35.191,64.516,0.0
4.165,2.874,9.628,-0.623,-11.73,-2.635,9.676,0.096,0.0,3.307,10.066,-0.288,35.191,64.516,5.865
4.17,2.73,9.484,-0.766,-11.73,-2.635,9.532,0.24,0.0,3.164,9.922,-0.144,41.056,64.516,5.865
4.175,2.635,9.484,-0.766,-11.73,-2.491,9.532,0.335,-5.865,3.164,9.635,-0.0,41.056,64.516,5.865
4.18,2.635,9.628,-0.862,-11.73,-2.395,9.628,0.383,-5.865,3.02,9.635,0.144,41.056,64.516,5.865
4.1850000000000005,2.635,9.772,-0.862,-11.73,-2.347,9.772,0.431,-5.865,3.02,9.778,0.144,41.056,64.516,5.865
4.19,2.73,9.963,-0.91,-11.73,-2.395,9.915,0.431,-5.865,3.164,10.066,0.144,41.056,64.516,5.865
4.195,2.778,10.107,-0.91,-5.865,-2.443,10.107,0.479,0.0,3.164,10.21,0.144,41.056,64.516,5.865
4.2,2.874,10.251,-0.958,-5.865,-2.587,10.251,0.479,0.0,3.307,10.354,0.288,41.056,64.516,0.0
4.205,2.922,10.251,-0.958,-5.865,-2.587,10.251,0.527,0.0,3.307,10.497,0.288,41.056,64.516,0.0
4.21,2.922,10.203,-0.958,-5.865,-2.635,10.203,0.527,0.0,3.451,10.497,0.288,41.056,58.651,0.0
4.215,3.018,10.203,-1.054,-5.865,-2.682,10.155,0.575,0.0,3.451,10.497,0.288,41.056,58.651,0.0
4.22,3.066,10.155,-1.198,-11.73,-2.778,10.107,0.719,0.0,3.451,10.497,0.431,41.056,58.651,5.865
4.225,3.114,10.107,-1.293,-11.73,-2.874,10.059,0.814,0.0,3.595,10.497,0.575,46.921,58.651,5.865
4.23,3.161,9.963,-1.293,-11.73,-2.874,9.963,0.862,0.0,3.595,10.497,0.575,46.921,58.651,5.865
4.235,3.209,9.867,-1.389,-11.73,-2.97,9.82,0.91,0.0,3.595,10.354,0.575,52.786,58.651,5.865
4.24,3.257,9.82,-1.437,-5.865,-3.018,9.724,1.006,0.0,3.739,10.21,0.719,52.786,58.651,5.865
4.245,3.353,9.82,-1.485,-5.865,-3.114,9.724,1.054,0.0,3.739,10.21,0.719,52.786,58.651,0.0
4.25,3.401,9.772,-1.485,-5.865,-3.209,9.724,1.054,0.0,3.883,10.21,0.719,58.651,58.651,0.0
4.255,3.401,9.772,-1.533,-5.865,-3.257,9.772,1.102,0.0,3.739,10.066,0.863,58.651,58.651,0.0
4.26,3.497,9.772,-1.581,-5.865,-3.305,9.772,1.15,0.0,3.883,10.066,0.863,64.516,58.651,0.0
4.265,3.449,9.772,-1.724,-5.865,-3.353,9.772,1.245,5.865,3.883,10.066,1.007,64.516,58.651,0.0
4.2700000000000005,3.401,9.772,-1.772,-0.0,-3.257,9.82,1.341,5.865,3.883,9.922,1.007,64.516,58.651,0.0
4.275,3.353,9.82,-1.82,-0.0,-3.209,9.867,1.389,5.865,3.739,9.922,1.15,64.516,58.651,0.0
4.28,3.353,9.867,-1.868,-0.0,-3.209,9.915,1.437,5.865,3.595,9.922,1.15,64.516,64.516,-5.865
4.285,3.209,9.915,-1.964,-0.0,-3.209,10.059,1.533,5.865,3.595,9.922,1.15,64.516,64.516,-5.865
4.29,3.018,10.059,-2.108,5.865,-2.97,10.203,1.629,11.73,3.451,10.066,1.294,64.516,64.516,-5.865
4.295,2.922,10.251,-2.203,5.865,-2.826,10.394,1.724,11.73,3.307,10.21,1.438,58.651,64.516,-11.73
4.3,2.826,10.49,-2.299,5.865,-2.682,10.586,1.82,11.73,3.164,10.354,1.582,58.651,70.381,-11.73
4.305,2.778,10.682,-2.491,5.865,-2.635,10.825,1.964,11.73,3.164,10.641,1.726,52.786,70.381,-11.73
4.3100000000000005,2.682,10.825,-2.73,5.865,-2.587,11.017,2.203,11.73,3.02,10.641,1.869,52.786,70.381,-11.73
4.315,2.73,10.969,-3.018,5.865,-2.539,11.065,2.443,11.73,3.02,10.929,2.157,52.786,70.381,-11.73
4.32,2.539,11.065,-3.161,-0.0,-2.491,11.209,2.73,11.73,3.02,11.216,2.445,46.921,76.246,-5.865
4.325,2.395,11.113,-3.209,-0.0,-2.251,11.304,2.778,11.73,2.732,11.073,2.445,46.921,76.246,-5.865
4.33,2.395,11.065,-2.97,-0.0,-2.108,11.257,2.73,5.865,2.732,11.216,2.445,46.921,76.246,-5.865
4.335,2.251,11.065,-2.73,-5.865,-2.108,11.257,2.443,5.865,2.876,11.216,2.301,46.921,76.246,0.0
4.34,1.868,10.921,-2.491,-11.73,-1.772,11.257,2.251,0.0,2.588,11.073,2.013,41.056,76.246,5.865
4.345,1.868,10.825,-2.491,-11.73,-1.485,11.065,2.06,-5.865,2.301,10.929,1.869,41.056,76.246,5.865
4.3500000000000005,1.964,10.825,-2.491,-11.73,-1.581,10.921,2.108,-5.865,2.445,11.073,1.869,41.056,76.246,5.865
4.355,1.868,10.634,-2.443,-17.595,-1.677,10.873,2.108,-5.865,2.445,11.073,1.869,41.056,76.246,11.73
4.36,1.82,10.442,-2.347,-17.595,-1.533,10.682,1.964,-11.73,2.157,10.785,1.726,41.056,76.246,11.73
4.365,1.724,10.251,-2.347,-17.595,-1.533,10.49,1.964,-11.73,2.157,10.641,1.726,41.056,76.246,11.73
4.37,1.677,9.772,-2.347,-17.595,-1.389,10.203,1.916,-11.73,2.013,10.354,1.726,41.056,76.246,17.595
4.375,1.581,9.245,-2.347,-17.595,-1.341,9.532,1.964,-11.73,2.013,9.922,1.582,41.056,76.246,11.73
4.38,1.629,9.053,-2.443,-17.595,-1.341,9.149,2.012,-5.865,2.013,9.491,1.726,41.056,76.246,11.73
4.385,1.341,8.67,-3.257,-11.73,-1.341,8.957,2.156,-5.865,1.869,9.347,1.869,41.056,76.246,5.865
4.39,1.772,8.574,-2.778,-5.865,-1.341,8.383,2.73,0.0,2.013,9.491,2.588,46.921,76.246,5.865
4.3950000000000005,1.964,8.478,-2.347,-0.0,-1.916,8.67,2.203,5.865,2.013,8.916,2.013,52.786,70.381,0.0
4.4,1.677,8.191,-2.203,-0.0,-1.772,8.622,1.868,5.865,2.157,8.484,1.582,52.786,76.246,-5.865
4.405,1.437,8.047,-2.251,-0.0,-1.341,8.335,1.868,5.865,1.869,8.197,1.582,52.786,76.246,-5.865
4.41,1.437,7.999,-2.251,-0.0,-1.15,8.191,1.868,11.73,1.726,8.197,1.582,52.786,76.246,-5.865
4.415,1.437,7.999,-2.395,5.865,-1.15,8.143,1.964,11.73,1.869,8.197,1.582,46.921,76.246,-5.865
4.42,1.485,8.095,-2.491,5.865,-1.15,8.143,2.108,11.73,1.869,8.197,1.726,46.921,76.246,-5.865
4.425,1.581,8.143,-2.635,5.865,-1.293,8.239,2.156,11.73,1.869,8.34,1.869,46.921,76.246,-11.73
4.43,1.581,8.191,-2.778,5.865,-1.437,8.335,2.299,11.73,1.869,8.197,2.013,46.921,76.246,-11.73
4.4350000000000005,1.581,8.287,-2.922,5.865,-1.485,8.478,2.491,17.595,1.869,8.197,2.157,46.921,76.246,-11.73
4.44,1.581,8.478,-3.066,5.865,-1.437,8.574,2.587,17.595,1.869,8.34,2.301,41.056,76.246,-11.73
4.445,1.533,8.574,-3.066,5.865,-1.389,8.766,2.682,17.595,1.869,8.628,2.445,41.056,76.246,-11.73
4.45,1.485,8.67,-3.114,5.865,-1.293,8.862,2.682,17.595,1.869,8.628,2.445,41.056,76.246,-11.73
4.455,1.437,8.766,-3.161,5.865,-1.293,9.053,2.73,17.595,1.726,8.628,2.445,41.056,82.111,-11.73
4.46,1.485,8.862,-3.209,11.73,-1.293,9.197,2.778,17.595,1.726,8.628,2.445,35.191,82.111,-11.73
4.465,1.581,9.005,-3.209,11.73,-1.341,9.293,2.874,17.595,1.726,8.772,2.588,29.326,82.111,-11.73
4.47,1.533,9.245,-3.209,11.73,-1.341,9.484,2.778,17.595,1.869,8.916,2.445,29.326,82.111,-17.595
4.4750000000000005,1.533,9.436,-3.305,11.73,-1.293,9.676,2.874,17.595,1.869,9.347,2.588,23.46,82.111,-17.595
4.48,1.581,9.532,-3.401,17.595,-1.245,9.724,2.922,17.595,1.869,9.635,2.588,17.595,82.111,-17.595
4.485,1.677,9.58,-3.401,17.595,-1.341,9.676,2.97,23.46,2.013,9.778,2.732,17.595,82.111,-17.595
4.49,1.772,9.532,-3.305,17.595,-1.437,9.628,2.97,23.46,2.157,9.778,2.732,17.595,82.111,-17.595
4.495,1.82,9.484,-3.114,11.73,-1.581,9.628,2.874,23.46,2.157,9.778,2.588,17.595,82.111,-17.595
4.5,1.868,9.436,-2.874,11.73,-1.629,9.58,2.635,23.46,2.157,9.635,2.445,17.595,82.111,-17.595
4.505,1.82,9.341,-2.635,11.73,-1.581,9.58,2.347,17.595,2.301,9.635,2.157,17.595,82.111,-17.595
4.51,1.772,9.245,-2.491,5.865,-1.485,9.484,2.156,17.595,2.157,9.491,1.869,5.865,82.111,-11.73
4.515,1.772,9.101,-2.347,5.865,-1.437,9.245,2.012,17.595,2.157,9.347,1.869,5.865,82.111,-11.73
4.5200000000000005,1.868,8.957,-2.443,5.865,-1.485,9.053,1.916,11.73,2.157,9.203,1.726,5.865,82.111,-11.73
4.525,1.916,8.909,-2.203,5.865,-1.581,8.957,2.012,11.73,2.301,9.203,1.726,5.865,76.246,-11.73
4.53,1.964,9.005,-1.724,5.865,-1.677,9.053,1.581,11.73,2.301,9.203,1.438,17.595,76.246,-11.73
4.535,1.964,9.101,-1.341,5.865,-1.677,9.293,1.102,11.73,2.301,9.203,0.863,17.595,76.246,-11.73
4.54,1.868,8.909,-1.389,5.865,-1.629,9.197,0.91,11.73,2.445,9.059,0.575,17.595,76.246,-11.73
4.545,1.916,8.718,-1.581,5.865,-1.533,8.862,1.054,11.73,2.301,9.059,0.719,5.865,76.246,-11.73
4.55,2.012,8.67,-1.581,5.865,-1.677,8.718,1.198,11.73,2.445,8.916,0.863,5.865,76.246,-11.73
4.555,2.108,8.718,-1.485,5.865,-1.82,8.766,1.15,11.73,2.445,8.916,0.863,5.865,70.381,-11.73
4.5600000000000005,2.156,8.67,-1.389,5.865,-1.916,8.718,1.006,11.73,2.588,8.916,0.863,5.865,70.381,-11.73
4.565,2.203,8.622,-1.341,5.865,-1.916,8.67,0.958,11.73,2.588,8.916,0.719,5.865,70.381,-11.73
4.57,2.203,8.574,-1.245,5.865,-1.916,8.574,0.91,11.73,2.588,8.916,0.575,17.595,70.381,-11.73
4.575,2.203,8.43,-1.198,-0.0,-1.916,8.526,0.814,11.73,2.588,8.772,0.575,17.595,70.381,-5.865
4.58,2.299,8.335,-1.15,-0.0,-1.964,8.383,0.719,11.73,2.732,8.772,0.431,17.595,70.381,-5.865
4.585,2.299,8.143,-1.102,-0.0,-2.012,8.287,0.719,5.865,2.732,8.484,0.431,23.46,64.516,-5.865
4.59,2.251,8.047,-1.102,-0.0,-2.012,8.143,0.719,5.865,2.732,8.34,0.431,23.46,64.516,-5.865
4.595,2.251,7.904,-1.054,-0.0,-2.012,7.999,0.671,5.865,2.732,8.197,0.431,23.46,64.516,-5.865
4.6000000000000005,2.299,7.712,-1.054,-0.0,-2.012,7.856,0.623,5.865,2.732,8.053,0.431,23.46,64.516,-5.865
4.605,2.395,7.568,-1.054,-0.0,-2.108,7.664,0.671,5.865,2.876,7.909,0.431,23.46,64.516,-5.865
4.61,2.395,7.472,-1.102,-0.0,-2.156,7.52,0.719,5.865,2.876,7.765,0.431,23.46,64.516,-5.865
4.615,2.443,7.52,-1.102,-0.0,-2.203,7.568,0.719,11.73,2.876,7.621,0.431,23.46,58.651,-5.865
4.62,2.443,7.616,-1.054,-0.0,-2.203,7.664,0.671,11.73,2.876,7.765,0.431,23.46,58.651,-5.865
4.625,2.443,7.76,-1.054,-0.0,-2.251,7.712,0.671,11.73,2.876,7.909,0.431,23.46,58.651,-5.865
4.63,2.443,7.951,-1.102,5.865,-2.203,7.904,0.671,11.73,2.876,7.909,0.431,23.46,58.651,-5.865
4.635,2.491,8.191,-1.15,5.865,-2.203,8.191,0.719,11.73,2.876,8.053,0.431,23.46,58.651,-11.73
4.64,2.635,8.478,-1.102,5.865,-2.299,8.478,0.719,11.73,3.02,8.34,0.431,23.46,58.651,-11.73
4.6450000000000005,2.778,8.67,-1.15,5.865,-2.491,8.718,0.671,17.595,3.164,8.628,0.431,23.46,58.651,-11.73
4.65,2.874,8.814,-1.198,5.865,-2.635,8.957,0.766,17.595,3.164,8.772,0.431,17.595,58.651,-11.73
4.655,2.874,8.957,-1.245,5.865,-2.682,9.101,0.814,17.595,3.164,8.772,0.575,17.595,52.786,-11.73
4.66,2.922,9.101,-1.293,5.865,-2.73,9.245,0.862,17.595,3.307,9.059,0.575,5.865,58.651,-11.73
4.665,2.97,9.149,-1.293,5.865,-2.73,9.341,0.862,11.73,3.307,9.203,0.575,5.865,58.651,-11.73
4.67,2.97,9.197,-1.245,5.865,-2.778,9.388,0.862,11.73,3.307,9.203,0.575,5.865,58.651,-11.73
4.675,2.97,9.293,-1.198,5.865,-2.778,9.484,0.814,11.73,3.307,9.203,0.575,5.865,58.651,-11.73
4.68,2.97,9.388,-1.198,5.865,-2.778,9.532,0.766,17.595,3.307,9.347,0.575,0.0,58.651,-11.73
4.6850000000000005,3.018,9.532,-1.15,5.865,-2.778,9.676,0.766,11.73,3.451,9.491,0.431,0.0,58.651,-11.73
4.69,3.018,9.676,-1.102,11.73,-2.826,9.772,0.719,17.595,3.451,9.635,0.431,0.0,58.651,-11.73
4.695,3.018,9.82,-1.054,11.73,-2.778,9.867,0.623,17.595,3.451,9.778,0.431,-5.865,58.651,-11.73
4.7,3.018,9.82,-0.958,5.865,-2.778,9.915,0.575,17.595,3.451,9.922,0.288,-5.865,58.651,-11.73
4.705,3.018,9.867,-0.91,5.865,-2.778,9.915,0.527,17.595,3.451,10.066,0.288,-5.865,58.651,-11.73
4.71,3.018,9.867,-0.862,11.73,-2.778,9.963,0.479,17.595,3.451,10.066,0.288,-5.865,58.651,-11.73
4.715,2.97,9.82,-0.766,5.865,-2.778,9.963,0.431,17.595,3.451,10.066,0.144,-5.865,58.651,-11.73
4.72,2.922,9.915,-0.814,5.865,-2.682,9.963,0.383,17.595,3.451,10.066,0.144,-5.865,58.651,-11.73
4.7250000000000005,2.922,9.963,-0.766,5.865,-2.635,10.011,0.383,17.595,3.451,10.066,0.144,-11.73,58.651,-11.73
4.73,2.874,10.107,-0.719,5.865,-2.635,10.107,0.335,17.595,3.451,10.21,0.144,-11.73,52.786,-11.73
4.735,2.826,10.155,-0.719,11.73,-2.539,10.203,0.287,17.595,3.307,10.354,-0.0,-11.73,52.786,-11.73
4.74,2.778,10.155,-0.671,11.73,-2.491,10.251,0.24,17.595,3.307,10.354,-0.0,-11.73,52.786,-11.73
4.745,2.826,10.107,-0.671,11.73,-2.491,10.203,0.24,17.595,3.307,10.354,-0.0,-11.73,52.786,-17.595
4.75,2.778,10.107,-0.719,11.73,-2.443,10.107,0.24,17.595,3.307,10.497,-0.0,-11.73,52.786,-17.595
4.755,2.682,10.107,-0.814,11.73,-2.395,10.107,0.335,17.595,3.164,10.497,0.144,-11.73,46.921,-17.595
4.76,2.682,10.251,-0.91,11.73,-2.299,10.107,0.431,17.595,3.164,10.497,0.144,-11.73,46.921,-17.595
4.765,2.682,10.346,-0.958,17.595,-2.299,10.203,0.479,23.46,3.164,10.641,0.288,-5.865,46.921,-17.595
4.7700000000000005,2.73,10.442,-1.054,17.595,-2.347,10.299,0.575,17.595,3.307,10.785,0.288,-5.865,46.921,-17.595
4.775,2.682,10.538,-1.15,17.595,-2.347,10.442,0.671,23.46,3.164,10.785,0.431,-5.865,41.056,-17.595
4.78,2.682,10.586,-1.293,17.595,-2.347,10.538,0.766,23.46,3.164,10.785,0.575,0.0,41.056,-17.595
4.785,2.682,10.682,-1.485,17.595,-2.347,10.634,0.91,23.46,3.164,10.929,0.719,0.0,41.056,-17.595
4.79,2.682,10.873,-1.581,17.595,-2.347,10.825,1.102,23.46,3.164,11.073,0.863,0.0,35.191,-17.595
4.795,2.73,10.969,-1.724,17.595,-2.395,10.969,1.198,23.46,3.164,11.216,1.007,5.865,35.191,-17.595
4.8,2.682,11.065,-1.82,17.595,-2.395,11.017,1.293,23.46,3.164,11.216,1.15,5.865,35.191,-17.595
4.805,2.635,11.209,-1.82,17.595,-2.347,11.209,1.389,23.46,3.164,11.36,1.15,5.865,35.191,-17.595
4.8100000000000005,2.635,11.352,-1.916,17.595,-2.299,11.4,1.437,23.46,3.164,11.36,1.15,5.865,35.191,-17.595
4.815,2.587,11.448,-1.964,17.595,-2.251,11.592,1.437,23.46,3.164,11.504,1.294,5.865,35.191,-17.595
4.82,2.587,11.544,-1.964,17.595,-2.203,11.736,1.485,23.46,3.164,11.504,1.294,5.865,29.326,-23.46
4.825,2.539,11.544,-1.964,17.595,-2.203,11.831,1.485,23.46,3.02,11.504,1.294,0.0,29.326,-17.595
4.83,2.443,11.688,-1.916,17.595,-2.156,11.879,1.533,23.46,3.02,11.504,1.294,0.0,29.326,-17.595
4.835,2.251,11.783,-2.108,17.595,-2.06,12.071,1.533,23.46,2.876,11.648,1.294,-5.865,29.326,-23.46
4.84,2.06,12.071,-2.203,17.595,-1.772,12.167,1.724,23.46,2.732,11.792,1.438,-5.865,29.326,-23.46
4.845,1.772,12.406,-1.964,17.595,-1.437,12.55,1.677,23.46,2.445,12.223,1.582,-11.73,29.326,-23.46
4.8500000000000005,1.724,12.741,-2.347,23.46,-1.437,12.694,1.581,29.326,2.157,12.511,1.294,-17.595,23.46,-23.46
4.855,1.772,13.316,-2.682,23.46,-1.293,13.077,2.06,29.326,2.301,13.086,1.869,-17.595,23.46,-23.46
4.86,1.916,13.939,-2.778,23.46,-1.389,13.556,2.251,29.326,2.301,13.949,2.157,-17.595,23.46,-29.326
4.865,2.012,14.466,-2.922,23.46,-1.485,14.035,2.347,29.326,2.445,14.668,2.157,-17.595,23.46,-29.326
4.87,1.964,14.849,-2.97,17.595,-1.485,14.466,2.443,29.326,2.588,15.099,2.301,-11.73,17.595,-23.46
4.875,1.724,15.328,-2.682,11.73,-1.389,14.897,2.443,23.46,2.445,15.387,2.301,-5.865,17.595,-17.595
4.88,1.629,15.328,-2.874,5.865,-1.15,15.328,2.203,17.595,2.157,15.53,2.157,-5.865,17.595,-17.595
4.885,1.82,15.424,-3.066,5.865,-1.15,15.424,2.491,11.73,2.301,15.674,2.301,0.0,11.73,-11.73
4.89,1.964,15.472,-3.161,-5.865,-1.485,15.663,2.587,5.865,2.301,15.674,2.445,0.0,11.73,-5.865
4.8950000000000005,2.06,15.28,-3.114,-11.73,-1.677,15.711,2.635,0.0,2.301,15.387,2.445,0.0,5.865,0.0
4.9,2.108,14.897,-3.018,-17.595,-1.724,15.472,2.587,-5.865,2.445,15.099,2.445,0.0,11.73,5.865
4.905,2.06,14.274,-2.922,-23.46,-1.772,14.993,2.443,-11.73,2.445,14.668,2.301,-5.865,11.73,17.595
4.91,1.964,13.556,-2.922,-35.191,-1.677,14.322,2.395,-23.46,2.445,13.949,2.301,-5.865,11.73,23.46
4.915,1.916,12.789,-2.874,-41.056,-1.629,13.556,2.395,-29.326,2.301,13.373,2.301,-11.73,11.73,29.326
4.92,1.868,11.975,-2.826,-41.056,-1.581,12.646,2.347,-35.191,2.301,12.654,2.157,-17.595,11.73,35.191
4.925,1.868,11.161,-2.73,-46.921,-1.581,11.783,2.347,-41.056,2.301,11.935,2.157,-17.595,11.73,41.056
4.93,1.772,10.538,-2.682,-46.921,-1.581,11.017,2.251,-41.056,2.157,11.216,2.013,-17.595,17.595,41.056
4.9350000000000005,1.724,10.155,-2.539,-52.786,-1.533,10.538,2.156,-46.921,2.013,10.641,2.013,-17.595,17.595,46.921
4.94,1.677,9.867,-2.347,-46.921,-1.533,10.155,2.012,-46.921,2.013,10.21,1.869,-17.595,17.595,46.921
4.945,1.629,9.772,-2.108,-46.921,-1.437,10.011,1.772,-46.921,2.013,9.922,1.582,-17.595,17.595,46.921
4.95,1.581,9.772,-1.964,-46.921,-1.341,9.963,1.629,-46.921,2.013,9.922,1.438,-17.595,17.595,46.921
4.955,1.581,9.772,-1.82,-46.921,-1.293,10.011,1.437,-46.921,2.013,9.778,1.294,-23.46,17.595,41.056
4.96,1.485,9.772,-1.82,-46.921,-1.198,10.011,1.389,-46.921,1.869,9.922,1.15,-23.46,17.595,46.921
4.965,1.389,9.772,-1.772,-52.786,-1.054,9.963,1.389,-46.921,1.869,9.922,1.15,-23.46,17.595,46.921
4.97,1.389,9.772,-1.724,-52.786,-1.006,9.915,1.341,-46.921,1.869,9.922,1.15,-23.46,17.595,46.921
4.9750000000000005,1.389,9.724,-1.677,-52.786,-1.054,9.915,1.293,-46.921,1.869,9.922,1.007,-29.326,17.595,46.921
4.98,1.341,9.628,-1.629,-52.786,-0.958,9.772,1.245,-46.921,1.869,9.922,1.007,-29.326,17.595,46.921
4.985,1.293,9.532,-1.533,-52.786,-0.91,9.724,1.15,-46.921,1.726,9.778,1.007,-29.326,11.73,46.921
4.99,1.293,9.341,-1.293,-52.786,-0.91,9.628,1.006,-46.921,1.726,9.635,0.863,-29.326,11.73,46.921
4.995,1.293,9.005,-1.15,-58.651,-0.91,9.341,0.814,-52.786,1.726,9.491,0.575,-29.326,5.865,52.786
5.0,1.245,8.622,-1.15,-58.651,-0.862,9.005,0.719,-52.786,1.869,9.059,0.575,-29.326,5.865,52.786
5.005,1.198,8.287,-1.15,-58.651,-0.766,8.622,0.719,-52.786,1.726,8.772,0.431,-29.326,5.865,52.786
5.01,1.245,7.951,-1.15,-58.651,-0.814,8.191,0.719,-52.786,1.726,8.484,0.431,-29.326,0.0,52.786
5.015,1.389,7.52,-1.198,-52.786,-0.91,7.808,0.766,-52.786,1.869,8.053,0.575,-29.326,0.0,52.786
5.0200000000000005,1.485,7.137,-1.245,-52.786,-1.054,7.377,0.814,-52.786,2.013,7.765,0.575,-29.326,-5.865,52.786
5.025,1.629,6.706,-1.245,-52.786,-1.245,6.946,0.862,-46.921,2.013,7.334,0.575,-29.326,-5.865,46.921
5.03,1.724,6.275,-1.389,-52.786,-1.389,6.419,0.91,-46.921,2.157,7.046,0.575,-23.46,-11.73,46.921
5.035,1.772,5.748,-1.485,-46.921,-1.437,5.844,1.054,-46.921,2.301,6.615,0.863,-23.46,-11.73,46.921
5.04,1.916,5.173,-1.533,-46.921,-1.629,5.221,1.198,-46.921,2.301,6.183,0.863,-17.595,-17.595,46.921
5.045,2.108,4.598,-1.533,-46.921,-1.868,4.598,1.198,-46.921,2.445,5.608,0.863,-17.595,-17.595,46.921
5.05,2.251,4.119,-1.485,-46.921,-2.108,4.072,1.15,-46.921,2.588,5.033,0.863,-11.73,-17.595,41.056
5.055,2.203,3.64,-1.533,-46.921,-2.156,3.688,1.15,-41.056,2.588,4.602,0.863,-5.865,-23.46,41.056
5.0600000000000005,2.156,3.114,-1.581,-41.056,-2.108,3.209,1.198,-41.056,2.588,4.026,0.863,0.0,-23.46,41.056
5.065,2.156,2.491,-1.581,-41.056,-2.156,2.682,1.245,-35.191,2.445,3.307,0.863,5.865,-23.46,35.191
5.07,2.156,1.916,-1.581,-35.191,-2.251,2.108,1.245,-35.191,2.445,2.732,0.863,5.865,-23.46,35.191
5.075,2.108,1.341,-1.724,-29.326,-2.251,1.581,1.293,-29.326,2.445,2.157,1.007,5.865,-23.46,29.326
5.08,2.156,0.719,-1.916,-17.595,-2.251,1.054,1.485,-17.595,2.301,1.438,1.15,5.865,-17.595,23.46
5.085,2.203,0.096,-2.06,-11.73,-2.443,0.383,1.677,-11.73,2.301,0.863,1.294,17.595,-17.595,17.595
5.09,2.156,-0.671,-2.108,-0.0,-2.491,-0.287,1.82,-5.865,2.301,0.144,1.438,17.595,-17.595,5.865
5.095,2.156,-1.581,-2.108,11.73,-2.539,-1.054,1.772,5.865,2.013,-0.719,1.438,17.595,-11.73,-5.865
5.1000000000000005,2.156,-2.203,-2.203,23.46,-2.682,-1.868,1.82,23.46,2.013,-1.726,1.438,17.595,-11.73,-17.595
5.105,2.06,-2.347,-2.251,35.191,-2.635,-2.347,1.964,35.191,2.013,-2.157,1.582,23.46,-5.865,-29.326
5.11,1.868,-2.012,-2.395,52.786,-2.443,-2.347,2.06,52.786,1.869,-2.013,1.582,23.46,0.0,-46.921
5.115,1.724,-1.341,-2.299,70.381,-2.108,-1.82,2.108,64.516,1.726,-1.582,1.726,23.46,5.865,-58.651
5.12,1.581,-0.431,-2.108,82.111,-1.868,-1.102,1.916,82.111,1.726,-0.863,1.582,23.46,17.595,-76.246
5.125,1.581,0.479,-1.868,93.842,-1.677,-0.048,1.677,93.842,1.726,0.0,1.438,29.326,17.595,-93.842
5.13,1.677,1.389,-1.533,99.707,-1.724,0.91,1.389,105.572,1.869,0.863,1.15,29.326,23.46,-105.572
5.135,1.772,2.156,-1.533,105.572,-1.772,1.916,1.15,111.437,1.869,1.726,0.863,29.326,23.46,-105.572
5.14,1.677,2.635,-1.772,99.707,-1.772,2.491,1.293,111.437,2.013,2.301,0.863,29.326,23.46,-111.437
5.1450000000000005,1.916,9.58,-1.054,99.707,-1.629,2.826,1.581,105.572,1.869,2.876,1.294,29.326,23.46,-105.572
5.15,6.993,5.221,5.652,99.707,-8.622,23.232,-16.765,105.572,8.628,48.173,-12.511,23.46,23.46,-105.572
5.155,-3.497,9.053,-2.108,64.516,3.976,7.377,0.958,87.977,11.792,7.19,-0.288,-17.595,41.056,-87.977
5.16,1.916,12.071,-2.682,11.73,1.868,4.742,1.581,41.056,-3.739,13.805,1.007,5.865,0.0,-52.786
5.165,3.401,12.741,-2.06,41.056,-1.389,10.634,2.587,17.595,4.745,16.825,2.301,52.786,-29.326,-11.73
5.17,4.072,12.741,0.335,82.111,-4.503,13.556,0.048,70.381,3.451,11.648,0.431,105.572,-35.191,-64.516
5.175,5.03,14.801,0.144,70.381,-5.269,14.322,-0.862,87.977,3.307,12.654,-1.294,117.302,-35.191,-93.842
5.18,4.359,15.424,0.048,46.921,-4.838,15.951,-0.575,64.516,5.177,14.236,-0.863,105.572,-23.46,-70.381
5.1850000000000005,2.682,15.472,0.335,29.326,-3.497,16.957,-0.719,41.056,3.883,14.236,-0.863,99.707,-11.73,-46.921
5.19,2.778,14.801,0.383,11.73,-2.251,16.765,-0.958,23.46,2.732,13.661,-1.15,82.111,-5.865,-23.46
5.195,3.353,14.035,0.048,-0.0,-2.73,15.999,-0.766,11.73,3.307,13.086,-1.007,58.651,0.0,-11.73
5.2,3.401,13.173,-0.623,-5.865,-3.305,14.993,-0.287,5.865,3.595,12.367,-0.575,35.191,0.0,0.0
5.205,3.593,12.454,-1.293,-11.73,-3.401,14.035,0.431,0.0,3.451,11.648,0.144,5.865,5.865,0.0
5.21,3.688,11.879,-1.82,-11.73,-3.688,12.981,1.006,-5.865,3.595,11.504,0.719,-11.73,11.73,5.865
5.215,3.688,11.304,-2.299,-17.595,-3.736,12.023,1.581,-5.865,3.739,11.36,1.294,-23.46,17.595,11.73
5.22,3.593,10.778,-2.587,-17.595,-3.593,11.113,2.012,-11.73,3.883,11.36,1.726,-35.191,23.46,11.73
5.2250000000000005,3.545,10.251,-2.682,-17.595,-3.497,10.346,2.203,-17.595,3.883,11.073,1.869,-35.191,29.326,17.595
5.23,3.257,9.82,-2.682,-17.595,-3.257,9.82,2.299,-11.73,3.883,10.785,2.013,-35.191,29.326,17.595
5.235,3.114,9.724,-2.395,-17.595,-2.97,9.484,2.108,-11.73,3.595,10.354,2.013,-29.326,29.326,11.73
5.24,2.97,9.772,-2.156,-11.73,-2.778,9.484,1.82,-5.865,3.595,10.354,1.726,-23.46,29.326,11.73
5.245,2.826,9.915,-1.916,-11.73,-2.539,9.772,1.581,-5.865,3.595,10.21,1.438,-23.46,29.326,11.73
5.25,2.682,9.915,-1.677,-11.73,-2.443,10.011,1.389,-5.865,3.307,10.21,1.294,-17.595,29.326,5.865
5.255,2.587,10.059,-1.293,-5.865,-2.347,10.107,1.054,0.0,3.02,9.922,0.863,-17.595,23.46,0.0
5.26,2.682,10.346,-1.102,-0.0,-2.299,10.299,0.766,0.0,3.164,10.21,0.575,-17.595,23.46,0.0
5.265,2.635,10.682,-0.862,-5.865,-2.347,10.682,0.527,5.865,3.164,10.641,0.431,-17.595,23.46,0.0
5.2700000000000005,2.539,10.825,-0.671,-5.865,-2.299,10.921,0.287,0.0,3.164,10.929,0.144,-17.595,23.46,0.0
5.275,2.443,10.682,-0.431,-5.865,-2.203,10.921,0.096,0.0,2.876,10.929,-0.144,-23.46,23.46,0.0
5.28,2.443,10.538,-0.24,-5.865,-2.203,10.634,-0.096,0.0,2.876,10.929,-0.288,-23.46,23.46,0.0
5.285,2.395,10.442,-0.144,-5.865,-2.156,10.442,-0.287,0.0,2.876,10.929,-0.575,-23.46,23.46,5.865
5.29,2.443,10.346,-0.192,-5.865,-2.06,10.251,-0.287,0.0,2.876,10.929,-0.575,-23.46,23.46,0.0
5.295,2.443,10.251,-0.24,-11.73,-2.108,10.107,-0.24,0.0,2.876,10.785,-0.431,-17.595,17.595,5.865
5.3,2.539,10.203,-0.335,-11.73,-2.156,9.963,-0.192,-5.865,3.02,10.785,-0.431,-17.595,17.595,5.865
5.305,2.587,10.203,-0.479,-11.73,-2.251,9.915,-0.048,-5.865,3.164,10.785,-0.288,-11.73,17.595,5.865
5.3100000000000005,2.682,10.203,-0.671,-11.73,-2.299,9.915,0.144,-5.865,3.164,10.785,-0.144,-5.865,17.595,5.865
5.315,2.826,10.251,-0.862,-17.595,-2.395,9.915,0.287,-11.73,3.164,10.785,-0.0,0.0,17.595,11.73
5.32,2.874,10.394,-1.054,-17.595,-2.539,10.059,0.479,-11.73,3.307,10.785,0.144,5.865,11.73,11.73
5.325,2.922,10.586,-1.293,-17.595,-2.587,10.346,0.719,-11.73,3.307,10.929,0.431,5.865,11.73,11.73
5.33,2.97,10.682,-1.581,-23.46,-2.682,10.49,0.958,-17.595,3.307,11.073,0.719,17.595,11.73,17.595
5.335,2.97,10.634,-1.677,-23.46,-2.73,10.634,1.198,-17.595,3.451,11.073,1.007,23.46,11.73,17.595
5.34,3.018,10.586,-1.868,-23.46,-2.826,10.682,1.293,-17.595,3.307,10.785,1.007,23.46,11.73,23.46
5.345,3.018,10.49,-2.012,-29.326,-2.922,10.73,1.485,-17.595,3.307,10.641,1.294,23.46,11.73,23.46
5.3500000000000005,3.018,10.346,-2.108,-29.326,-2.922,10.73,1.581,-23.46,3.307,10.497,1.294,23.46,11.73,23.46
5.355,2.97,10.203,-2.251,-23.46,-2.874,10.586,1.724,-17.595,3.307,10.21,1.438,23.46,17.595,23.46
5.36,2.97,10.011,-2.347,-23.46,-2.874,10.442,1.868,-17.595,3.307,10.066,1.582,17.595,17.595,23.46
5.365,2.97,9.867,-2.395,-17.595,-2.874,10.203,1.964,-17.595,3.307,9.922,1.726,5.865,17.595,17.595
5.37,2.97,9.82,-2.347,-11.73,-2.874,10.011,1.916,-11.73,3.164,9.922,1.726,5.865,23.46,11.73
5.375,2.97,9.915,-2.443,-11.73,-2.826,10.011,1.964,-5.865,3.307,9.922,1.726,5.865,23.46,11.73
5.38,2.97,10.059,-2.491,-5.865,-2.826,10.059,2.012,0.0,3.307,10.066,1.869,5.865,29.326,5.865
5.385,2.922,10.299,-2.587,-0.0,-2.778,10.155,2.06,5.865,3.307,10.354,1.869,5.865,29.326,0.0
5.39,2.874,10.538,-2.682,-0.0,-2.73,10.346,2.156,5.865,3.307,10.785,2.013,5.865,29.326,-5.865
5.3950000000000005,2.826,10.825,-2.874,-0.0,-2.635,10.586,2.347,5.865,3.164,11.073,2.157,5.865,29.326,-5.865
5.4,2.73,11.113,-3.066,-0.0,-2.539,10.825,2.539,11.73,3.164,11.36,2.301,5.865,29.326,-5.865
5.405,2.635,11.4,-3.209,5.865,-2.443,11.161,2.682,11.73,3.02,11.648,2.445,5.865,29.326,-11.73
5.41,2.587,11.736,-3.305,5.865,-2.395,11.544,2.826,11.73,3.02,11.935,2.588,17.595,35.191,-5.865
5.415,2.539,12.023,-3.401,-0.0,-2.251,11.927,2.874,11.73,2.876,12.223,2.732,23.46,35.191,-5.865
5.42,2.491,12.119,-3.401,-0.0,-2.203,12.167,2.922,5.865,2.876,12.367,2.732,23.46,35.191,-5.865
5.425,2.539,12.119,-3.449,-0.0,-2.203,12.262,2.97,5.865,2.876,12.367,2.732,23.46,35.191,-5.865
5.43,2.491,11.975,-3.497,-0.0,-2.203,12.215,3.018,5.865,2.876,12.223,2.732,23.46,35.191,-5.865
5.4350000000000005,2.443,11.736,-3.593,-5.865,-2.203,12.071,3.114,0.0,2.876,12.079,2.876,23.46,35.191,0.0
5.44,2.443,11.4,-3.64,-5.865,-2.203,11.831,3.161,0.0,2.876,11.792,3.02,23.46,35.191,0.0
5.445,2.395,11.017,-3.736,-5.865,-2.251,11.496,3.209,0.0,2.732,11.36,3.02,23.46,35.191,0.0
5.45,2.395,10.682,-3.784,-5.865,-2.251,11.161,3.305,0.0,2.732,10.929,3.02,23.46,35.191,0.0
5.455,2.395,10.346,-3.784,-5.865,-2.203,10.778,3.353,0.0,2.588,10.641,3.164,17.595,41.056,0.0
5.46,2.395,9.963,-3.784,-5.865,-2.203,10.346,3.305,0.0,2.732,10.354,3.164,17.595,41.056,0.0
5.465,2.347,9.58,-3.784,-5.865,-2.203,9.915,3.353,0.0,2.732,10.066,3.164,5.865,41.056,0.0
5.47,2.299,9.197,-3.784,-0.0,-2.156,9.484,3.353,5.865,2.588,9.635,3.164,5.865,41.056,0.0
5.4750000000000005,2.299,8.862,-3.736,-0.0,-2.156,9.101,3.353,5.865,2.732,9.347,3.164,5.865,41.056,-5.865
5.48,2.203,8.526,-3.688,-0.0,-2.108,8.766,3.305,5.865,2.588,9.059,3.164,5.865,46.921,-5.865
5.485,2.203,8.287,-3.736,-0.0,-2.06,8.526,3.305,5.865,2.588,8.628,3.02,5.865,46.921,-5.865
5.49,2.156,7.999,-3.64,-0.0,-2.012,8.287,3.257,11.73,2.588,8.484,3.02,5.865,46.921,-5.865
5.495,2.156,7.76,-3.688,5.865,-1.964,7.904,3.257,11.73,2.445,8.197,3.02,17.595,46.921,-5.865
5.5,2.156,7.616,-3.688,5.865,-2.012,7.712,3.305,11.73,2.445,8.053,3.02,17.595,46.921,-5.865
5.505,2.156,7.52,-3.688,5.865,-2.06,7.616,3.305,11.73,2.445,7.909,3.02,17.595,46.921,-11.73
5.51,2.156,7.425,-3.688,5.865,-2.06,7.52,3.305,11.73,2.445,7.765,3.02,17.595,46.921,-11.73
5.515,2.108,7.377,-3.64,5.865,-2.06,7.425,3.257,11.73,2.445,7.765,3.02,23.46,46.921,-11.73
5.5200000000000005,2.108,7.377,-3.64,5.865,-2.012,7.377,3.257,11.73,2.445,7.621,3.02,23.46,52.786,-11.73
5.525,2.06,7.377,-3.64,5.865,-2.012,7.329,3.257,11.73,2.301,7.621,3.02,23.46,52.786,-11.73
5.53,2.06,7.472,-3.736,-0.0,-2.012,7.425,3.305,11.73,2.301,7.765,3.02,23.46,52.786,-11.73
5.535,2.06,7.664,-3.832,5.865,-2.06,7.568,3.401,11.73,2.301,7.765,3.02,29.326,52.786,-11.73
5.54,2.108,7.904,-3.928,-0.0,-2.108,7.76,3.497,11.73,2.301,8.053,3.164,29.326,58.651,-5.865
5.545,2.203,8.335,-4.119,-0.0,-2.251,8.095,3.593,11.73,2.157,8.34,3.307,29.326,58.651,-5.865
5.55,2.299,8.67,-3.976,-0.0,-2.395,8.478,3.64,11.73,2.301,8.772,3.451,35.191,64.516,-5.865
5.555,2.395,8.957,-3.688,-0.0,-2.491,8.814,3.497,5.865,2.301,9.059,3.307,35.191,70.381,-5.865
5.5600000000000005,2.299,9.149,-3.305,-5.865,-2.539,9.005,3.018,5.865,2.445,9.347,2.876,41.056,76.246,-5.865
5.565,1.916,9.005,-3.353,-5.865,-1.82,8.526,3.497,0.0,2.157,10.21,3.02,41.056,76.246,0.0
5.57,1.82,9.005,-2.156,-5.865,-1.629,8.909,2.395,0.0,2.445,9.491,2.445,46.921,82.111,0.0
5.575,1.245,8.814,-2.203,-5.865,-0.24,8.047,2.682,0.0,2.588,10.066,1.869,52.786,82.111,5.865
5.58,1.581,8.909,-0.958,-5.865,-1.245,8.766,1.198,0.0,1.726,9.491,1.294,58.651,76.246,0.0
5.585,1.677,9.053,0.096,-5.865,-1.437,9.436,0.0,5.865,2.013,8.772,-0.144,64.516,76.246,0.0
5.59,1.341,9.197,0.719,-5.865,-1.198,9.58,-0.814,5.865,2.013,8.772,-1.007,64.516,76.246,0.0
5.595,1.102,9.293,1.198,-11.73,-0.719,9.628,-1.341,0.0,1.869,8.916,-1.582,58.651,70.381,0.0
5.6000000000000005,0.91,9.341,1.772,-11.73,-0.335,9.676,-1.868,-5.865,1.726,9.203,-2.013,52.786,70.381,5.865
5.605,0.958,9.388,2.491,-11.73,-0.192,9.676,-2.587,-5.865,1.726,9.347,-2.732,46.921,64.516,5.865
5.61,1.006,9.436,3.257,-11.73,-0.192,9.772,-3.353,-5.865,1.869,9.347,-3.451,46.921,58.651,5.865
5.615,1.006,9.484,3.88,-11.73,-0.192,9.772,-4.024,-5.865,1.869,9.347,-4.17,41.056,52.786,5.865
5.62,1.006,9.388,4.407,-11.73,-0.096,9.724,-4.598,-5.865,2.013,9.347,-4.745,35.191,46.921,5.865
5.625,0.91,9.293,4.79,-11.73,0.048,9.484,-5.077,-5.865,2.157,9.347,-5.321,29.326,35.191,5.865
5.63,0.862,9.149,5.077,-17.595,0.192,9.293,-5.413,-11.73,2.157,9.491,-5.608,29.326,23.46,11.73
5.635,0.91,9.053,5.173,-23.46,0.192,9.101,-5.652,-11.73,2.157,9.347,-5.896,29.326,11.73,17.595
5.64,0.91,8.909,5.269,-23.46,0.144,8.957,-5.7,-17.595,2.157,9.347,-5.896,29.326,0.0,17.595
5.6450000000000005,0.91,8.766,5.221,-23.46,0.192,8.766,-5.748,-17.595,2.301,9.203,-6.04,29.326,-11.73,23.46
5.65,1.102,8.67,5.125,-29.326,0.048,8.766,-5.652,-23.46,2.157,9.059,-5.896,29.326,-29.326,23.46
5.655,1.006,8.383,4.886,-29.326,-0.144,8.526,-5.509,-23.46,2.445,8.772,-5.896,29.326,-41.056,23.46
5.66,1.006,8.143,4.503,-29.326,-0.048,8.335,-5.173,-29.326,2.013,8.484,-5.608,29.326,-52.786,29.326
5.665,1.15,7.999,4.167,-29.326,-0.192,8.143,-4.79,-29.326,2.013,8.197,-5.177,29.326,-64.516,23.46
5.67,1.293,7.999,3.736,-35.191,-0.431,8.191,-4.407,-29.326,2.157,8.053,-4.889,29.326,-76.246,29.326
5.675,1.485,7.951,3.161,-35.191,-0.719,8.335,-3.928,-29.326,2.157,7.909,-4.314,23.46,-82.111,29.326
5.68,1.437,7.856,2.539,-35.191,-0.91,8.287,-3.305,-29.326,2.157,7.765,-3.739,23.46,-93.842,29.326
5.6850000000000005,1.533,7.712,1.724,-29.326,-0.958,8.143,-2.587,-23.46,2.157,7.621,-3.164,17.595,-99.707,23.46
5.69,1.82,7.712,0.91,-23.46,-1.198,8.095,-1.772,-23.46,2.301,7.478,-2.301,5.865,-99.707,23.46
5.695,2.06,7.76,-0.096,-23.46,-1.581,8.047,-0.862,-17.595,2.445,7.621,-1.438,5.865,-105.572,17.595
5.7,2.251,7.808,-1.198,-17.595,-1.868,8.047,0.24,-17.595,2.588,7.765,-0.431,0.0,-111.437,17.595
5.705,2.491,7.856,-2.299,-17.595,-2.203,7.999,1.341,-17.595,2.732,7.909,0.719,-5.865,-111.437,17.595
5.71,2.73,7.951,-3.401,-17.595,-2.539,7.951,2.443,-11.73,2.876,8.053,1.869,-5.865,-111.437,11.73
5.715,3.066,8.047,-4.455,-11.73,-3.018,7.999,3.545,-5.865,3.02,8.197,3.02,-5.865,-111.437,5.865
5.72,3.305,8.095,-5.413,-5.865,-3.401,8.047,4.551,-5.865,3.164,8.34,4.026,-5.865,-105.572,5.865
5.7250000000000005,3.257,8.383,-6.227,-5.865,-3.688,8.143,5.461,0.0,3.164,8.484,4.889,-5.865,-105.572,5.865
5.73,3.497,8.287,-6.898,-5.865,-3.832,8.287,6.179,0.0,3.307,8.628,5.608,-5.865,-93.842,0.0
5.735,3.305,8.574,-7.856,-0.0,-3.784,8.478,6.898,0.0,3.164,8.628,6.327,0.0,-87.977,0.0
5.74,3.64,9.101,-8.287,-0.0,-3.88,9.053,7.712,5.865,3.164,8.772,7.334,0.0,-82.111,-5.865
5.745,3.688,9.628,-8.814,-0.0,-4.215,9.58,8.191,5.865,3.307,9.203,7.765,0.0,-70.381,-5.865
5.75,3.736,10.059,-9.293,-0.0,-4.311,10.203,8.622,5.865,3.307,9.635,8.34,0.0,-64.516,-5.865
5.755,3.736,10.442,-9.532,-0.0,-4.407,10.634,9.005,5.865,3.164,9.922,8.772,-5.865,-46.921,-5.865
5.76,3.688,10.778,-9.388,-0.0,-4.311,11.352,9.005,5.865,3.307,10.21,8.916,-5.865,-35.191,-5.865
5.765,3.545,10.634,-9.772,-0.0,-4.503,11.017,9.005,5.865,3.02,10.497,8.772,-17.595,-23.46,-5.865
5.7700000000000005,3.784,10.778,-9.963,-0.0,-4.167,11.209,9.532,5.865,3.02,10.497,9.347,-17.595,-5.865,-5.865
5.775,3.88,10.921,-9.915,-0.0,-4.598,11.065,9.484,5.865,3.164,10.785,9.347,-23.46,5.865,-5.865
5.78,3.784,11.017,-9.867,-0.0,-4.551,11.209,9.436,5.865,3.307,11.073,9.347,-29.326,23.46,-5.865
5.785,3.64,11.113,-9.82,-0.0,-4.455,11.257,9.436,5.865,3.02,11.216,9.347,-29.326,35.191,-5.865
5.79,3.64,11.161,-9.484,-5.865,-4.263,11.209,9.245,5.865,3.02,11.36,9.059,-29.326,52.786,0.0
5.795,3.593,11.065,-9.053,-5.865,-4.263,11.065,8.909,0.0,3.02,11.504,8.772,-29.326,64.516,0.0
5.8,3.449,11.161,-8.718,-11.73,-4.119,11.113,8.526,0.0,3.02,11.504,8.34,-29.326,82.111,5.865
5.805,3.114,11.161,-8.383,-17.595,-3.832,11.065,8.191,-5.865,2.876,11.648,7.909,-29.326,93.842,11.73
5.8100000000000005,2.922,11.113,-8.047,-17.595,-3.497,11.017,7.904,-5.865,2.588,11.792,7.621,-23.46,111.437,11.73
5.815,2.97,11.017,-7.52,-17.595,-3.305,10.873,7.472,-5.865,2.588,11.792,7.19,-17.595,123.167,11.73
5.82,2.826,10.825,-6.754,-17.595,-3.209,10.778,6.85,-11.73,2.732,11.648,6.615,-11.73,129.032,11.73
5.825,2.635,10.394,-5.7,-23.46,-2.922,10.538,5.94,-11.73,2.732,11.216,5.752,-5.865,140.762,11.73
5.83,2.203,9.915,-4.407,-23.46,-2.347,10.203,4.742,-11.73,2.732,10.641,4.602,0.0,146.628,17.595
5.835,1.677,9.341,-2.874,-23.46,-1.581,9.724,3.353,-17.595,2.588,10.066,3.307,0.0,152.493,17.595
5.84,1.15,8.67,-1.198,-23.46,-0.623,9.197,1.772,-17.595,2.588,9.347,1.726,5.865,152.493,23.46
5.845,0.623,8.143,0.335,-23.46,0.24,8.766,0.096,-17.595,2.301,8.484,-0.0,5.865,146.628,23.46
5.8500000000000005,0.479,7.856,1.677,-11.73,0.719,8.574,-1.341,-11.73,2.013,7.765,-1.438,0.0,134.897,11.73
5.855,0.575,7.712,2.874,-0.0,0.766,8.478,-2.682,0.0,2.013,7.334,-2.732,-5.865,117.302,5.865
5.86,0.719,7.76,3.449,11.73,0.575,8.383,-3.64,11.73,2.157,7.19,-3.739,-11.73,105.572,-5.865
5.865,0.958,7.951,3.593,23.46,0.287,8.478,-4.024,23.46,2.157,7.334,-4.314,-23.46,87.977,-17.595
5.87,1.15,8.383,3.497,35.191,0.0,8.526,-4.024,35.191,2.301,7.765,-4.314,-35.191,76.246,-29.326
5.875,1.437,8.909,3.257,35.191,-0.383,8.766,-3.88,41.056,2.445,8.484,-4.17,-41.056,58.651,-41.056
5.88,1.485,9.388,3.018,41.056,-0.623,9.053,-3.64,46.921,2.588,9.347,-4.026,-46.921,46.921,-41.056
5.885,1.389,9.82,2.826,41.056,-0.527,9.245,-3.401,46.921,2.588,10.21,-3.739,-46.921,41.056,-41.056
5.89,1.245,10.059,2.682,41.056,-0.287,9.341,-3.209,46.921,2.588,10.785,-3.451,-41.056,29.326,-46.921
5.8950000000000005,1.15,10.251,2.587,35.191,-0.048,9.436,-3.114,46.921,2.588,11.36,-3.451,-35.191,17.595,-46.921
5.9,0.862,10.538,2.491,41.056,0.144,9.628,-3.018,41.056,2.445,11.504,-3.307,-23.46,0.0,-46.921
5.905,0.671,10.921,2.251,41.056,0.383,9.915,-2.874,41.056,2.157,11.792,-3.164,-11.73,-11.73,-41.056
5.91,0.575,11.592,1.724,35.191,0.719,10.394,-2.491,41.056,2.157,12.367,-2.876,5.865,-23.46,-41.056
5.915,0.575,12.598,1.054,35.191,0.719,11.257,-1.868,41.056,2.157,13.23,-2.301,17.595,-41.056,-41.056
5.92,0.719,13.508,0.287,35.191,0.575,12.358,-1.15,41.056,2.013,14.092,-1.582,35.191,-52.786,-41.056
5.925,0.958,14.514,-0.527,29.326,0.287,13.556,-0.335,35.191,2.013,14.668,-0.863,46.921,-70.381,-35.191
5.93,1.054,15.184,-1.293,23.46,0.0,14.657,0.479,29.326,2.013,15.387,-0.0,58.651,-82.111,-29.326
5.9350000000000005,1.389,15.232,-2.06,11.73,-0.287,15.328,1.198,23.46,2.157,15.674,0.719,64.516,-93.842,-23.46
5.94,1.581,14.705,-2.682,-0.0,-0.91,15.376,1.916,11.73,2.157,15.243,1.438,70.381,-99.707,-11.73
5.945,1.868,13.795,-3.161,-5.865,-1.485,14.993,2.491,0.0,1.869,14.236,2.013,70.381,-105.572,-5.865
5.95,1.964,12.694,-3.593,-17.595,-1.964,14.178,2.922,-5.865,1.869,12.942,2.588,64.516,-105.572,5.865
5.955,1.868,11.544,-3.976,-23.46,-2.156,13.22,3.353,-11.73,1.582,11.504,3.02,52.786,-105.572,11.73
5.96,1.724,10.442,-4.215,-23.46,-2.156,12.167,3.688,-17.595,1.438,10.354,3.307,41.056,-93.842,17.595
5.965,1.581,9.436,-4.263,-23.46,-2.06,11.017,3.832,-17.595,1.15,9.203,3.595,29.326,-82.111,23.46
5.97,1.533,8.574,-4.215,-17.595,-1.964,9.915,3.832,-17.595,1.15,8.484,3.595,5.865,-76.246,17.595
5.9750000000000005,1.485,7.999,-4.024,-11.73,-1.868,9.053,3.736,-11.73,1.15,7.765,3.451,-5.865,-64.516,11.73
5.98,1.006,7.951,-3.497,-5.865,-1.772,8.43,3.497,-5.865,1.15,7.478,3.307,-17.595,-52.786,5.865
5.985,1.198,7.089,-3.305,-0.0,-1.677,7.664,3.114,0.0,1.007,7.334,2.732,-23.46,-41.056,0.0
5.99,1.293,6.898,-3.209,5.865,-1.245,7.377,2.826,5.865,1.15,7.19,2.588,-29.326,-35.191,-5.865
5.995,1.389,6.946,-2.922,5.865,-1.389,6.85,2.682,11.73,1.438,7.19,2.588,-35.191,-29.326,-11.73
6.0,1.102,6.946,-2.682,-0.0,-1.102,6.802,2.491,11.73,1.582,7.478,2.301,-35.191,-29.326,-11.73
6.005,0.91,7.329,-2.395,-0.0,-0.623,6.85,2.251,5.865,1.438,7.621,2.013,-29.326,-23.46,-5.865
6.01,0.719,6.61,-2.443,-0.0,-1.006,6.562,1.964,5.865,1.15,7.765,1.726,-29.326,-23.46,-5.865
6.015000000000001,0.335,6.419,-2.682,-0.0,0.048,6.035,2.299,5.865,1.15,7.621,2.013,-23.46,-23.46,-5.865
6.0200000000000005,0.383,6.467,-2.539,5.865,0.0,5.892,2.251,5.865,1.007,7.334,2.013,-11.73,-29.326,-5.865
6.025,0.671,10.825,-2.06,5.865,0.048,6.993,2.108,11.73,0.719,7.621,1.869,0.0,-29.326,-11.73
6.03,2.682,11.927,-0.431,-0.0,-1.533,16.621,-0.096,11.73,1.438,14.811,0.288,5.865,-35.191,-11.73
6.035,0.287,7.904,-1.533,-17.595,0.096,8.718,0.479,0.0,4.602,11.216,0.144,5.865,-35.191,0.0
6.04,-1.341,7.951,-2.251,-23.46,0.814,7.712,1.437,-17.595,-0.719,8.053,0.863,29.326,-41.056,17.595
6.045,0.096,9.58,-2.635,-17.595,1.533,8.095,2.203,-17.595,-0.431,9.347,1.726,29.326,-46.921,23.46
6.05,1.102,9.724,-1.964,-11.73,0.048,9.915,2.012,-11.73,1.438,10.497,1.869,35.191,-52.786,11.73
6.055,0.91,9.676,-1.916,-5.865,-0.862,10.155,1.437,-5.865,1.438,9.347,1.294,41.056,-58.651,5.865
6.0600000000000005,0.862,9.963,-2.539,-11.73,-0.575,10.251,1.724,-5.865,1.15,9.491,1.438,41.056,-64.516,5.865
6.065,1.006,9.82,-3.114,-17.595,-0.527,10.155,2.443,-11.73,1.438,10.066,2.013,35.191,-64.516,11.73
6.07,1.102,9.58,-3.353,-23.46,-0.719,10.011,2.826,-17.595,1.438,9.778,2.588,29.326,-64.516,17.595
6.075,1.437,9.197,-3.401,-17.595,-1.054,9.772,2.97,-17.595,1.438,9.491,2.732,29.326,-64.516,17.595
6.08,1.677,8.909,-3.497,-17.595,-1.485,9.484,3.018,-17.595,1.726,8.916,2.732,29.326,-64.516,11.73
6.085,1.868,8.718,-3.593,-17.595,-1.772,9.293,3.114,-11.73,1.869,8.628,2.876,23.46,-64.516,11.73
6.09,2.012,8.574,-3.688,-23.46,-1.964,9.149,3.209,-17.595,2.013,8.484,3.02,17.595,-58.651,17.595
6.095,2.203,8.43,-3.64,-23.46,-2.108,8.909,3.257,-17.595,2.157,8.34,3.02,5.865,-58.651,17.595
6.1000000000000005,2.395,8.239,-3.545,-23.46,-2.299,8.718,3.209,-17.595,2.445,8.197,3.02,5.865,-52.786,17.595
6.105,2.539,8.095,-3.401,-23.46,-2.443,8.526,3.066,-17.595,2.588,8.053,2.876,0.0,-52.786,17.595
6.11,2.587,7.999,-3.209,-23.46,-2.587,8.383,2.97,-17.595,2.732,7.909,2.732,0.0,-46.921,17.595
6.115,2.73,7.76,-3.114,-23.46,-2.73,8.287,2.778,-17.595,2.876,7.909,2.588,-5.865,-46.921,23.46
6.12,2.778,7.52,-3.018,-23.46,-2.73,7.856,2.73,-17.595,2.876,7.765,2.445,-11.73,-41.056,23.46
6.125,2.73,7.281,-2.778,-23.46,-2.73,7.568,2.491,-17.595,3.02,7.478,2.301,-11.73,-35.191,23.46
6.13,2.778,7.089,-2.587,-23.46,-2.73,7.281,2.251,-17.595,3.02,7.334,2.013,-17.595,-35.191,23.46
6.135,2.778,7.041,-2.395,-23.46,-2.73,7.089,2.108,-23.46,3.02,7.334,1.869,-17.595,-35.191,23.46
6.140000000000001,2.874,6.993,-2.299,-23.46,-2.826,6.946,1.964,-17.595,3.02,7.334,1.726,-17.595,-29.326,23.46
6.1450000000000005,2.874,6.946,-2.203,-23.46,-2.874,6.85,1.868,-17.595,3.164,7.334,1.582,-17.595,-29.326,23.46
6.15,2.874,6.898,-2.06,-23.46,-2.826,6.85,1.772,-17.595,3.164,7.19,1.438,-11.73,-29.326,23.46
6.155,2.922,6.993,-1.916,-23.46,-2.874,6.85,1.629,-17.595,3.164,7.334,1.438,-11.73,-23.46,23.46
6.16,2.874,6.993,-1.724,-23.46,-2.874,6.898,1.485,-17.595,3.164,7.334,1.294,-11.73,-23.46,23.46
6.165,2.826,7.041,-1.629,-23.46,-2.778,6.946,1.293,-17.595,3.164,7.334,1.007,-5.865,-23.46,23.46
6.17,2.778,7.089,-1.629,-23.46,-2.682,6.993,1.245,-17.595,3.164,7.334,1.007,-5.865,-23.46,23.46
6.175,2.73,7.089,-1.677,-23.46,-2.635,7.089,1.245,-17.595,3.164,7.334,1.007,0.0,-23.46,17.595
6.18,2.778,7.089,-1.724,-23.46,-2.682,7.089,1.293,-17.595,3.02,7.334,1.007,0.0,-23.46,17.595
6.1850000000000005,2.826,7.137,-1.724,-23.46,-2.778,7.137,1.341,-17.595,3.164,7.334,1.007,0.0,-23.46,17.595
6.19,2.874,7.233,-1.772,-17.595,-2.778,7.233,1.389,-17.595,3.164,7.334,1.15,0.0,-17.595,17.595
6.195,2.922,7.377,-1.82,-17.595,-2.826,7.329,1.389,-11.73,3.164,7.478,1.15,0.0,-17.595,11.73
6.2,2.97,7.52,-1.82,-17.595,-2.874,7.52,1.389,-11.73,3.164,7.621,1.15,0.0,-17.595,11.73
