time_aligned_sec,L_Acc_X_aligned,L_Acc_Y_aligned,L_Acc_Z_aligned,L_Gyro_Z_aligned,R_Acc_X_aligned,R_Acc_Y_aligned,R_Acc_Z_aligned,R_Gyro_Z_aligned,T_Acc_X_aligned,T_Acc_Y_aligned,T_Acc_Z_aligned,T_Gyro_X_aligned,T_Gyro_Y_aligned,T_Gyro_Z_aligned
0.0,2.06,7.856,8.526,11.73,-1.677,7.951,-8.143,11.73,2.013,8.053,-8.772,58.651,52.786,-5.865
0.005,2.012,7.664,8.383,11.73,-1.82,7.76,-8.095,11.73,2.013,7.765,-8.484,64.516,58.651,-11.73
0.01,2.203,7.425,8.383,5.865,-1.964,7.664,-8.095,5.865,1.869,7.621,-8.34,64.516,58.651,-5.865
0.015,2.203,7.377,8.383,5.865,-1.868,7.808,-8.143,5.865,2.013,7.334,-8.34,70.381,58.651,-5.865
0.02,2.156,7.52,8.43,-0.0,-1.916,7.951,-8.239,0.0,2.157,7.19,-8.34,76.246,64.516,-5.865
0.025,2.203,7.664,8.478,-5.865,-1.916,8.095,-8.239,0.0,2.013,7.19,-8.484,76.246,64.516,0.0
0.03,2.156,7.616,8.383,-5.865,-1.964,8.047,-8.095,-5.865,2.013,7.334,-8.484,82.111,64.516,5.865
0.035,2.156,7.425,8.287,-11.73,-2.012,7.76,-8.095,-11.73,1.869,7.19,-8.34,87.977,64.516,5.865
0.04,2.251,7.329,8.43,-11.73,-2.012,7.616,-8.43,-11.73,2.013,7.046,-8.197,93.842,64.516,11.73
0.045,2.203,7.52,8.862,-17.595,-1.772,7.712,-8.766,-17.595,2.013,7.046,-8.34,99.707,64.516,17.595
0.05,1.964,7.712,9.101,-23.46,-1.341,7.856,-9.005,-23.46,2.013,7.478,-8.772,111.437,64.516,23.46
0.055,1.772,7.951,9.293,-29.326,-1.054,8.095,-9.101,-29.326,1.869,7.765,-9.059,111.437,64.516,23.46
0.06,1.868,8.191,9.436,-29.326,-1.006,8.335,-9.245,-23.46,1.869,8.053,-9.203,117.302,70.381,29.326
0.065,1.772,8.383,9.532,-29.326,-1.102,8.191,-9.293,-23.46,2.157,8.197,-9.347,117.302,70.381,29.326
0.07,1.772,8.478,9.484,-29.326,-1.245,7.951,-9.293,-23.46,1.869,8.484,-9.491,117.302,76.246,29.326
0.075,1.724,8.383,9.341,-23.46,-1.245,7.616,-9.101,-17.595,1.869,8.772,-9.347,123.167,82.111,29.326
0.08,1.677,8.239,9.149,-23.46,-1.198,7.52,-8.862,-17.595,1.582,8.916,-9.203,123.167,87.977,29.326
0.085,1.677,8.047,8.909,-23.46,-1.293,7.281,-8.574,-17.595,1.582,8.916,-9.059,117.302,87.977,23.46
0.09,1.724,7.808,8.574,-23.46,-1.437,7.041,-8.239,-17.595,1.582,8.628,-8.772,111.437,93.842,23.46
0.095,1.772,7.664,8.239,-17.595,-1.629,7.041,-7.904,-11.73,1.582,8.34,-8.484,105.572,93.842,23.46
0.1,1.916,7.568,7.999,-17.595,-1.772,6.993,-7.712,-11.73,1.582,8.197,-8.197,99.707,93.842,23.46
0.105,2.012,7.472,7.808,-17.595,-1.868,7.041,-7.52,-11.73,1.726,8.053,-7.909,99.707,93.842,17.595
0.11,2.06,7.472,7.664,-17.595,-1.868,7.425,-7.425,-11.73,1.726,7.909,-7.765,93.842,93.842,17.595
0.115,2.06,7.712,7.568,-17.595,-1.82,8.047,-7.281,-17.595,1.869,7.765,-7.621,87.977,93.842,17.595
0.12,2.012,7.999,7.425,-23.46,-1.629,8.574,-7.185,-23.46,1.869,7.765,-7.478,87.977,93.842,23.46
0.125,1.916,8.095,7.329,-23.46,-1.437,8.814,-7.089,-23.46,1.869,7.765,-7.334,87.977,93.842,23.46
0.13,1.868,8.095,7.233,-23.46,-1.341,8.766,-7.041,-23.46,1.869,7.621,-7.334,93.842,93.842,23.46
0.135,1.964,7.999,7.281,-29.326,-1.389,8.574,-7.089,-23.46,1.869,7.621,-7.19,99.707,93.842,29.326
0.14,1.916,7.904,7.281,-29.326,-1.293,8.287,-7.089,-29.326,2.013,7.478,-7.19,111.437,99.707,29.326
0.145,1.868,7.856,7.281,-35.191,-1.15,8.239,-7.089,-35.191,2.013,7.621,-7.19,117.302,105.572,29.326
0.15,1.772,7.999,7.185,-35.191,-1.054,8.287,-6.946,-35.191,2.013,7.621,-7.19,123.167,105.572,35.191
0.155,1.581,8.239,6.993,-41.056,-0.814,8.335,-6.802,-35.191,1.869,7.909,-7.046,134.897,111.437,35.191
0.16,1.437,8.383,6.802,-41.056,-0.862,8.239,-6.562,-35.191,1.726,8.197,-6.902,134.897,117.302,41.056
0.165,1.341,8.383,6.467,-35.191,-0.814,7.999,-6.131,-35.191,1.438,8.484,-6.615,140.762,117.302,41.056
0.17,1.341,8.191,6.035,-35.191,-1.054,7.616,-5.748,-29.326,1.438,8.628,-6.327,140.762,123.167,41.056
0.17500000000000002,1.437,7.951,5.7,-29.326,-1.341,7.281,-5.461,-23.46,1.294,8.484,-5.752,140.762,129.032,35.191
0.18,1.485,7.808,5.365,-23.46,-1.533,6.946,-5.173,-17.595,1.15,8.484,-5.464,140.762,129.032,29.326
0.185,1.533,7.664,5.125,-23.46,-1.677,6.802,-4.934,-17.595,1.007,8.34,-5.177,134.897,129.032,29.326
0.19,1.533,7.568,4.934,-17.595,-1.772,6.706,-4.694,-17.595,1.007,8.34,-4.889,129.032,129.032,23.46
0.195,1.581,7.52,4.742,-17.595,-1.724,6.658,-4.455,-11.73,1.007,8.34,-4.745,123.167,123.167,23.46
0.2,1.533,7.425,4.503,-17.595,-1.581,6.754,-4.215,-11.73,1.007,8.197,-4.458,117.302,117.302,17.595
0.20500000000000002,1.485,7.377,4.311,-17.595,-1.533,6.85,-4.072,-11.73,1.007,8.053,-4.314,111.437,111.437,17.595
0.21,1.533,7.425,4.215,-17.595,-1.437,7.185,-3.976,-11.73,1.007,7.909,-4.17,99.707,111.437,17.595
0.215,1.485,7.568,4.167,-17.595,-1.198,7.52,-3.928,-17.595,1.15,7.765,-4.17,99.707,105.572,17.595
0.22,1.341,7.808,4.167,-17.595,-1.15,7.712,-3.928,-17.595,1.15,7.765,-4.026,93.842,105.572,17.595
0.225,1.198,7.951,4.167,-17.595,-0.958,7.664,-3.928,-11.73,1.007,8.053,-4.026,93.842,99.707,17.595
0.23,1.054,8.047,4.215,-17.595,-0.719,7.712,-3.976,-11.73,0.863,8.197,-4.026,93.842,99.707,23.46
0.23500000000000001,0.91,8.047,4.263,-17.595,-0.527,7.664,-3.976,-11.73,0.719,8.34,-4.026,87.977,99.707,17.595
0.24,0.862,7.951,4.215,-11.73,-0.527,7.472,-3.928,-11.73,0.575,8.34,-4.17,87.977,99.707,17.595
0.245,0.862,7.76,4.119,-11.73,-0.479,7.233,-3.784,-5.865,0.575,8.34,-4.17,87.977,99.707,11.73
0.25,0.862,7.472,3.928,-11.73,-0.479,7.041,-3.497,-5.865,0.575,8.197,-4.026,82.111,99.707,11.73
0.255,0.91,7.137,3.736,-11.73,-0.575,6.85,-3.401,-5.865,0.719,7.909,-3.739,82.111,99.707,11.73
0.26,1.054,6.85,3.64,-5.865,-0.766,6.658,-3.257,-5.865,0.863,7.478,-3.595,76.246,99.707,11.73
0.265,1.15,6.706,3.497,-11.73,-0.766,6.562,-3.161,-5.865,1.007,7.046,-3.451,76.246,105.572,5.865
0.27,1.102,6.658,3.449,-11.73,-0.766,6.61,-3.161,-5.865,1.007,6.902,-3.451,76.246,105.572,11.73
0.275,1.15,6.802,3.449,-11.73,-0.862,6.993,-3.209,-11.73,1.007,6.902,-3.307,76.246,105.572,11.73
0.28,1.198,7.185,3.449,-11.73,-0.91,7.568,-3.114,-11.73,1.007,6.902,-3.307,70.381,105.572,11.73
0.28500000000000003,1.15,7.568,3.257,-17.595,-0.862,8.047,-2.874,-11.73,1.007,7.046,-3.307,76.246,105.572,17.595
0.29,1.15,7.808,3.018,-17.595,-0.862,8.287,-2.682,-17.595,1.007,7.478,-3.164,76.246,111.437,17.595
0.295,1.15,7.951,2.826,-17.595,-0.91,8.383,-2.539,-17.595,1.007,7.621,-2.876,76.246,111.437,23.46
0.3,1.245,7.904,2.73,-17.595,-0.958,8.287,-2.443,-17.595,1.007,7.765,-2.732,82.111,111.437,23.46
0.305,1.245,7.856,2.635,-23.46,-1.006,8.095,-2.395,-17.595,1.007,7.621,-2.588,87.977,111.437,23.46
0.31,1.15,7.808,2.587,-23.46,-0.862,7.999,-2.347,-17.595,1.007,7.621,-2.588,93.842,111.437,23.46
0.315,1.006,7.951,2.635,-23.46,-0.671,7.951,-2.443,-17.595,0.863,7.765,-2.445,99.707,111.437,23.46
0.32,0.814,8.239,2.73,-23.46,-0.479,7.951,-2.587,-17.595,0.719,8.053,-2.445,99.707,111.437,23.46
0.325,0.479,8.622,2.922,-23.46,-0.24,7.856,-2.826,-17.595,0.575,8.628,-2.588,99.707,111.437,23.46
0.33,0.24,8.862,3.161,-17.595,0.048,7.712,-2.97,-17.595,0.0,9.203,-2.732,99.707,111.437,23.46
0.335,0.048,8.909,3.353,-11.73,0.096,7.616,-3.161,-5.865,-0.288,9.778,-3.02,99.707,111.437,23.46
0.34,0.0,8.862,3.353,-5.865,0.096,7.425,-2.97,0.0,-0.575,10.066,-3.164,87.977,111.437,17.595
0.34500000000000003,0.144,8.718,3.018,5.865,-0.048,7.377,-2.635,11.73,-0.575,10.066,-3.164,76.246,105.572,5.865
0.35000000000000003,0.335,8.526,2.73,11.73,-0.192,7.377,-2.347,17.595,-0.431,9.778,-2.876,64.516,105.572,0.0
0.355,0.431,8.239,2.635,17.595,-0.383,6.85,-2.491,23.46,-0.144,9.347,-2.588,46.921,105.572,-5.865
0.36,0.431,7.951,2.874,23.46,-0.24,6.61,-2.682,29.326,0.0,9.059,-2.445,41.056,99.707,-17.595
0.365,0.383,7.664,3.114,29.326,-0.335,6.227,-2.874,35.191,0.0,9.059,-2.732,29.326,99.707,-23.46
0.37,0.479,7.233,3.209,35.191,-0.479,5.94,-2.922,35.191,-0.144,8.772,-3.02,5.865,93.842,-29.326
0.375,0.623,6.802,3.114,35.191,-0.335,6.083,-2.682,35.191,0.0,8.197,-3.02,0.0,93.842,-35.191
0.38,0.575,6.467,2.97,35.191,-0.287,6.179,-2.491,35.191,0.288,7.621,-3.02,-11.73,93.842,-35.191
0.385,0.719,6.275,2.73,29.326,-0.144,6.514,-2.251,29.326,0.431,6.902,-2.876,-23.46,87.977,-35.191
0.39,0.719,6.227,2.491,29.326,-0.096,6.85,-2.06,29.326,0.719,6.327,-2.732,-29.326,87.977,-29.326
0.395,0.719,6.227,2.395,23.46,-0.144,6.993,-1.916,23.46,0.863,5.896,-2.445,-29.326,93.842,-23.46
0.4,0.719,6.227,2.299,23.46,-0.287,6.993,-1.964,17.595,0.863,5.608,-2.301,-23.46,93.842,-23.46
0.405,0.766,6.227,2.299,17.595,-0.335,6.85,-2.012,17.595,0.863,5.752,-2.301,-17.595,99.707,-17.595
0.41000000000000003,0.719,6.275,2.395,11.73,-0.335,6.85,-2.06,11.73,0.719,5.752,-2.157,-11.73,105.572,-11.73
0.41500000000000004,0.766,6.323,2.443,5.865,-0.287,6.898,-2.108,11.73,0.719,5.896,-2.301,-5.865,111.437,-11.73
0.42,0.862,6.323,2.539,5.865,-0.24,6.898,-2.156,5.865,0.863,5.896,-2.445,5.865,111.437,-5.865
0.425,0.91,6.323,2.539,-0.0,-0.335,6.754,-2.203,0.0,1.007,5.896,-2.445,5.865,111.437,0.0
0.43,1.054,6.323,2.539,-0.0,-0.623,6.61,-2.108,0.0,1.007,6.04,-2.445,17.595,117.302,0.0
0.435,1.293,6.419,2.299,-5.865,-1.102,6.85,-1.82,-5.865,1.15,6.183,-2.445,23.46,123.167,5.865
0.44,1.581,6.754,1.82,-11.73,-1.389,7.329,-1.293,-5.865,1.294,6.327,-2.157,29.326,129.032,5.865
0.445,1.581,7.185,1.245,-11.73,-1.533,7.76,-0.766,-5.865,1.438,6.615,-1.726,29.326,129.032,11.73
0.45,1.533,7.568,0.719,-11.73,-1.868,7.999,-0.335,-5.865,1.294,6.902,-1.15,35.191,129.032,11.73
0.455,1.677,7.808,0.335,-11.73,-2.203,7.808,0.0,-5.865,1.007,7.334,-0.575,41.056,129.032,11.73
0.46,1.724,7.808,0.192,-5.865,-2.395,7.377,0.0,-5.865,1.007,7.765,-0.144,46.921,129.032,11.73
0.465,1.629,7.76,0.192,-5.865,-2.299,7.041,-0.096,0.0,0.719,8.053,0.144,52.786,123.167,5.865
0.47000000000000003,1.581,7.712,0.431,-0.0,-2.156,6.898,-0.335,5.865,0.575,8.34,-0.0,52.786,117.302,5.865
0.47500000000000003,1.533,7.664,0.814,-0.0,-2.012,6.85,-0.719,5.865,0.719,8.34,-0.288,46.921,105.572,0.0
0.48,1.485,7.568,1.15,-0.0,-1.533,6.85,-1.006,5.865,0.575,8.34,-0.719,41.056,93.842,0.0
0.485,1.245,7.568,1.533,-0.0,-1.006,6.946,-1.341,5.865,0.863,8.197,-1.007,35.191,87.977,0.0
0.49,0.958,7.568,1.868,-0.0,-0.575,6.898,-1.581,0.0,0.863,8.197,-1.438,29.326,82.111,0.0
0.495,0.766,7.377,2.156,-0.0,-0.287,6.754,-1.772,0.0,0.719,8.197,-1.726,17.595,76.246,5.865
0.5,0.575,7.233,2.156,-0.0,-0.048,6.658,-1.724,5.865,0.575,7.909,-2.013,5.865,76.246,5.865
0.505,0.479,6.898,1.964,-0.0,0.0,6.562,-1.437,5.865,0.431,7.765,-2.013,5.865,76.246,0.0
0.51,0.575,6.706,1.724,-0.0,-0.287,6.514,-1.245,5.865,0.575,7.334,-1.869,0.0,76.246,0.0
0.515,0.814,6.706,1.533,-0.0,-0.766,6.658,-1.006,5.865,0.575,7.046,-1.582,-5.865,82.111,0.0
0.52,1.006,6.754,1.198,-0.0,-1.198,6.85,-0.623,5.865,0.575,6.902,-1.438,-5.865,82.111,0.0
0.525,1.198,6.802,0.719,-0.0,-1.293,7.281,-0.287,0.0,0.575,6.902,-1.15,-5.865,82.111,0.0
0.53,1.341,7.041,0.575,-5.865,-1.437,7.951,-0.24,-5.865,0.863,6.759,-0.719,-5.865,82.111,5.865
0.535,1.437,7.425,0.479,-11.73,-1.485,8.67,-0.096,-11.73,1.007,6.615,-0.575,-5.865,82.111,5.865
0.54,1.533,7.856,0.335,-17.595,-1.629,9.053,0.0,-17.595,1.15,6.759,-0.431,0.0,76.246,11.73
0.545,1.677,8.239,0.335,-23.46,-1.82,9.293,-0.144,-17.595,1.15,7.046,-0.288,5.865,76.246,17.595
0.55,1.677,8.67,0.575,-23.46,-1.772,9.676,-0.383,-23.46,1.15,7.478,-0.288,23.46,76.246,23.46
0.555,1.677,9.197,0.862,-23.46,-1.677,10.107,-0.671,-23.46,1.15,8.053,-0.431,35.191,70.381,23.46
0.56,1.677,9.628,1.15,-29.326,-1.437,10.346,-0.958,-29.326,1.15,8.772,-0.719,46.921,70.381,29.326
0.5650000000000001,1.533,9.867,1.437,-29.326,-1.341,10.346,-1.245,-29.326,1.294,9.203,-1.007,52.786,64.516,29.326
0.5700000000000001,1.533,10.059,1.724,-29.326,-1.245,10.346,-1.533,-29.326,1.15,9.635,-1.294,64.516,64.516,29.326
0.5750000000000001,1.533,10.299,2.06,-29.326,-1.15,10.346,-1.916,-23.46,1.15,9.922,-1.582,70.381,64.516,29.326
0.58,1.485,10.442,2.443,-23.46,-1.054,10.203,-2.251,-23.46,1.15,10.354,-2.013,76.246,64.516,29.326
0.585,1.341,10.442,2.73,-23.46,-0.814,10.011,-2.539,-23.46,1.15,10.641,-2.301,76.246,64.516,29.326
0.59,1.198,10.634,2.97,-23.46,-0.479,10.059,-2.682,-17.595,1.007,10.929,-2.732,76.246,64.516,29.326
0.595,1.006,10.682,3.018,-23.46,-0.431,9.915,-2.635,-17.595,1.007,11.216,-2.876,76.246,64.516,23.46
0.6,0.91,10.538,2.874,-17.595,-0.527,9.532,-2.443,-11.73,0.863,11.36,-2.876,70.381,70.381,23.46
0.605,0.958,10.299,2.587,-11.73,-0.814,9.149,-2.156,-5.865,0.575,11.36,-2.732,64.516,70.381,17.595
0.61,1.102,9.963,2.395,-11.73,-1.054,8.814,-2.012,-5.865,0.575,11.216,-2.445,52.786,70.381,11.73
0.615,1.15,9.676,2.251,-5.865,-1.054,8.622,-1.916,0.0,0.575,10.929,-2.301,46.921,70.381,11.73
0.62,1.054,9.388,2.251,-0.0,-0.814,8.67,-1.964,0.0,0.575,10.497,-2.157,35.191,70.381,5.865
0.625,0.958,9.388,2.347,-0.0,-0.575,9.197,-2.012,0.0,0.575,10.21,-2.157,29.326,70.381,5.865
0.63,0.862,9.628,2.347,-0.0,-0.431,9.772,-1.964,5.865,0.575,9.778,-2.301,17.595,70.381,0.0
0.635,0.766,9.915,2.347,-0.0,-0.287,10.107,-2.06,5.865,0.575,9.778,-2.301,5.865,64.516,0.0
0.64,0.719,10.155,2.587,5.865,-0.287,10.155,-2.395,5.865,0.575,10.066,-2.301,5.865,64.516,0.0
0.645,0.671,10.299,2.874,5.865,-0.24,10.107,-2.682,11.73,0.431,10.21,-2.588,5.865,70.381,-5.865
0.65,0.671,10.299,3.257,5.865,-0.192,10.107,-3.018,11.73,0.431,10.497,-2.876,5.865,70.381,-5.865
0.655,0.671,10.346,3.449,5.865,-0.048,10.203,-3.161,11.73,0.431,10.641,-3.164,5.865,70.381,-5.865
0.66,0.527,10.251,3.593,5.865,0.144,10.011,-3.305,11.73,0.431,10.497,-3.451,5.865,76.246,-11.73
0.665,0.431,10.155,3.736,5.865,0.24,9.628,-3.449,11.73,0.431,10.641,-3.595,5.865,76.246,-5.865
0.67,0.383,10.011,3.88,5.865,0.335,9.388,-3.593,11.73,0.288,10.641,-3.739,5.865,82.111,-5.865
0.675,0.431,9.867,3.976,5.865,0.383,9.293,-3.593,11.73,0.431,10.641,-3.883,0.0,82.111,-5.865
0.68,0.383,9.772,3.928,5.865,0.431,9.101,-3.545,5.865,0.431,10.497,-3.883,-5.865,87.977,-5.865
0.685,0.24,9.676,3.784,5.865,0.431,8.766,-3.257,5.865,0.431,10.354,-3.883,-11.73,93.842,0.0
0.6900000000000001,0.144,9.532,3.353,5.865,0.287,8.478,-2.73,11.73,0.144,10.354,-3.739,-17.595,99.707,-5.865
0.6950000000000001,0.287,9.293,2.635,5.865,-0.192,8.383,-1.964,11.73,-0.144,10.354,-3.164,-23.46,105.572,-5.865
0.7000000000000001,0.623,9.005,1.772,11.73,-0.671,8.287,-1.15,11.73,-0.144,10.066,-2.445,-35.191,105.572,-5.865
0.705,0.91,8.718,1.006,11.73,-1.102,8.143,-0.431,11.73,0.144,9.778,-1.582,-41.056,105.572,-5.865
0.71,1.102,8.526,0.335,11.73,-1.198,8.335,0.144,11.73,0.431,9.347,-0.863,-52.786,105.572,-11.73
0.715,1.15,8.478,-0.048,5.865,-1.102,8.526,0.431,11.73,0.575,8.916,-0.144,-58.651,105.572,-5.865
0.72,1.006,8.622,-0.287,5.865,-1.15,8.766,0.719,11.73,0.719,8.628,0.288,-58.651,99.707,-5.865
0.725,0.958,8.909,-0.862,5.865,-1.437,9.197,1.437,11.73,0.431,8.772,0.431,-64.516,93.842,-5.865
0.73,0.91,9.245,-1.868,11.73,-1.293,10.107,2.539,11.73,0.144,9.059,1.15,-58.651,93.842,-5.865
0.735,0.958,9.101,-2.874,11.73,-1.437,10.346,3.545,11.73,-0.144,8.916,2.013,-58.651,87.977,-11.73
0.74,1.293,8.67,-3.736,5.865,-2.156,10.059,4.263,11.73,0.144,8.197,3.02,-58.651,82.111,-11.73
0.745,1.677,8.191,-4.503,5.865,-2.635,9.963,4.982,5.865,0.431,7.478,3.883,-46.921,76.246,-5.865
0.75,1.724,7.999,-5.173,-0.0,-2.682,9.963,5.556,0.0,0.575,6.902,4.602,-29.326,70.381,-5.865
0.755,1.485,7.904,-5.556,-5.865,-2.491,9.867,5.892,-5.865,0.575,6.471,5.321,-11.73,58.651,0.0
0.76,1.15,7.664,-5.796,-11.73,-2.108,9.58,5.988,-17.595,0.144,6.471,5.752,5.865,46.921,5.865
0.765,1.102,7.472,-5.604,-23.46,-1.82,9.341,5.604,-23.46,-0.144,6.04,5.896,29.326,35.191,17.595
0.77,1.006,7.281,-5.077,-29.326,-1.485,9.005,5.03,-29.326,0.0,5.896,5.752,52.786,23.46,23.46
0.775,1.006,7.281,-4.407,-35.191,-1.15,8.526,4.311,-41.056,0.0,5.896,5.177,76.246,11.73,29.326
0.78,0.719,7.377,-3.593,-41.056,-0.91,7.951,3.497,-41.056,0.431,6.183,4.602,93.842,0.0,35.191
0.785,0.623,7.472,-2.922,-41.056,-0.719,7.377,2.874,-46.921,0.0,6.759,3.883,111.437,-5.865,41.056
0.79,0.431,7.472,-2.203,-46.921,-0.479,6.946,2.156,-46.921,0.0,7.478,3.164,123.167,-11.73,46.921
0.795,0.479,7.472,-1.533,-46.921,-0.335,6.706,1.485,-46.921,-0.144,7.909,2.445,129.032,-17.595,46.921
0.8,0.623,7.425,-0.671,-46.921,-0.335,6.658,0.623,-46.921,0.0,8.053,1.726,123.167,-23.46,46.921
0.805,0.527,7.664,0.144,-46.921,0.192,6.85,0.0,-52.786,0.431,8.197,0.863,123.167,-23.46,46.921
0.81,0.144,8.191,0.671,-52.786,0.862,7.281,-0.431,-52.786,0.431,8.628,0.144,111.437,-23.46,46.921
0.8150000000000001,-0.24,8.766,1.054,-52.786,1.15,7.664,-0.766,-52.786,0.144,9.203,-0.575,99.707,-23.46,52.786
0.8200000000000001,-0.383,9.197,1.437,-52.786,1.198,7.999,-1.15,-46.921,-0.144,9.922,-0.863,87.977,-23.46,52.786
0.8250000000000001,-0.479,9.628,1.964,-46.921,1.245,8.287,-1.772,-41.056,-0.288,10.354,-1.294,76.246,-17.595,52.786
0.8300000000000001,-0.479,10.394,2.539,-35.191,1.245,8.67,-2.395,-29.326,-0.575,10.929,-1.869,64.516,-11.73,46.921
0.835,-0.719,10.921,3.305,-23.46,1.485,8.909,-3.209,-17.595,-0.575,12.079,-2.445,46.921,-5.865,35.191
0.84,-0.958,11.4,4.072,-17.595,1.964,9.197,-3.928,-17.595,-1.007,12.798,-3.164,29.326,0.0,23.46
0.845,-1.198,11.975,4.79,-11.73,2.395,9.532,-4.598,-5.865,-1.294,13.517,-4.026,5.865,0.0,17.595
0.85,-1.533,12.215,5.317,-5.865,2.73,10.011,-5.125,0.0,-1.294,14.092,-4.745,-17.595,5.865,11.73
0.855,-1.677,12.502,5.7,5.865,3.066,10.49,-5.365,11.73,-1.582,14.38,-5.177,-46.921,11.73,5.865
0.86,-1.916,12.694,5.604,17.595,3.114,11.065,-5.125,29.326,-1.582,14.38,-5.608,-70.381,17.595,-5.865
0.865,-1.916,12.741,5.03,35.191,2.682,11.496,-4.407,46.921,-1.869,14.236,-5.464,-93.842,23.46,-17.595
0.87,-1.581,12.358,3.976,52.786,1.964,11.544,-3.257,58.651,-2.157,13.805,-4.889,-117.302,35.191,-35.191
0.875,-1.293,11.592,2.635,64.516,1.102,11.544,-2.012,64.516,-1.869,13.086,-3.739,-134.897,41.056,-46.921
0.88,-0.766,10.682,1.581,70.381,0.479,11.64,-1.15,76.246,-2.013,11.648,-2.445,-140.762,41.056,-64.516
0.885,-0.335,9.915,0.862,70.381,0.144,11.783,-0.431,70.381,-1.582,10.066,-1.438,-146.628,41.056,-70.381
0.89,-0.383,9.197,0.24,70.381,0.287,11.64,0.192,64.516,-1.294,8.484,-0.719,-140.762,41.056,-70.381
0.895,-0.575,8.43,-0.096,58.651,0.575,11.448,0.383,52.786,-1.15,7.19,-0.144,-123.167,35.191,-64.516
0.9,-0.575,7.568,-0.048,46.921,0.527,10.778,0.383,41.056,-1.294,5.896,0.144,-105.572,29.326,-58.651
0.905,-0.431,6.898,-0.048,35.191,0.479,9.963,0.335,29.326,-1.007,4.889,0.144,-70.381,23.46,-46.921
0.91,-0.287,6.658,0.048,11.73,0.719,9.197,0.287,5.865,-0.863,4.314,-0.0,-41.056,23.46,-29.326
0.915,-0.192,6.802,0.24,-5.865,0.671,9.005,0.24,-11.73,-0.575,4.458,-0.144,-5.865,23.46,-11.73
0.92,-0.383,7.329,0.048,-29.326,0.91,8.814,0.431,-35.191,-0.288,5.033,-0.288,29.326,23.46,5.865
0.925,-0.527,7.904,-0.048,-41.056,0.91,8.862,0.431,-46.921,-0.431,6.183,-0.0,52.786,29.326,29.326
0.93,-0.575,8.67,-0.192,-52.786,0.958,9.053,0.671,-58.651,-0.863,7.334,0.144,70.381,35.191,46.921
0.935,-0.719,9.436,-0.527,-58.651,1.054,9.388,1.006,-58.651,-1.007,8.484,0.288,76.246,35.191,52.786
0.9400000000000001,-0.766,10.155,-0.766,-58.651,0.958,9.58,1.102,-58.651,-1.15,9.635,0.719,82.111,35.191,64.516
0.9450000000000001,-0.766,10.73,-0.719,-52.786,0.766,9.772,0.958,-52.786,-1.294,10.785,1.007,82.111,35.191,58.651
0.9500000000000001,-0.719,11.257,-0.623,-46.921,0.671,10.059,0.862,-46.921,-1.438,11.648,0.863,76.246,35.191,58.651
0.9550000000000001,-0.719,11.592,-0.479,-41.056,0.814,10.346,0.766,-35.191,-1.582,12.367,0.863,70.381,35.191,46.921
0.96,-0.719,11.831,-0.383,-29.326,0.91,10.634,0.719,-23.46,-1.582,12.798,0.719,58.651,29.326,41.056
0.965,-0.671,11.927,-0.24,-23.46,0.671,10.586,0.431,-11.73,-1.438,12.942,0.575,41.056,23.46,29.326
0.97,-0.527,12.023,0.0,-11.73,0.479,10.73,0.24,-5.865,-1.438,12.942,0.431,29.326,23.46,23.46
0.975,-0.431,12.023,0.192,-0.0,0.575,11.113,0.096,5.865,-1.438,13.23,0.144,17.595,17.595,11.73
0.98,-0.383,12.023,0.335,11.73,0.671,11.544,0.0,17.595,-1.294,12.942,-0.0,0.0,17.595,0.0
0.985,-0.24,11.927,0.479,17.595,0.527,11.688,-0.192,23.46,-1.007,12.654,-0.288,-11.73,11.73,-11.73
0.99,-0.192,12.023,0.623,23.46,0.383,11.975,-0.287,23.46,-0.863,12.223,-0.431,-17.595,5.865,-17.595
0.995,-0.192,12.31,0.671,29.326,0.479,12.502,-0.383,29.326,-0.863,12.223,-0.575,-23.46,5.865,-17.595
1.0,-0.24,12.55,0.766,35.191,0.479,12.741,-0.527,35.191,-0.863,12.367,-0.575,-23.46,5.865,-23.46
1.0050000000000001,-0.192,12.598,0.958,35.191,0.335,12.789,-0.671,41.056,-0.863,12.511,-0.719,-23.46,5.865,-35.191
1.01,-0.096,12.454,1.006,35.191,0.24,12.789,-0.719,35.191,-1.007,12.511,-0.863,-23.46,5.865,-35.191
1.0150000000000001,-0.144,12.406,0.958,35.191,0.335,13.029,-0.623,35.191,-0.863,12.367,-1.007,-23.46,0.0,-35.191
1.02,-0.287,12.502,0.91,35.191,0.671,13.508,-0.623,35.191,-0.863,12.079,-0.863,-23.46,0.0,-35.191
1.025,-0.431,12.55,1.054,35.191,0.814,13.556,-0.766,35.191,-1.007,11.935,-0.863,-17.595,0.0,-35.191
1.03,-0.479,12.358,1.245,35.191,0.862,13.316,-1.006,35.191,-1.007,11.792,-1.007,-11.73,0.0,-35.191
1.035,-0.527,12.262,1.533,35.191,1.006,13.077,-1.293,35.191,-1.007,11.648,-1.294,0.0,0.0,-35.191
1.04,-0.671,12.215,1.677,29.326,1.198,12.837,-1.389,29.326,-1.007,11.504,-1.438,5.865,0.0,-29.326
1.045,-0.766,12.071,1.724,29.326,1.293,12.358,-1.485,29.326,-1.15,11.648,-1.726,23.46,0.0,-29.326
1.05,-0.814,11.831,1.916,29.326,1.245,11.831,-1.533,35.191,-1.294,11.792,-1.726,29.326,0.0,-29.326
1.055,-0.814,11.496,1.868,29.326,1.293,11.4,-1.485,35.191,-1.294,11.648,-1.869,35.191,5.865,-29.326
1.06,-0.814,11.209,1.82,29.326,1.293,10.921,-1.389,35.191,-1.294,11.504,-1.869,41.056,5.865,-23.46
1.065,-0.814,10.969,1.724,35.191,1.198,10.538,-1.293,35.191,-1.15,11.36,-1.726,41.056,5.865,-29.326
1.07,-0.814,10.682,1.581,35.191,1.054,10.155,-1.102,41.056,-1.294,11.216,-1.582,41.056,11.73,-35.191
1.075,-0.719,10.394,1.341,41.056,0.91,9.82,-0.814,41.056,-1.438,11.073,-1.438,41.056,11.73,-35.191
1.08,-0.671,10.155,1.054,46.921,0.766,9.724,-0.575,46.921,-1.294,10.785,-1.294,35.191,11.73,-41.056
1.085,-0.575,10.059,0.862,46.921,0.623,9.82,-0.431,46.921,-1.294,10.497,-1.007,29.326,11.73,-41.056
1.09,-0.479,9.915,0.766,52.786,0.671,9.82,-0.335,52.786,-1.294,10.354,-0.719,23.46,11.73,-46.921
1.095,-0.527,9.724,0.623,52.786,0.671,9.724,-0.144,52.786,-1.15,10.066,-0.719,23.46,5.865,-52.786
1.1,-0.527,9.484,0.431,52.786,0.623,9.532,-0.048,58.651,-1.15,9.778,-0.575,17.595,5.865,-52.786
1.105,-0.479,9.245,0.383,58.651,0.527,9.341,0.0,58.651,-1.15,9.491,-0.431,17.595,5.865,-52.786
1.11,-0.431,8.957,0.383,52.786,0.527,9.053,0.0,58.651,-1.007,9.203,-0.288,17.595,0.0,-52.786
1.115,-0.383,8.67,0.431,52.786,0.527,8.766,-0.144,58.651,-1.007,8.916,-0.288,23.46,0.0,-52.786
1.12,-0.383,8.383,0.623,52.786,0.575,8.478,-0.335,58.651,-0.863,8.484,-0.431,23.46,0.0,-52.786
1.125,-0.431,8.143,0.862,52.786,0.719,8.335,-0.479,52.786,-0.863,8.34,-0.575,29.326,0.0,-58.651
1.1300000000000001,-0.623,7.999,0.862,52.786,1.054,8.191,-0.383,52.786,-0.863,8.053,-0.863,29.326,-5.865,-52.786
1.135,-0.766,7.856,0.719,52.786,1.102,8.047,-0.24,52.786,-0.863,7.909,-0.863,29.326,-5.865,-52.786
1.1400000000000001,-0.814,7.76,0.623,46.921,0.91,7.856,-0.192,52.786,-1.007,7.765,-0.719,29.326,-5.865,-46.921
1.145,-0.814,7.712,0.479,46.921,0.862,7.712,-0.048,52.786,-1.294,7.621,-0.575,35.191,0.0,-46.921
1.1500000000000001,-0.862,7.568,0.383,52.786,0.91,7.616,0.0,52.786,-1.294,7.621,-0.431,35.191,0.0,-46.921
1.155,-0.862,7.377,0.383,52.786,1.006,7.52,0.048,52.786,-1.438,7.478,-0.288,35.191,-5.865,-46.921
1.16,-0.958,7.233,0.287,52.786,1.102,7.329,0.144,52.786,-1.294,7.334,-0.288,41.056,-5.865,-52.786
1.165,-1.006,7.089,0.24,52.786,1.198,7.185,0.192,52.786,-1.294,7.19,-0.288,41.056,-5.865,-46.921
1.17,-1.102,7.041,0.192,52.786,1.293,7.041,0.192,58.651,-1.438,7.046,-0.144,41.056,-5.865,-52.786
1.175,-1.293,6.946,0.287,52.786,1.485,6.85,0.096,58.651,-1.582,7.046,-0.144,41.056,-5.865,-52.786
1.18,-1.341,6.706,0.383,58.651,1.533,6.514,-0.048,58.651,-1.726,7.046,-0.144,46.921,-11.73,-52.786
1.185,-1.15,6.131,0.575,64.516,1.533,6.083,-0.192,70.381,-1.726,6.759,-0.288,46.921,-11.73,-58.651
1.19,-1.198,5.317,0.719,64.516,1.533,5.173,-0.335,70.381,-1.294,6.04,-0.575,46.921,-11.73,-64.516
1.195,-1.245,4.455,0.91,70.381,1.293,3.88,-0.575,70.381,-1.294,5.177,-0.719,46.921,-11.73,-70.381
1.2,-1.15,3.449,1.198,70.381,1.15,2.539,-0.814,70.381,-1.438,4.458,-0.863,46.921,-11.73,-70.381
1.205,-1.245,2.299,1.245,64.516,1.102,1.341,-0.719,64.516,-1.438,3.883,-1.15,46.921,-5.865,-70.381
1.21,-1.293,1.006,0.91,58.651,1.006,0.0,-0.335,52.786,-1.582,2.732,-1.15,46.921,-11.73,-64.516
1.215,-0.958,-0.335,0.719,46.921,0.766,-1.198,-0.24,46.921,-1.582,1.438,-0.863,41.056,-11.73,-58.651
1.22,-0.623,-1.581,0.958,41.056,0.623,-2.299,-0.575,35.191,-1.15,0.0,-0.575,29.326,-17.595,-46.921
1.225,-0.623,-2.73,1.341,29.326,0.814,-3.545,-1.006,17.595,-0.575,-1.294,-0.863,29.326,-17.595,-41.056
1.23,-0.479,-3.832,1.964,5.865,0.671,-5.077,-1.629,0.0,-0.288,-2.445,-1.294,23.46,-23.46,-23.46
1.235,-0.671,-4.982,2.539,-11.73,1.198,-6.323,-2.108,-23.46,-0.144,-3.307,-1.869,5.865,-17.595,-5.865
1.24,-0.862,-5.892,2.97,-35.191,1.437,-7.089,-2.587,-46.921,-0.144,-4.026,-2.445,5.865,-17.595,17.595
1.245,-0.575,-6.658,3.449,-64.516,1.724,-7.377,-2.874,-76.246,0.0,-5.033,-3.02,-5.865,-17.595,41.056
1.25,-0.287,-7.185,3.88,-87.977,1.772,-7.281,-3.209,-105.572,0.863,-5.896,-3.451,-23.46,-11.73,70.381
1.2550000000000001,0.192,-7.137,4.167,-117.302,1.15,-6.706,-3.545,-129.032,1.294,-6.902,-3.883,-35.191,0.0,93.842
1.26,0.479,-6.275,4.311,-146.628,1.15,-5.365,-3.449,-158.358,2.013,-7.19,-4.17,-41.056,17.595,117.302
1.2650000000000001,3.688,17.627,-1.15,-170.088,19.783,13.316,11.544,-175.953,2.301,-6.327,-4.314,-46.921,35.191,146.628
1.27,-2.299,13.46,-7.951,-146.628,-21.124,-6.802,3.066,-129.032,6.615,-6.183,-2.013,-46.921,52.786,170.088
1.2750000000000001,-10.682,23.854,-6.514,-87.977,-2.587,24.142,5.892,-41.056,-11.073,41.846,10.354,129.032,123.167,152.493
1.28,0.527,23.902,-10.634,11.73,9.436,24.237,9.341,17.595,-40.264,66.867,10.641,-52.786,105.572,87.977
1.285,6.514,14.897,-4.838,35.191,1.868,21.938,3.066,52.786,6.471,22.433,12.223,-340.176,-205.279,-11.73
1.29,4.503,5.317,0.383,105.572,1.054,8.191,-1.485,129.032,13.949,-2.013,4.314,-381.232,-234.604,-23.46
1.295,-1.82,2.826,4.311,140.762,4.598,6.035,-5.173,129.032,8.34,-0.863,-0.863,-275.66,-140.762,-99.707
1.3,-2.347,5.317,6.61,93.842,3.832,10.49,-6.419,58.651,-0.719,0.863,-4.458,-170.088,-64.516,-140.762
1.305,-2.587,10.107,6.371,11.73,4.167,16.717,-5.365,-17.595,-2.013,3.739,-6.615,-123.167,-29.326,-87.977
1.31,-3.497,13.795,5.173,-41.056,5.652,20.645,-4.551,-58.651,-2.588,7.046,-6.615,-99.707,-11.73,-5.865
1.315,-3.88,14.945,4.982,-70.381,5.413,20.501,-4.838,-76.246,-3.307,9.059,-5.464,-70.381,5.865,46.921
1.32,-3.209,14.897,5.317,-82.111,3.736,17.148,-5.077,-87.977,-3.307,10.066,-5.321,-17.595,23.46,70.381
1.325,-2.635,14.418,5.125,-87.977,2.395,14.226,-4.886,-87.977,-3.164,11.792,-5.464,41.056,41.056,82.111
1.33,-2.682,13.939,4.982,-87.977,2.156,12.646,-5.077,-87.977,-3.595,13.661,-5.033,87.977,52.786,87.977
1.335,-2.97,13.412,5.221,-87.977,3.066,11.544,-5.173,-93.842,-4.458,14.668,-4.889,111.437,52.786,87.977
1.34,-3.449,12.406,5.365,-87.977,4.359,10.921,-5.269,-87.977,-4.458,14.524,-5.033,105.572,46.921,93.842
1.345,-3.64,11.592,5.652,-82.111,4.598,10.825,-5.03,-70.381,-4.026,13.373,-5.321,93.842,35.191,93.842
1.35,-3.209,11.4,4.742,-58.651,3.688,11.017,-3.688,-52.786,-3.595,12.223,-5.608,82.111,29.326,82.111
1.355,-2.299,11.736,3.114,-41.056,1.964,11.065,-2.203,-29.326,-3.164,11.792,-4.745,76.246,35.191,64.516
1.36,-1.054,11.831,1.82,-23.46,0.814,10.969,-1.006,-11.73,-2.732,12.223,-3.02,70.381,41.056,41.056
1.365,-0.671,11.736,0.766,-11.73,0.479,10.586,-0.287,-5.865,-1.869,12.367,-1.582,64.516,41.056,23.46
1.37,-0.575,11.592,0.479,-5.865,0.575,10.011,-0.096,5.865,-1.582,12.511,-0.575,52.786,41.056,11.73
1.375,-0.479,11.017,0.383,5.865,0.431,9.436,0.048,11.73,-1.438,12.798,-0.288,46.921,35.191,5.865
1.3800000000000001,-0.24,10.49,0.096,11.73,0.192,9.101,0.479,17.595,-1.294,12.367,-0.144,35.191,35.191,-5.865
1.385,-0.048,10.059,-0.383,17.595,0.0,9.005,0.862,17.595,-1.007,11.648,0.144,17.595,29.326,-11.73
1.3900000000000001,0.096,9.915,-0.671,17.595,-0.144,9.341,1.054,17.595,-0.863,11.073,0.575,0.0,23.46,-11.73
1.395,0.144,10.011,-0.814,11.73,0.0,9.867,1.245,11.73,-0.575,10.641,0.863,-11.73,23.46,-11.73
1.4000000000000001,-0.096,10.251,-0.958,11.73,0.287,10.107,1.245,11.73,-0.575,10.497,1.007,-23.46,17.595,-11.73
1.405,-0.287,10.203,-0.862,5.865,0.383,10.155,1.102,5.865,-0.863,10.641,1.007,-29.326,11.73,-5.865
1.41,-0.287,10.107,-0.766,5.865,0.335,10.155,1.054,5.865,-0.863,10.354,1.007,-29.326,11.73,-5.865
1.415,-0.192,9.963,-0.766,5.865,0.335,10.251,1.102,5.865,-0.863,10.21,0.863,-35.191,5.865,-5.865
1.42,-0.287,9.963,-0.766,5.865,0.479,10.442,1.15,5.865,-0.863,9.922,0.863,-35.191,5.865,0.0
1.425,-0.335,9.915,-0.766,-0.0,0.527,10.538,1.102,5.865,-0.863,9.778,0.863,-35.191,0.0,0.0
1.43,-0.335,10.059,-0.719,5.865,0.623,10.634,1.054,5.865,-0.863,9.491,0.863,-29.326,0.0,0.0
1.435,-0.431,10.107,-0.527,5.865,0.623,10.538,0.719,5.865,-0.863,9.635,0.863,-23.46,0.0,0.0
1.44,-0.623,10.203,-0.24,5.865,0.814,10.346,0.383,11.73,-1.007,9.778,0.575,-17.595,0.0,0.0
1.445,-0.766,10.011,0.335,5.865,1.006,10.059,-0.192,11.73,-1.15,10.066,0.288,-11.73,0.0,-5.865
1.45,-0.958,9.963,0.766,5.865,1.389,9.915,-0.527,11.73,-1.438,10.066,-0.288,-11.73,-5.865,-5.865
1.455,-1.102,9.82,1.006,5.865,1.389,9.915,-0.766,11.73,-1.438,10.066,-0.719,-5.865,-5.865,-5.865
1.46,-1.006,9.676,1.198,11.73,1.293,9.772,-0.814,11.73,-1.582,9.778,-1.007,-5.865,-5.865,-5.865
1.465,-1.006,9.628,1.198,5.865,1.581,10.011,-0.766,11.73,-1.438,9.778,-1.15,-5.865,-5.865,-11.73
1.47,-1.15,9.867,1.198,5.865,1.724,10.251,-0.862,11.73,-1.294,9.491,-1.15,-11.73,-5.865,-5.865
1.475,-1.245,9.963,1.341,11.73,1.581,10.107,-1.006,17.595,-1.438,9.635,-1.15,-5.865,-5.865,-5.865
1.48,-1.15,9.82,1.437,11.73,1.389,9.915,-1.054,17.595,-1.726,9.922,-1.294,-5.865,0.0,-11.73
1.485,-1.006,9.628,1.389,11.73,1.245,9.628,-0.91,11.73,-1.582,9.778,-1.438,0.0,0.0,-11.73
1.49,-0.958,9.293,1.293,11.73,1.15,9.341,-0.91,11.73,-1.438,9.635,-1.294,0.0,0.0,-11.73
1.495,-0.958,9.341,1.245,5.865,1.389,9.676,-0.814,5.865,-1.438,9.347,-1.15,0.0,0.0,-11.73
1.5,-1.102,9.436,1.341,-0.0,1.533,9.82,-1.054,5.865,-1.438,9.059,-1.15,0.0,0.0,0.0
1.5050000000000001,-1.198,9.436,1.581,5.865,1.533,9.676,-1.245,0.0,-1.438,9.203,-1.294,0.0,0.0,0.0
1.51,-1.15,9.436,1.677,-0.0,1.533,9.772,-1.293,0.0,-1.726,9.347,-1.582,5.865,0.0,0.0
1.5150000000000001,-1.198,9.436,1.629,-5.865,1.581,9.772,-1.198,0.0,-1.582,9.203,-1.582,5.865,0.0,0.0
1.52,-1.198,9.484,1.629,-5.865,1.581,9.82,-1.293,0.0,-1.582,9.203,-1.582,5.865,0.0,5.865
1.5250000000000001,-1.15,9.676,1.724,-5.865,1.437,9.915,-1.389,0.0,-1.582,9.347,-1.582,5.865,5.865,5.865
1.53,-1.102,9.867,1.772,-0.0,1.389,9.963,-1.341,0.0,-1.582,9.491,-1.726,5.865,5.865,0.0
1.5350000000000001,-1.054,9.963,1.677,-0.0,1.245,9.915,-1.293,0.0,-1.582,9.922,-1.726,17.595,5.865,0.0
1.54,-0.958,10.059,1.629,-0.0,1.102,9.82,-1.245,5.865,-1.582,10.066,-1.582,17.595,5.865,0.0
1.545,-0.91,10.059,1.581,-0.0,1.102,9.724,-1.15,5.865,-1.582,10.354,-1.582,17.595,5.865,0.0
1.55,-0.862,9.963,1.485,5.865,1.102,9.484,-1.245,5.865,-1.438,10.354,-1.438,17.595,5.865,0.0
1.555,-0.91,9.867,1.629,5.865,1.198,9.484,-1.245,5.865,-1.438,10.354,-1.438,5.865,5.865,0.0
1.56,-0.814,9.724,1.581,5.865,1.15,9.532,-1.15,5.865,-1.438,10.354,-1.582,5.865,0.0,-5.865
1.565,-0.766,9.58,1.437,5.865,1.102,9.484,-0.958,11.73,-1.294,10.066,-1.438,0.0,0.0,-5.865
1.57,-0.719,9.484,1.293,5.865,1.006,9.388,-0.862,5.865,-1.15,9.778,-1.294,0.0,0.0,-5.865
1.575,-0.766,9.436,1.198,5.865,0.958,9.388,-0.766,5.865,-1.15,9.635,-1.294,-5.865,0.0,-5.865
1.58,-0.766,9.436,1.102,5.865,1.006,9.436,-0.719,5.865,-1.15,9.635,-1.15,-5.865,0.0,-5.865
1.585,-0.766,9.388,1.054,5.865,1.054,9.532,-0.623,5.865,-1.294,9.491,-1.007,-5.865,0.0,-5.865
1.59,-0.814,9.388,1.054,5.865,1.102,9.532,-0.671,11.73,-1.294,9.491,-1.007,-5.865,0.0,-5.865
1.595,-0.814,9.388,1.054,5.865,1.102,9.58,-0.719,5.865,-1.294,9.347,-1.007,-5.865,0.0,-5.865
1.6,-0.862,9.484,1.15,5.865,1.102,9.628,-0.766,5.865,-1.294,9.347,-1.007,-5.865,0.0,-5.865
1.605,-0.91,9.58,1.198,5.865,1.102,9.724,-0.862,11.73,-1.294,9.491,-1.007,-5.865,0.0,-5.865
1.61,-0.91,9.628,1.245,11.73,1.054,9.628,-0.91,11.73,-1.438,9.491,-1.15,0.0,0.0,-5.865
1.615,-0.91,9.532,1.245,11.73,1.054,9.532,-0.862,11.73,-1.438,9.635,-1.15,0.0,0.0,-11.73
1.62,-0.91,9.388,1.245,11.73,1.15,9.436,-0.862,11.73,-1.438,9.635,-1.15,0.0,0.0,-11.73
1.625,-0.91,9.293,1.245,11.73,1.15,9.341,-0.91,17.595,-1.438,9.491,-1.15,0.0,-5.865,-11.73
1.6300000000000001,-0.91,9.197,1.341,11.73,1.15,9.245,-0.958,17.595,-1.438,9.347,-1.15,0.0,-5.865,-11.73
1.635,-0.958,9.101,1.341,11.73,1.15,9.149,-1.006,17.595,-1.438,9.203,-1.294,0.0,-5.865,-11.73
1.6400000000000001,-0.958,9.005,1.341,11.73,1.198,9.197,-1.006,17.595,-1.438,9.203,-1.294,0.0,-5.865,-17.595
1.645,-0.91,8.957,1.389,11.73,1.15,9.245,-1.054,11.73,-1.438,9.059,-1.294,0.0,-5.865,-11.73
1.6500000000000001,-0.91,8.909,1.437,11.73,1.198,9.101,-1.054,11.73,-1.294,8.772,-1.294,0.0,-5.865,-11.73
1.655,-0.91,8.766,1.485,11.73,1.198,9.053,-1.102,11.73,-1.294,8.628,-1.294,0.0,-5.865,-11.73
1.6600000000000001,-0.91,8.814,1.485,5.865,1.341,9.149,-1.102,5.865,-1.438,8.628,-1.438,5.865,-5.865,-5.865
1.665,-1.054,9.005,1.533,-0.0,1.485,9.293,-1.15,0.0,-1.294,8.628,-1.438,5.865,-5.865,-5.865
1.67,-1.054,9.101,1.629,-0.0,1.389,9.341,-1.293,0.0,-1.438,8.772,-1.438,5.865,-5.865,0.0
1.675,-1.054,9.341,1.677,-0.0,1.389,9.532,-1.245,0.0,-1.438,9.059,-1.582,5.865,-5.865,0.0
1.68,-1.15,9.484,1.629,-5.865,1.485,9.58,-1.198,-5.865,-1.438,9.347,-1.582,5.865,-5.865,5.865
1.685,-1.198,9.724,1.581,-5.865,1.533,9.82,-1.15,-5.865,-1.582,9.491,-1.582,5.865,-5.865,5.865
1.69,-1.245,9.867,1.581,-5.865,1.581,9.915,-1.245,0.0,-1.726,9.778,-1.438,5.865,-5.865,5.865
1.695,-1.245,9.963,1.677,-0.0,1.533,9.867,-1.341,0.0,-1.726,9.922,-1.438,5.865,-5.865,5.865
1.7,-1.245,9.915,1.724,-0.0,1.533,9.676,-1.341,0.0,-1.726,10.066,-1.582,5.865,-5.865,5.865
1.705,-1.245,9.867,1.724,-0.0,1.533,9.628,-1.341,5.865,-1.726,10.066,-1.726,5.865,0.0,0.0
1.71,-1.245,9.82,1.677,5.865,1.533,9.628,-1.293,5.865,-1.726,10.066,-1.726,5.865,0.0,0.0
1.715,-1.198,9.772,1.677,5.865,1.533,9.676,-1.293,5.865,-1.726,10.066,-1.582,5.865,-5.865,-5.865
1.72,-1.15,9.724,1.724,5.865,1.485,9.676,-1.341,11.73,-1.726,9.922,-1.582,5.865,-5.865,-5.865
1.725,-1.15,9.676,1.772,5.865,1.533,9.532,-1.389,11.73,-1.582,9.778,-1.582,0.0,0.0,-5.865
1.73,-1.198,9.58,1.868,5.865,1.581,9.484,-1.485,11.73,-1.582,9.778,-1.726,0.0,0.0,-5.865
1.735,-1.198,9.58,1.916,5.865,1.581,9.484,-1.533,11.73,-1.582,9.778,-1.726,0.0,0.0,-5.865
1.74,-1.198,9.58,1.916,5.865,1.581,9.388,-1.485,11.73,-1.582,9.778,-1.869,0.0,0.0,-5.865
1.745,-1.198,9.484,1.82,5.865,1.581,9.341,-1.389,11.73,-1.582,9.778,-1.869,-5.865,0.0,-5.865
1.75,-1.198,9.436,1.772,5.865,1.581,9.388,-1.389,5.865,-1.582,9.635,-1.726,-5.865,0.0,-5.865
1.7550000000000001,-1.245,9.436,1.772,5.865,1.629,9.293,-1.341,11.73,-1.582,9.635,-1.726,-5.865,0.0,-5.865
1.76,-1.245,9.341,1.82,5.865,1.629,9.149,-1.437,5.865,-1.582,9.635,-1.726,-11.73,0.0,-5.865
1.7650000000000001,-1.245,9.197,1.82,5.865,1.629,9.005,-1.389,5.865,-1.582,9.491,-1.726,-11.73,5.865,-5.865
1.77,-1.245,9.101,1.724,5.865,1.581,9.005,-1.293,5.865,-1.582,9.491,-1.726,-11.73,5.865,-5.865
1.7750000000000001,-1.245,9.101,1.533,5.865,1.485,9.053,-1.054,5.865,-1.726,9.347,-1.582,-17.595,5.865,-5.865
1.78,-1.245,9.053,1.341,5.865,1.437,9.053,-0.958,5.865,-1.726,9.203,-1.438,-17.595,5.865,-5.865
1.7850000000000001,-1.198,9.053,1.245,5.865,1.389,9.101,-0.862,5.865,-1.726,9.203,-1.294,-17.595,5.865,-5.865
1.79,-1.198,9.053,1.15,5.865,1.389,9.101,-0.766,5.865,-1.726,9.059,-1.15,-23.46,5.865,-5.865
1.795,-1.198,9.053,1.15,5.865,1.341,9.197,-0.719,5.865,-1.726,9.059,-1.15,-23.46,5.865,-5.865
1.8,-1.198,9.101,1.054,5.865,1.293,9.436,-0.623,5.865,-1.726,9.059,-1.007,-23.46,0.0,-5.865
1.805,-1.198,9.053,0.862,5.865,1.245,9.628,-0.431,5.865,-1.726,8.916,-1.007,-23.46,0.0,-5.865
1.81,-1.15,8.909,0.719,5.865,1.198,9.772,-0.383,5.865,-1.869,8.628,-0.863,-17.595,0.0,-5.865
1.815,-1.006,8.766,0.766,-0.0,1.15,9.867,-0.431,5.865,-1.726,8.34,-0.719,-17.595,0.0,0.0
1.82,-0.91,8.622,0.814,-0.0,1.198,9.724,-0.479,0.0,-1.582,8.053,-0.719,-11.73,-5.865,0.0
1.825,-0.958,8.478,0.91,-5.865,1.293,9.58,-0.575,-5.865,-1.294,7.765,-0.863,0.0,-5.865,0.0
1.83,-1.006,8.335,1.102,-11.73,1.437,9.436,-0.766,-11.73,-1.294,7.621,-0.863,5.865,-5.865,5.865
1.835,-0.958,8.239,1.293,-11.73,1.485,9.245,-1.006,-17.595,-1.294,7.478,-1.15,23.46,-5.865,11.73
1.84,-1.006,8.239,1.533,-23.46,1.485,8.957,-1.15,-23.46,-1.15,7.478,-1.294,35.191,-5.865,17.595
1.845,-1.006,8.335,1.629,-29.326,1.485,8.766,-1.245,-29.326,-1.15,7.621,-1.438,46.921,0.0,23.46
1.85,-1.054,8.526,1.677,-29.326,1.437,8.67,-1.293,-35.191,-1.294,8.053,-1.582,52.786,0.0,29.326
1.855,-1.054,8.766,1.724,-35.191,1.389,8.718,-1.341,-35.191,-1.294,8.484,-1.582,64.516,5.865,35.191
1.86,-1.054,9.053,1.772,-35.191,1.341,8.766,-1.437,-35.191,-1.438,8.916,-1.582,64.516,5.865,35.191
1.865,-1.054,9.341,1.868,-41.056,1.437,8.957,-1.533,-35.191,-1.438,9.347,-1.726,64.516,5.865,41.056
1.87,-1.102,9.676,1.916,-41.056,1.533,9.101,-1.581,-35.191,-1.438,9.778,-1.726,58.651,5.865,41.056
1.875,-1.15,9.963,1.964,-35.191,1.533,9.245,-1.581,-35.191,-1.438,10.354,-1.869,52.786,5.865,41.056
1.8800000000000001,-1.198,10.251,1.916,-35.191,1.533,9.436,-1.533,-35.191,-1.582,10.641,-1.869,46.921,5.865,41.056
1.885,-1.198,10.538,1.868,-29.326,1.437,9.676,-1.485,-23.46,-1.726,11.073,-1.869,41.056,5.865,35.191
1.8900000000000001,-1.15,10.825,1.82,-23.46,1.389,9.772,-1.437,-17.595,-1.726,11.36,-1.726,29.326,11.73,29.326
1.895,-1.198,11.017,1.772,-17.595,1.341,9.82,-1.437,-11.73,-1.726,11.792,-1.726,17.595,5.865,23.46
1.9000000000000001,-1.15,11.017,1.82,-5.865,1.341,9.963,-1.485,0.0,-1.869,11.935,-1.726,5.865,5.865,17.595
1.905,-1.102,11.017,1.916,-0.0,1.389,9.915,-1.581,5.865,-1.869,12.079,-1.726,-5.865,5.865,5.865
1.9100000000000001,-1.102,10.921,1.916,5.865,1.389,9.772,-1.581,11.73,-1.726,11.935,-1.726,-17.595,0.0,0.0
1.915,-1.15,10.778,1.916,11.73,1.389,9.772,-1.581,23.46,-1.726,11.792,-1.869,-29.326,0.0,-5.865
1.92,-1.102,10.586,1.916,23.46,1.341,9.82,-1.581,29.326,-1.726,11.648,-1.869,-41.056,0.0,-17.595
1.925,-1.006,10.299,1.916,29.326,1.293,9.82,-1.581,29.326,-1.726,11.36,-1.869,-52.786,0.0,-23.46
1.93,-0.91,9.915,1.868,35.191,1.245,9.867,-1.437,35.191,-1.582,10.785,-1.869,-58.651,0.0,-29.326
1.935,-0.862,9.532,1.677,35.191,1.198,10.011,-1.293,35.191,-1.294,10.066,-1.726,-64.516,-5.865,-35.191
1.94,-0.814,9.149,1.533,35.191,1.15,10.251,-1.102,29.326,-1.294,9.347,-1.582,-70.381,-5.865,-35.191
1.945,-0.766,8.862,1.437,29.326,1.102,10.49,-1.006,29.326,-1.15,8.484,-1.438,-70.381,0.0,-29.326
1.95,-0.719,8.622,1.389,23.46,1.102,10.49,-1.054,23.46,-1.15,7.765,-1.438,-58.651,0.0,-23.46
1.955,-0.719,8.478,1.485,11.73,1.102,10.299,-1.198,11.73,-1.007,7.19,-1.438,-46.921,0.0,-17.595
1.96,-0.719,8.287,1.724,5.865,1.245,9.915,-1.437,0.0,-1.007,7.046,-1.582,-29.326,0.0,-11.73
1.965,-0.719,8.287,2.012,-5.865,1.293,9.58,-1.677,-11.73,-1.007,6.902,-1.726,-11.73,0.0,0.0
1.97,-0.814,8.478,2.203,-17.595,1.437,9.245,-1.82,-23.46,-0.863,7.334,-2.013,5.865,5.865,11.73
1.975,-0.958,8.718,2.299,-29.326,1.581,9.053,-1.916,-29.326,-1.007,7.909,-2.157,23.46,11.73,17.595
1.98,-1.006,9.101,2.443,-35.191,1.629,8.957,-2.108,-35.191,-1.15,8.484,-2.301,29.326,17.595,29.326
1.985,-1.054,9.676,2.539,-35.191,1.629,8.909,-2.156,-35.191,-1.15,9.347,-2.445,35.191,17.595,35.191
1.99,-1.198,10.299,2.539,-35.191,1.629,9.197,-2.156,-35.191,-1.294,10.354,-2.445,35.191,23.46,35.191
1.995,-1.341,10.921,2.395,-29.326,1.629,9.532,-1.964,-29.326,-1.582,11.36,-2.445,29.326,23.46,35.191
2.0,-1.389,11.304,2.108,-23.46,1.485,10.011,-1.629,-17.595,-1.869,12.223,-2.301,17.595,23.46,35.191
2.005,-1.293,11.544,1.772,-11.73,1.293,10.346,-1.341,-5.865,-2.157,12.654,-2.013,0.0,23.46,23.46
2.0100000000000002,-1.198,11.544,1.485,-0.0,1.054,10.49,-1.102,5.865,-2.013,12.654,-1.726,-17.595,23.46,11.73
2.015,-1.006,11.448,1.293,11.73,0.862,10.538,-0.91,17.595,-2.013,12.511,-1.294,-29.326,17.595,0.0
2.02,-0.958,11.161,1.15,23.46,0.862,10.49,-0.814,29.326,-1.869,12.223,-1.15,-41.056,17.595,-11.73
2.025,-0.862,10.73,1.054,35.191,0.91,10.538,-0.766,35.191,-1.869,11.648,-1.007,-46.921,11.73,-23.46
2.0300000000000002,-0.766,10.346,1.054,41.056,0.91,10.586,-0.719,41.056,-1.582,10.929,-1.007,-58.651,5.865,-35.191
2.035,-0.671,9.82,1.102,46.921,0.719,10.442,-0.766,46.921,-1.438,10.21,-1.007,-58.651,0.0,-41.056
2.04,-0.479,9.197,1.198,46.921,0.575,10.203,-0.862,46.921,-1.15,9.347,-1.007,-58.651,-5.865,-46.921
2.045,-0.335,8.622,1.245,46.921,0.575,10.107,-0.91,41.056,-1.007,8.34,-1.15,-52.786,-5.865,-46.921
2.05,-0.287,8.143,1.389,35.191,0.719,10.059,-1.102,35.191,-0.863,7.478,-1.294,-41.056,-5.865,-46.921
2.055,-0.287,7.808,1.629,23.46,1.054,9.963,-1.293,17.595,-0.575,6.759,-1.438,-29.326,-5.865,-35.191
2.06,-0.431,7.808,1.868,11.73,1.15,9.82,-1.485,5.865,-0.431,6.183,-1.726,-11.73,-5.865,-23.46
2.065,-0.575,7.999,1.916,-5.865,1.198,9.628,-1.533,-11.73,-0.431,6.183,-1.869,5.865,0.0,-5.865
2.07,-0.719,8.383,1.916,-17.595,1.293,9.628,-1.485,-23.46,-0.719,6.759,-2.013,29.326,5.865,5.865
2.075,-0.719,8.814,1.868,-29.326,1.198,9.58,-1.437,-35.191,-0.863,7.478,-1.869,46.921,11.73,23.46
2.08,-0.814,9.245,1.772,-35.191,1.198,9.484,-1.437,-41.056,-1.007,8.197,-1.869,64.516,17.595,35.191
2.085,-0.862,9.772,1.868,-41.056,1.245,9.436,-1.581,-41.056,-1.15,9.203,-1.726,70.381,17.595,41.056
2.09,-0.958,10.299,2.012,-41.056,1.437,9.436,-1.724,-41.056,-1.294,10.066,-1.726,76.246,17.595,41.056
2.095,-1.102,10.825,2.203,-41.056,1.533,9.436,-1.916,-35.191,-1.438,11.073,-1.869,76.246,17.595,46.921
2.1,-1.198,11.304,2.299,-35.191,1.485,9.532,-1.964,-29.326,-1.582,11.935,-2.013,64.516,17.595,41.056
2.105,-1.198,11.64,2.299,-23.46,1.485,9.772,-1.916,-17.595,-1.726,12.798,-2.157,52.786,17.595,35.191
2.11,-1.245,11.927,2.203,-11.73,1.389,10.107,-1.724,-5.865,-1.869,13.373,-2.157,35.191,17.595,29.326
2.115,-1.198,12.071,1.964,-0.0,1.341,10.586,-1.533,5.865,-2.013,13.517,-2.013,17.595,17.595,17.595
2.12,-1.15,12.167,1.724,11.73,1.198,10.825,-1.341,17.595,-2.013,13.373,-1.869,-5.865,17.595,0.0
2.125,-1.102,12.071,1.533,29.326,1.102,10.873,-1.15,35.191,-1.869,13.373,-1.582,-23.46,11.73,-11.73
2.13,-1.102,11.736,1.341,41.056,1.054,11.017,-1.006,46.921,-2.013,13.086,-1.294,-41.056,5.865,-23.46
2.1350000000000002,-0.958,11.352,1.198,52.786,1.102,11.113,-0.91,58.651,-2.013,12.367,-1.15,-52.786,5.865,-41.056
2.14,-0.814,10.778,1.198,58.651,0.958,10.921,-0.958,64.516,-1.726,11.504,-1.15,-58.651,0.0,-52.786
2.145,-0.719,10.203,1.293,64.516,0.958,10.586,-1.054,64.516,-1.438,10.641,-1.15,-64.516,-5.865,-58.651
2.15,-0.623,9.772,1.485,64.516,0.91,10.442,-1.198,64.516,-1.15,9.778,-1.294,-64.516,-5.865,-64.516
2.1550000000000002,-0.671,9.484,1.533,64.516,1.006,10.442,-1.198,64.516,-1.15,9.347,-1.438,-58.651,-5.865,-64.516
2.16,-0.719,9.245,1.533,58.651,1.054,10.442,-1.15,52.786,-1.007,8.772,-1.582,-52.786,-5.865,-64.516
2.165,-0.766,9.005,1.533,52.786,1.102,10.538,-1.198,46.921,-1.15,8.34,-1.582,-41.056,-5.865,-58.651
2.17,-0.766,8.814,1.677,41.056,1.198,10.538,-1.293,35.191,-1.15,7.909,-1.582,-35.191,-5.865,-46.921
2.1750000000000003,-0.766,8.67,1.724,29.326,1.293,10.442,-1.341,23.46,-1.007,7.478,-1.726,-17.595,-5.865,-41.056
2.18,-0.814,8.718,1.772,17.595,1.437,10.346,-1.437,17.595,-1.007,7.334,-1.726,-5.865,-5.865,-29.326
2.185,-0.958,9.053,1.868,5.865,1.437,10.251,-1.533,5.865,-1.007,7.478,-1.869,5.865,0.0,-17.595
2.19,-1.102,9.436,1.964,-0.0,1.485,10.203,-1.581,0.0,-1.15,8.197,-1.869,29.326,0.0,-5.865
2.195,-1.198,9.82,1.916,-5.865,1.629,10.299,-1.581,-5.865,-1.438,8.916,-1.869,46.921,5.865,0.0
2.2,-1.293,10.107,1.916,-11.73,1.629,10.251,-1.533,-5.865,-1.582,9.491,-1.869,52.786,5.865,5.865
2.205,-1.341,10.346,1.868,-11.73,1.629,10.203,-1.485,-5.865,-1.726,10.066,-1.869,58.651,5.865,11.73
2.21,-1.341,10.49,1.868,-5.865,1.581,10.059,-1.485,-5.865,-1.869,10.497,-1.726,64.516,5.865,11.73
2.215,-1.341,10.442,1.82,-5.865,1.581,9.867,-1.485,0.0,-1.869,10.785,-1.726,64.516,5.865,11.73
2.22,-1.389,10.299,1.82,-0.0,1.629,9.676,-1.485,5.865,-1.869,10.929,-1.726,58.651,5.865,5.865
2.225,-1.389,10.155,1.868,5.865,1.629,9.628,-1.437,5.865,-2.013,10.785,-1.726,52.786,5.865,0.0
2.23,-1.389,10.059,1.82,11.73,1.629,9.628,-1.437,11.73,-1.869,10.641,-1.726,46.921,0.0,-5.865
2.235,-1.341,9.963,1.772,11.73,1.629,9.676,-1.341,17.595,-1.869,10.497,-1.726,41.056,0.0,-5.865
2.24,-1.341,9.82,1.724,17.595,1.629,9.628,-1.341,23.46,-1.869,10.21,-1.726,41.056,0.0,-11.73
2.245,-1.293,9.628,1.724,23.46,1.581,9.532,-1.341,23.46,-1.869,10.066,-1.582,35.191,0.0,-17.595
2.25,-1.293,9.436,1.772,23.46,1.581,9.388,-1.389,29.326,-1.869,9.778,-1.582,29.326,0.0,-23.46
2.255,-1.293,9.245,1.82,23.46,1.629,9.149,-1.437,29.326,-1.726,9.491,-1.726,29.326,0.0,-23.46
2.2600000000000002,-1.293,9.005,1.82,23.46,1.629,8.957,-1.437,29.326,-1.726,9.347,-1.726,29.326,0.0,-23.46
2.265,-1.293,8.814,1.82,23.46,1.677,8.766,-1.437,23.46,-1.726,9.059,-1.726,29.326,0.0,-23.46
2.27,-1.293,8.67,1.82,23.46,1.677,8.862,-1.389,23.46,-1.726,8.916,-1.869,29.326,0.0,-23.46
2.275,-1.341,8.67,1.629,17.595,1.724,8.814,-1.15,17.595,-1.582,8.628,-1.726,29.326,0.0,-17.595
2.2800000000000002,-1.389,8.67,1.533,17.595,1.724,8.909,-1.102,17.595,-1.726,8.628,-1.582,29.326,0.0,-17.595
2.285,-1.389,8.718,1.485,11.73,1.677,8.957,-1.054,11.73,-1.726,8.628,-1.438,29.326,5.865,-11.73
2.29,-1.437,8.67,1.437,11.73,1.724,8.909,-1.006,11.73,-1.726,8.484,-1.438,29.326,5.865,-11.73
2.295,-1.437,8.67,1.389,11.73,1.772,8.909,-1.006,11.73,-1.869,8.484,-1.294,29.326,5.865,-11.73
2.3000000000000003,-1.485,8.67,1.389,11.73,1.724,8.909,-1.006,11.73,-1.869,8.484,-1.294,35.191,5.865,-11.73
2.305,-1.485,8.718,1.341,11.73,1.677,8.957,-0.958,11.73,-1.869,8.484,-1.294,35.191,5.865,-11.73
2.31,-1.485,8.766,1.341,11.73,1.677,8.909,-0.91,11.73,-1.869,8.628,-1.294,35.191,5.865,-11.73
2.315,-1.533,8.862,1.245,11.73,1.772,8.957,-0.862,11.73,-2.013,8.772,-1.294,41.056,5.865,-11.73
2.32,-1.581,8.909,1.245,11.73,1.772,9.053,-0.862,17.595,-2.013,8.772,-1.15,41.056,5.865,-11.73
2.325,-1.581,9.005,1.245,17.595,1.772,9.005,-0.814,17.595,-2.013,8.916,-1.15,41.056,0.0,-11.73
2.33,-1.629,8.909,1.198,17.595,1.724,8.862,-0.862,17.595,-2.157,8.916,-1.15,41.056,0.0,-11.73
2.335,-1.581,8.814,1.198,23.46,1.772,8.766,-0.766,23.46,-2.157,8.916,-1.15,41.056,0.0,-17.595
2.34,-1.581,8.718,1.102,23.46,1.82,8.718,-0.671,29.326,-2.157,8.916,-1.15,41.056,0.0,-17.595
2.345,-1.677,8.67,1.006,29.326,1.916,8.766,-0.575,29.326,-2.157,8.772,-1.007,41.056,0.0,-23.46
2.35,-1.724,8.622,0.91,29.326,2.012,8.814,-0.479,35.191,-2.157,8.628,-0.863,41.056,-5.865,-23.46
2.355,-1.772,8.526,0.862,35.191,2.06,8.718,-0.431,41.056,-2.157,8.484,-0.863,41.056,-5.865,-29.326
2.36,-1.82,8.383,0.814,41.056,2.06,8.526,-0.431,46.921,-2.157,8.34,-0.863,41.056,-5.865,-35.191
2.365,-1.916,8.047,0.766,46.921,2.156,8.287,-0.383,52.786,-2.301,8.197,-0.719,46.921,-5.865,-41.056
2.37,-2.012,7.616,0.719,52.786,2.156,7.856,-0.383,58.651,-2.445,7.765,-0.719,46.921,-5.865,-46.921
2.375,-2.06,7.041,0.862,58.651,2.203,6.993,-0.623,64.516,-2.445,7.19,-0.719,52.786,-5.865,-52.786
2.38,-2.06,6.131,1.341,64.516,2.156,5.604,-1.15,70.381,-2.588,6.759,-0.863,52.786,-5.865,-58.651
2.3850000000000002,-2.06,4.934,1.82,70.381,2.203,4.072,-1.485,76.246,-2.445,6.04,-1.294,58.651,-5.865,-64.516
2.39,-1.868,3.401,2.108,76.246,1.964,2.06,-1.772,76.246,-2.301,5.177,-1.726,64.516,-11.73,-70.381
2.395,-1.341,1.198,2.539,76.246,1.341,-1.198,-2.251,76.246,-2.013,3.739,-2.013,58.651,-11.73,-76.246
2.4,-0.766,-1.629,2.874,70.381,0.814,-4.455,-2.299,70.381,-1.294,2.013,-2.445,58.651,-11.73,-76.246
2.4050000000000002,-0.287,-4.359,2.826,58.651,0.287,-6.85,-2.156,46.921,-0.719,-0.288,-2.732,46.921,-11.73,-70.381
2.41,0.144,-6.227,2.539,29.326,0.096,-8.095,-1.724,17.595,0.0,-2.876,-2.732,29.326,-5.865,-58.651
2.415,0.383,-7.425,2.251,-0.0,-0.575,-8.67,-1.677,-17.595,0.575,-4.745,-2.445,5.865,-5.865,-29.326
2.42,0.91,-8.095,2.395,-35.191,-0.814,-9.197,-1.964,-46.921,1.007,-6.327,-2.157,-11.73,-5.865,5.865
2.4250000000000003,1.102,-8.909,3.066,-64.516,-0.335,-9.82,-2.826,-82.111,1.438,-7.19,-2.301,-29.326,0.0,35.191
2.43,1.054,-10.011,4.311,-105.572,0.623,-10.49,-4.167,-123.167,1.869,-8.197,-3.02,-41.056,0.0,70.381
2.435,1.054,-10.682,5.844,-146.628,1.198,-10.634,-5.461,-164.223,2.732,-9.491,-4.314,-52.786,5.865,105.572
2.44,1.15,-9.772,6.85,-187.683,1.054,-8.67,-6.275,-205.279,3.451,-10.354,-5.896,-64.516,17.595,146.628
2.445,1.437,-6.946,7.281,-222.874,0.24,-5.317,-6.61,-234.604,3.739,-9.635,-6.902,-70.381,41.056,187.683
2.45,1.293,-2.539,7.041,-246.334,-4.742,14.274,-2.778,-263.93,3.595,-6.759,-7.334,-76.246,64.516,222.874
2.455,-3.545,23.567,-11.4,-258.064,2.395,-22.178,13.604,-170.088,2.588,-2.301,-7.046,-76.246,93.842,258.064
2.46,-17.579,23.902,-11.975,-175.953,-24.333,23.519,1.677,-70.381,22.289,36.813,10.21,-17.595,117.302,263.93
2.465,2.299,23.902,-16.43,17.595,13.316,24.237,20.262,41.056,-63.991,73.626,18.694,111.437,222.874,170.088
2.47,8.67,10.155,-14.801,64.516,-4.934,23.902,6.371,58.651,5.177,56.513,18.406,-310.85,-76.246,-17.595
2.475,6.227,-0.575,3.401,99.707,2.395,0.0,-5.892,123.167,18.406,-0.288,14.524,-387.097,-258.064,-64.516
2.48,-2.491,-3.353,9.053,146.628,9.341,1.581,-8.718,134.897,12.223,-8.34,-4.17,-293.255,-170.088,-99.707
2.485,-5.077,2.635,8.957,99.707,6.754,12.358,-7.616,58.651,0.144,-4.314,-9.203,-181.818,-87.977,-146.628
2.49,-3.209,11.161,7.472,-5.865,4.407,19.447,-6.323,-52.786,-3.02,-0.719,-9.203,-134.897,-35.191,-99.707
2.495,-3.736,16.238,5.413,-99.707,5.988,22.274,-4.503,-117.302,-3.02,6.759,-7.765,-105.572,5.865,11.73
2.5,-5.077,17.196,4.79,-123.167,6.898,21.459,-4.646,-117.302,-4.026,11.792,-5.752,-58.651,35.191,105.572
2.505,-3.976,15.711,4.742,-105.572,3.784,17.771,-3.976,-99.707,-4.602,12.798,-5.177,0.0,46.921,129.032
2.5100000000000002,-1.964,14.131,3.736,-93.842,0.479,13.699,-3.688,-87.977,-4.026,12.654,-4.889,58.651,64.516,105.572
2.515,-1.341,12.837,3.401,-87.977,-0.144,10.442,-3.449,-87.977,-3.451,12.942,-3.739,99.707,76.246,93.842
2.52,-2.395,11.64,3.114,-93.842,2.299,9.197,-3.066,-93.842,-3.883,13.805,-3.02,129.032,70.381,93.842
2.525,-3.209,11.161,3.784,-93.842,3.545,9.867,-3.976,-87.977,-4.458,13.373,-2.732,123.167,52.786,93.842
2.5300000000000002,-3.066,11.736,4.551,-76.246,3.64,10.682,-4.167,-64.516,-4.17,12.367,-3.595,105.572,29.326,93.842
2.535,-2.778,11.975,4.167,-46.921,3.209,10.73,-3.784,-29.326,-3.451,12.511,-4.458,87.977,17.595,76.246
2.54,-2.108,11.736,3.88,-11.73,2.491,10.73,-3.114,0.0,-3.02,12.942,-4.026,76.246,17.595,46.921
2.545,-1.389,11.304,2.682,11.73,1.581,10.299,-1.868,17.595,-2.445,12.511,-3.739,64.516,17.595,11.73
2.5500000000000003,-0.479,10.969,1.868,23.46,0.671,10.251,-1.198,23.46,-1.726,11.935,-2.588,58.651,17.595,-11.73
2.555,-0.144,10.969,1.245,29.326,0.431,10.059,-0.623,29.326,-0.863,11.648,-1.726,46.921,23.46,-17.595
2.56,-0.24,10.921,0.623,29.326,0.335,10.011,-0.096,29.326,-0.719,11.648,-1.15,41.056,23.46,-23.46
2.565,-0.048,10.825,0.335,29.326,0.383,9.915,0.287,35.191,-1.007,11.792,-0.431,29.326,23.46,-29.326
2.57,0.0,10.442,0.096,29.326,0.335,10.203,0.431,29.326,-0.719,11.504,-0.144,23.46,23.46,-23.46
2.575,-0.144,10.107,-0.096,29.326,0.479,10.011,0.527,29.326,-0.575,10.641,-0.0,5.865,17.595,-23.46
2.58,-0.144,9.58,-0.096,29.326,0.431,9.724,0.575,23.46,-0.719,10.21,0.288,5.865,17.595,-23.46
2.585,-0.192,9.388,-0.287,17.595,0.575,9.676,0.671,17.595,-0.719,9.491,0.144,5.865,17.595,-23.46
2.59,-0.287,9.341,-0.287,11.73,0.527,9.628,0.623,11.73,-0.575,9.203,0.431,5.865,17.595,-17.595
2.595,-0.383,9.341,-0.287,11.73,0.479,9.436,0.671,11.73,-0.863,9.203,0.288,5.865,11.73,-11.73
2.6,-0.383,9.245,-0.287,5.865,0.479,9.245,0.623,5.865,-1.007,9.347,0.431,5.865,11.73,-11.73
2.605,-0.383,9.197,-0.144,5.865,0.575,9.245,0.383,5.865,-1.15,9.347,0.431,5.865,11.73,-5.865
2.61,-0.479,9.149,0.096,5.865,0.719,9.149,0.096,5.865,-1.007,9.203,0.288,17.595,5.865,-5.865
2.615,-0.623,9.197,0.383,5.865,0.862,9.101,-0.096,5.865,-1.15,9.203,-0.0,17.595,5.865,-5.865
2.62,-0.671,9.101,0.575,5.865,0.958,9.053,-0.287,5.865,-1.15,9.347,-0.288,17.595,5.865,-5.865
2.625,-0.671,9.197,0.766,5.865,0.958,9.149,-0.479,5.865,-1.15,9.347,-0.575,17.595,0.0,0.0
2.63,-0.671,9.341,0.91,5.865,0.862,9.197,-0.527,5.865,-1.15,9.347,-0.719,5.865,0.0,0.0
2.6350000000000002,-0.719,9.293,0.958,5.865,0.91,9.005,-0.575,11.73,-1.15,9.491,-0.863,5.865,0.0,0.0
2.64,-0.671,9.101,1.006,5.865,0.958,8.862,-0.671,11.73,-1.294,9.491,-0.863,5.865,0.0,-5.865
2.645,-0.671,8.909,1.102,11.73,0.91,8.718,-0.719,11.73,-1.15,9.347,-0.863,5.865,0.0,-5.865
2.65,-0.623,8.814,1.15,11.73,0.91,8.622,-0.814,11.73,-1.007,9.059,-1.007,5.865,0.0,-11.73
2.6550000000000002,-0.671,8.718,1.198,11.73,0.958,8.526,-0.814,17.595,-1.007,9.059,-1.15,5.865,-5.865,-11.73
2.66,-0.671,8.622,1.245,11.73,1.006,8.478,-0.814,17.595,-1.15,8.916,-1.15,5.865,-5.865,-11.73
2.665,-0.671,8.574,1.245,11.73,0.91,8.718,-0.862,17.595,-1.007,8.772,-1.15,0.0,-5.865,-11.73
2.67,-0.575,8.766,1.15,11.73,0.862,8.383,-0.766,17.595,-1.007,8.772,-1.15,0.0,-5.865,-11.73
2.6750000000000003,-0.623,8.526,1.245,11.73,1.054,8.383,-0.91,11.73,-1.007,8.772,-1.007,0.0,-5.865,-11.73
2.68,-0.671,8.526,1.389,5.865,1.15,8.622,-0.958,11.73,-1.15,8.628,-1.15,0.0,-5.865,-11.73
2.685,-0.766,8.67,1.389,11.73,1.102,8.909,-1.006,11.73,-1.007,8.628,-1.294,-5.865,-5.865,-11.73
2.69,-0.671,8.909,1.485,11.73,1.054,9.005,-1.102,11.73,-1.007,8.772,-1.294,-5.865,-5.865,-11.73
2.695,-0.671,9.053,1.533,11.73,1.15,9.053,-1.15,11.73,-1.007,8.916,-1.438,-5.865,-5.865,-11.73
2.7,-0.766,9.149,1.677,5.865,1.15,9.197,-1.341,11.73,-1.007,9.059,-1.438,-5.865,0.0,-5.865
2.705,-0.766,9.197,1.82,5.865,1.198,9.245,-1.485,11.73,-1.15,9.203,-1.582,-5.865,0.0,-5.865
2.71,-0.814,9.197,1.916,5.865,1.198,9.197,-1.581,11.73,-1.15,9.203,-1.726,-5.865,0.0,-5.865
2.715,-0.766,9.197,2.012,5.865,1.198,9.197,-1.629,5.865,-1.15,9.203,-1.869,-5.865,0.0,-5.865
2.72,-0.766,9.245,2.012,5.865,1.198,9.341,-1.629,5.865,-1.15,9.347,-2.013,-5.865,0.0,-5.865
2.725,-0.766,9.436,1.964,-0.0,1.245,9.628,-1.533,5.865,-1.15,9.347,-2.013,-5.865,0.0,0.0
2.73,-0.814,9.628,1.916,-0.0,1.198,9.772,-1.533,5.865,-1.15,9.491,-1.869,-5.865,0.0,0.0
2.735,-0.814,9.724,1.916,-0.0,1.198,9.724,-1.581,5.865,-1.294,9.635,-1.869,-5.865,0.0,0.0
2.74,-0.862,9.676,1.964,-0.0,1.198,9.676,-1.581,5.865,-1.294,9.778,-1.869,-5.865,0.0,0.0
2.745,-0.814,9.628,1.916,-0.0,1.15,9.628,-1.581,5.865,-1.294,9.778,-1.869,-5.865,5.865,0.0
2.75,-0.766,9.628,1.964,-0.0,1.198,9.628,-1.533,0.0,-1.294,9.778,-1.869,-5.865,5.865,0.0
2.755,-0.862,9.58,1.916,-0.0,1.245,9.628,-1.485,5.865,-1.294,9.635,-1.869,-5.865,5.865,0.0
2.7600000000000002,-0.91,9.628,1.82,-0.0,1.293,9.676,-1.437,5.865,-1.294,9.635,-1.869,-5.865,5.865,0.0
2.765,-0.91,9.724,1.82,-0.0,1.198,9.724,-1.437,0.0,-1.294,9.635,-1.869,-5.865,5.865,0.0
2.77,-0.862,9.724,1.82,-0.0,1.198,9.676,-1.485,5.865,-1.294,9.778,-1.726,-5.865,5.865,0.0
2.775,-0.862,9.676,1.868,-0.0,1.198,9.532,-1.437,5.865,-1.294,9.778,-1.869,-5.865,5.865,0.0
2.7800000000000002,-0.91,9.628,1.772,-0.0,1.245,9.484,-1.389,5.865,-1.294,9.778,-1.869,-5.865,5.865,0.0
2.785,-0.91,9.628,1.724,5.865,1.245,9.532,-1.341,5.865,-1.438,9.778,-1.726,-5.865,5.865,0.0
2.79,-0.958,9.676,1.677,5.865,1.245,9.58,-1.293,5.865,-1.438,9.778,-1.726,-11.73,5.865,0.0
2.795,-0.958,9.676,1.629,5.865,1.245,9.532,-1.293,5.865,-1.438,9.778,-1.582,-11.73,5.865,0.0
2.8000000000000003,-0.958,9.628,1.677,5.865,1.293,9.58,-1.293,5.865,-1.438,9.778,-1.582,-11.73,5.865,0.0
2.805,-0.958,9.532,1.677,5.865,1.293,9.58,-1.293,5.865,-1.438,9.778,-1.582,-17.595,5.865,0.0
2.81,-0.91,9.484,1.677,5.865,1.245,9.628,-1.293,5.865,-1.438,9.491,-1.582,-17.595,5.865,-5.865
2.815,-0.91,9.436,1.629,5.865,1.293,9.676,-1.198,5.865,-1.294,9.491,-1.582,-17.595,5.865,-5.865
2.82,-1.006,9.388,1.581,5.865,1.389,9.628,-1.198,5.865,-1.294,9.347,-1.582,-17.595,5.865,0.0
2.825,-1.054,9.388,1.581,5.865,1.389,9.58,-1.245,5.865,-1.438,9.347,-1.582,-17.595,5.865,0.0
2.83,-1.054,9.388,1.629,-0.0,1.437,9.532,-1.245,5.865,-1.438,9.347,-1.582,-11.73,5.865,0.0
2.835,-1.102,9.388,1.677,5.865,1.389,9.484,-1.293,5.865,-1.438,9.347,-1.582,-11.73,5.865,0.0
2.84,-1.102,9.388,1.677,5.865,1.437,9.436,-1.293,5.865,-1.582,9.347,-1.582,-11.73,5.865,0.0
2.845,-1.054,9.388,1.724,5.865,1.437,9.532,-1.341,5.865,-1.582,9.347,-1.582,-5.865,5.865,0.0
2.85,-1.054,9.436,1.724,-0.0,1.389,9.532,-1.341,5.865,-1.438,9.347,-1.726,-5.865,5.865,0.0
2.855,-1.054,9.484,1.677,-0.0,1.389,9.532,-1.293,5.865,-1.438,9.491,-1.726,-5.865,5.865,0.0
2.86,-1.054,9.484,1.629,5.865,1.341,9.532,-1.293,5.865,-1.582,9.491,-1.582,-5.865,5.865,0.0
2.865,-1.054,9.484,1.629,-0.0,1.389,9.532,-1.245,5.865,-1.582,9.491,-1.582,-5.865,5.865,0.0
2.87,-1.054,9.484,1.629,-0.0,1.389,9.484,-1.245,5.865,-1.582,9.491,-1.582,-5.865,5.865,0.0
2.875,-1.054,9.436,1.677,-0.0,1.341,9.484,-1.293,5.865,-1.582,9.491,-1.582,-5.865,5.865,0.0
2.88,-1.006,9.484,1.677,5.865,1.341,9.532,-1.293,5.865,-1.582,9.491,-1.582,-5.865,5.865,0.0
2.8850000000000002,-1.054,9.484,1.724,5.865,1.341,9.532,-1.341,5.865,-1.438,9.491,-1.582,-5.865,5.865,0.0
2.89,-1.006,9.484,1.724,5.865,1.293,9.58,-1.341,5.865,-1.582,9.491,-1.582,-5.865,5.865,0.0
2.895,-1.006,9.484,1.724,5.865,1.293,9.532,-1.341,5.865,-1.582,9.491,-1.726,-5.865,5.865,-5.865
2.9,-1.006,9.436,1.724,5.865,1.341,9.58,-1.341,5.865,-1.582,9.491,-1.582,-5.865,5.865,-5.865
2.9050000000000002,-1.006,9.484,1.724,5.865,1.341,9.58,-1.389,5.865,-1.438,9.491,-1.582,-5.865,0.0,-5.865
2.91,-1.054,9.532,1.772,5.865,1.341,9.628,-1.437,5.865,-1.582,9.491,-1.726,-5.865,0.0,0.0
2.915,-1.054,9.58,1.82,5.865,1.341,9.628,-1.437,5.865,-1.582,9.491,-1.726,-5.865,0.0,-5.865
2.92,-1.006,9.58,1.868,5.865,1.341,9.58,-1.485,5.865,-1.438,9.635,-1.726,-5.865,0.0,-5.865
2.9250000000000003,-1.006,9.58,1.868,5.865,1.293,9.532,-1.533,5.865,-1.438,9.635,-1.869,-5.865,0.0,0.0
2.93,-0.958,9.532,1.916,5.865,1.293,9.484,-1.533,5.865,-1.438,9.635,-1.869,-5.865,0.0,-5.865
2.935,-1.006,9.484,1.868,5.865,1.341,9.436,-1.533,5.865,-1.438,9.635,-1.869,-5.865,0.0,-5.865
2.94,-0.958,9.388,1.916,5.865,1.341,9.388,-1.533,5.865,-1.438,9.491,-1.869,-5.865,0.0,-5.865
2.945,-0.958,9.341,1.964,5.865,1.341,9.388,-1.581,5.865,-1.438,9.491,-1.869,-5.865,0.0,0.0
2.95,-0.958,9.341,1.964,5.865,1.293,9.436,-1.581,5.865,-1.294,9.347,-1.869,-5.865,0.0,0.0
2.955,-0.91,9.388,2.012,5.865,1.245,9.532,-1.581,5.865,-1.294,9.347,-1.869,-5.865,0.0,-5.865
2.96,-0.91,9.436,1.964,5.865,1.245,9.58,-1.533,5.865,-1.294,9.347,-1.869,-5.865,0.0,-5.865
2.965,-0.958,9.484,1.916,5.865,1.245,9.58,-1.533,5.865,-1.294,9.491,-1.869,-5.865,5.865,0.0
2.97,-0.91,9.484,1.868,5.865,1.198,9.532,-1.485,5.865,-1.438,9.491,-1.869,-5.865,5.865,0.0
2.975,-0.862,9.436,1.916,5.865,1.102,9.436,-1.533,5.865,-1.438,9.491,-1.869,-5.865,5.865,0.0
2.98,-0.814,9.388,1.916,5.865,1.198,9.341,-1.581,5.865,-1.294,9.491,-1.869,-5.865,0.0,-5.865
2.985,-0.862,9.293,1.964,5.865,1.245,9.293,-1.533,5.865,-1.294,9.491,-1.869,-5.865,0.0,-5.865
2.99,-0.91,9.245,1.916,5.865,1.293,9.245,-1.533,5.865,-1.294,9.347,-1.869,0.0,0.0,-5.865
2.995,-0.91,9.197,1.916,5.865,1.245,9.149,-1.485,5.865,-1.294,9.347,-1.869,-5.865,0.0,-5.865
3.0,-0.862,9.149,1.868,5.865,1.198,9.101,-1.485,5.865,-1.294,9.347,-1.869,-5.865,0.0,-5.865
3.005,-0.862,9.101,1.82,5.865,1.198,9.101,-1.437,5.865,-1.294,9.347,-1.869,-5.865,0.0,-5.865
3.0100000000000002,-0.91,9.101,1.772,5.865,1.198,9.149,-1.341,5.865,-1.294,9.203,-1.726,-5.865,0.0,0.0
3.015,-0.91,9.101,1.677,5.865,1.245,9.149,-1.293,5.865,-1.294,9.203,-1.726,-5.865,0.0,-5.865
3.02,-0.958,9.101,1.677,5.865,1.245,9.101,-1.293,5.865,-1.294,9.203,-1.582,-5.865,0.0,0.0
3.025,-0.958,9.101,1.724,5.865,1.198,9.101,-1.341,5.865,-1.438,9.203,-1.582,-5.865,5.865,0.0
3.0300000000000002,-0.91,9.149,1.772,5.865,1.245,9.197,-1.389,5.865,-1.438,9.203,-1.582,-5.865,0.0,-5.865
3.035,-1.006,9.245,1.724,5.865,1.341,9.293,-1.341,5.865,-1.438,9.203,-1.726,-5.865,0.0,-5.865
3.04,-1.102,9.293,1.677,5.865,1.389,9.341,-1.293,5.865,-1.438,9.347,-1.582,-5.865,0.0,-5.865
3.045,-1.054,9.341,1.677,5.865,1.341,9.341,-1.341,5.865,-1.582,9.347,-1.582,-5.865,0.0,-5.865
3.0500000000000003,-1.102,9.341,1.724,5.865,1.341,9.293,-1.341,5.865,-1.582,9.491,-1.582,-5.865,0.0,-5.865
3.055,-1.102,9.341,1.724,5.865,1.389,9.293,-1.341,5.865,-1.582,9.491,-1.726,-5.865,0.0,-5.865
3.06,-1.102,9.341,1.724,5.865,1.437,9.341,-1.389,11.73,-1.582,9.491,-1.582,-11.73,0.0,-5.865
3.065,-1.102,9.341,1.772,5.865,1.437,9.388,-1.437,11.73,-1.582,9.347,-1.726,-11.73,0.0,-5.865
3.0700000000000003,-1.15,9.388,1.82,5.865,1.533,9.532,-1.389,5.865,-1.582,9.347,-1.726,-11.73,0.0,-5.865
3.075,-1.198,9.532,1.772,5.865,1.485,9.724,-1.389,5.865,-1.582,9.347,-1.726,-11.73,0.0,-5.865
3.08,-1.198,9.676,1.772,5.865,1.485,9.82,-1.389,5.865,-1.726,9.491,-1.726,-11.73,0.0,-5.865
3.085,-1.245,9.772,1.772,5.865,1.533,9.915,-1.389,5.865,-1.726,9.635,-1.726,-11.73,0.0,-5.865
3.09,-1.293,9.772,1.772,5.865,1.629,9.915,-1.437,5.865,-1.869,9.778,-1.726,-11.73,-5.865,-5.865
3.095,-1.293,9.772,1.868,5.865,1.629,9.915,-1.485,5.865,-1.869,9.778,-1.726,-5.865,-5.865,-5.865
3.1,-1.293,9.724,1.916,5.865,1.724,9.867,-1.533,5.865,-1.869,9.635,-1.726,-5.865,-5.865,-5.865
3.105,-1.341,9.772,1.916,5.865,1.724,9.772,-1.533,5.865,-1.726,9.778,-1.869,-5.865,-5.865,-5.865
3.11,-1.389,9.772,1.916,5.865,1.724,9.628,-1.533,5.865,-1.869,9.778,-1.869,-5.865,-5.865,-5.865
3.115,-1.437,9.82,1.868,5.865,1.724,9.484,-1.485,5.865,-1.869,9.922,-1.869,-5.865,-5.865,-5.865
3.12,-1.389,9.82,1.82,5.865,1.677,9.388,-1.437,11.73,-1.869,10.066,-1.726,-5.865,-5.865,-5.865
3.125,-1.389,9.867,1.82,11.73,1.82,9.197,-1.437,11.73,-2.013,10.21,-1.726,-5.865,-5.865,-5.865
3.13,-1.437,10.011,1.868,11.73,1.581,8.718,-1.533,17.595,-1.869,10.354,-1.726,-11.73,-5.865,-11.73
3.1350000000000002,-1.485,10.251,1.964,17.595,1.581,8.335,-1.677,23.46,-2.013,10.929,-1.726,-17.595,-5.865,-11.73
3.14,-1.581,10.394,2.012,29.326,1.629,8.191,-1.724,29.326,-2.301,11.648,-1.726,-29.326,-11.73,-17.595
3.145,-1.629,10.634,2.012,35.191,1.677,8.574,-1.724,41.056,-2.445,12.223,-1.726,-46.921,-11.73,-23.46
3.15,-1.677,10.873,1.916,46.921,1.772,8.957,-1.629,52.786,-2.445,12.367,-1.726,-64.516,-17.595,-35.191
3.1550000000000002,-1.629,11.065,1.724,58.651,1.677,9.101,-1.533,58.651,-2.445,12.511,-1.582,-87.977,-23.46,-46.921
3.16,-1.485,10.921,1.677,70.381,1.485,9.053,-1.581,76.246,-2.445,12.654,-1.438,-111.437,-29.326,-58.651
3.165,-1.389,10.586,1.677,82.111,1.437,9.245,-1.581,82.111,-2.301,12.367,-1.294,-134.897,-35.191,-70.381
3.17,-1.341,10.251,1.485,87.977,1.293,9.724,-1.437,93.842,-2.157,11.792,-1.294,-152.493,-41.056,-82.111
3.1750000000000003,-1.341,9.724,1.437,93.842,1.437,10.011,-1.437,99.707,-2.157,10.785,-1.15,-170.088,-46.921,-87.977
3.18,-1.245,9.149,1.533,99.707,1.485,10.299,-1.581,99.707,-2.013,9.635,-1.15,-181.818,-46.921,-93.842
3.185,-1.245,8.478,1.772,99.707,1.724,10.538,-1.724,93.842,-1.869,8.34,-1.294,-181.818,-52.786,-99.707
3.19,-1.389,7.808,2.06,93.842,2.012,10.346,-2.06,87.977,-1.582,6.902,-1.582,-170.088,-58.651,-93.842
3.1950000000000003,-1.485,7.137,2.778,82.111,2.06,10.155,-2.539,76.246,-1.582,5.752,-2.013,-158.358,-58.651,-87.977
3.2,-1.437,6.467,2.874,64.516,2.347,10.107,-2.491,58.651,-1.582,4.745,-2.876,-134.897,-58.651,-76.246
3.205,-1.437,6.131,2.922,46.921,2.539,10.107,-2.539,35.191,-1.294,3.595,-3.02,-105.572,-52.786,-64.516
3.21,-1.533,6.035,3.066,23.46,2.443,9.915,-2.682,11.73,-1.15,3.02,-3.164,-70.381,-46.921,-41.056
3.215,-1.677,6.514,3.161,5.865,2.635,9.724,-2.826,0.0,-1.294,3.02,-3.307,-29.326,-41.056,-17.595
3.22,-1.868,7.137,3.401,-11.73,2.539,9.436,-3.114,-17.595,-1.438,3.883,-3.307,5.865,-29.326,0.0
3.225,-2.012,7.76,3.545,-29.326,2.491,9.197,-3.257,-35.191,-1.869,5.177,-3.451,46.921,-23.46,11.73
3.23,-2.156,8.287,3.593,-41.056,2.73,9.149,-3.353,-46.921,-2.301,6.615,-3.595,76.246,-17.595,29.326
3.235,-2.251,8.67,3.64,-46.921,2.778,8.957,-3.401,-52.786,-2.445,7.621,-3.595,93.842,-11.73,41.056
3.24,-2.251,9.053,3.688,-52.786,2.73,8.766,-3.401,-52.786,-2.588,8.34,-3.595,99.707,-11.73,46.921
3.245,-2.299,9.484,3.688,-52.786,2.682,8.574,-3.401,-52.786,-2.732,9.203,-3.595,105.572,-5.865,52.786
3.25,-2.347,9.867,3.688,-46.921,2.635,8.478,-3.401,-46.921,-2.876,10.21,-3.595,105.572,-5.865,52.786
3.255,-2.395,10.251,3.736,-46.921,2.587,8.478,-3.449,-41.056,-3.02,10.929,-3.451,99.707,-5.865,52.786
3.2600000000000002,-2.395,10.586,3.736,-35.191,2.539,8.622,-3.401,-29.326,-3.02,11.648,-3.451,87.977,-11.73,46.921
3.265,-2.443,10.873,3.736,-23.46,2.587,8.766,-3.449,-17.595,-3.164,12.223,-3.595,70.381,-11.73,35.191
3.27,-2.491,10.969,3.832,-11.73,2.587,8.957,-3.545,-5.865,-3.307,12.654,-3.595,46.921,-17.595,29.326
3.275,-2.539,10.825,3.88,-0.0,2.778,9.101,-3.593,5.865,-3.307,12.654,-3.595,23.46,-23.46,11.73
3.2800000000000002,-2.443,10.49,3.88,11.73,2.682,9.197,-3.593,17.595,-3.307,12.223,-3.739,5.865,-23.46,0.0
3.285,-2.347,10.203,3.832,23.46,2.539,9.245,-3.497,23.46,-3.164,11.648,-3.739,-17.595,-29.326,-11.73
3.29,-2.299,9.82,3.688,29.326,2.491,9.293,-3.353,35.191,-2.876,11.073,-3.739,-35.191,-29.326,-23.46
3.295,-2.203,9.388,3.593,35.191,2.443,9.388,-3.161,35.191,-2.876,10.354,-3.595,-46.921,-35.191,-29.326
3.3000000000000003,-2.108,8.862,3.401,41.056,2.347,9.436,-3.018,41.056,-2.732,9.491,-3.451,-52.786,-35.191,-35.191
3.305,-1.964,8.335,3.305,35.191,2.299,9.436,-2.922,35.191,-2.588,8.34,-3.307,-52.786,-35.191,-35.191
3.31,-1.868,7.808,3.209,35.191,2.347,9.484,-2.778,29.326,-2.445,7.478,-3.307,-52.786,-41.056,-35.191
3.315,-1.772,7.377,3.161,23.46,2.347,9.484,-2.778,23.46,-2.157,6.471,-3.307,-41.056,-41.056,-29.326
3.3200000000000003,-1.724,7.137,3.209,11.73,2.395,9.341,-2.778,11.73,-1.869,5.752,-3.307,-29.326,-35.191,-23.46
3.325,-1.677,7.089,3.257,5.865,2.395,9.053,-2.874,0.0,-1.726,5.321,-3.307,-11.73,-35.191,-11.73
3.33,-1.724,7.329,3.305,-11.73,2.299,8.766,-2.97,-11.73,-1.726,5.464,-3.307,5.865,-29.326,0.0
3.335,-1.772,7.712,3.353,-23.46,2.299,8.766,-2.97,-23.46,-1.869,6.183,-3.307,35.191,-23.46,11.73
3.34,-1.868,8.143,3.305,-29.326,2.395,8.814,-2.97,-35.191,-2.013,6.902,-3.451,52.786,-17.595,23.46
3.345,-1.868,8.526,3.305,-41.056,2.347,8.814,-2.922,-41.056,-2.157,7.621,-3.307,64.516,-17.595,35.191
3.35,-1.868,8.814,3.257,-41.056,2.251,8.718,-2.922,-46.921,-2.157,8.34,-3.307,70.381,-17.595,41.056
3.355,-1.82,9.101,3.209,-46.921,2.06,8.766,-2.874,-46.921,-2.301,8.916,-3.164,76.246,-11.73,46.921
3.36,-1.772,9.436,3.114,-46.921,2.012,8.957,-2.73,-46.921,-2.301,9.491,-3.164,76.246,-11.73,46.921
3.365,-1.772,9.724,2.922,-41.056,2.012,9.149,-2.539,-41.056,-2.445,9.922,-3.02,70.381,-11.73,46.921
3.37,-1.82,9.915,2.73,-41.056,1.964,9.388,-2.395,-35.191,-2.445,10.354,-2.876,64.516,-17.595,46.921
3.375,-1.724,10.107,2.635,-35.191,1.868,9.628,-2.347,-29.326,-2.445,10.497,-2.588,58.651,-17.595,41.056
3.38,-1.629,10.251,2.635,-23.46,1.82,9.676,-2.299,-23.46,-2.301,10.641,-2.588,52.786,-17.595,35.191
3.3850000000000002,-1.629,10.251,2.635,-17.595,1.772,9.628,-2.347,-17.595,-2.301,10.641,-2.588,46.921,-23.46,29.326
3.39,-1.581,10.251,2.73,-11.73,1.677,9.628,-2.443,-11.73,-2.301,10.785,-2.588,41.056,-23.46,23.46
3.395,-1.485,10.251,2.778,-5.865,1.724,9.724,-2.443,-5.865,-2.301,10.785,-2.588,29.326,-23.46,11.73
3.4,-1.485,10.251,2.778,-0.0,1.677,9.915,-2.443,0.0,-2.157,10.785,-2.732,23.46,-29.326,5.865
3.4050000000000002,-1.437,10.203,2.778,-0.0,1.629,10.059,-2.443,5.865,-2.157,10.641,-2.732,17.595,-35.191,0.0
3.41,-1.389,10.155,2.778,5.865,1.629,10.107,-2.395,5.865,-2.013,10.497,-2.732,5.865,-35.191,0.0
3.415,-1.341,10.107,2.73,5.865,1.581,10.203,-2.443,5.865,-2.013,10.21,-2.732,5.865,-35.191,-5.865
3.42,-1.293,10.011,2.778,5.865,1.629,10.203,-2.443,5.865,-1.869,10.066,-2.732,5.865,-35.191,-5.865
3.4250000000000003,-1.293,9.915,2.826,5.865,1.677,10.203,-2.491,5.865,-1.869,9.922,-2.732,5.865,-41.056,-5.865
3.43,-1.293,9.867,2.874,5.865,1.677,10.155,-2.491,5.865,-1.726,9.778,-2.876,5.865,-41.056,-5.865
3.435,-1.341,9.867,2.874,5.865,1.724,10.203,-2.539,5.865,-1.726,9.635,-2.876,5.865,-41.056,-5.865
3.44,-1.341,9.867,2.874,5.865,1.724,10.299,-2.539,5.865,-1.869,9.635,-2.876,5.865,-41.056,-5.865
3.4450000000000003,-1.389,9.963,2.874,5.865,1.772,10.346,-2.491,5.865,-1.869,9.635,-2.876,17.595,-41.056,0.0
3.45,-1.389,10.011,2.826,-0.0,1.724,10.394,-2.491,0.0,-1.869,9.778,-2.876,23.46,-41.056,0.0
3.455,-1.389,10.155,2.778,-0.0,1.724,10.394,-2.443,0.0,-1.869,9.778,-2.732,23.46,-41.056,0.0
3.46,-1.437,10.251,2.73,-0.0,1.772,10.538,-2.443,0.0,-2.013,10.066,-2.732,29.326,-35.191,0.0
3.465,-1.485,10.442,2.73,-0.0,1.772,10.634,-2.347,0.0,-2.013,10.21,-2.732,29.326,-35.191,0.0
3.47,-1.485,10.538,2.682,-0.0,1.724,10.634,-2.347,0.0,-2.013,10.354,-2.732,29.326,-41.056,0.0
3.475,-1.485,10.538,2.682,-0.0,1.677,10.586,-2.395,5.865,-2.157,10.497,-2.588,35.191,-41.056,0.0
3.48,-1.389,10.538,2.73,5.865,1.629,10.538,-2.443,5.865,-2.157,10.497,-2.588,35.191,-41.056,0.0
3.485,-1.293,10.49,2.778,5.865,1.581,10.442,-2.491,5.865,-2.013,10.497,-2.732,35.191,-41.056,0.0
3.49,-1.245,10.442,2.874,5.865,1.581,10.394,-2.587,5.865,-1.869,10.497,-2.732,35.191,-41.056,-5.865
3.495,-1.198,10.442,2.97,5.865,1.629,10.394,-2.682,5.865,-1.726,10.497,-2.876,35.191,-46.921,0.0
3.5,-1.198,10.442,3.018,5.865,1.677,10.442,-2.682,5.865,-1.726,10.497,-2.876,35.191,-46.921,-5.865
3.505,-1.15,10.538,3.018,5.865,1.677,10.49,-2.682,5.865,-1.582,10.497,-3.02,35.191,-46.921,0.0
3.5100000000000002,-1.102,10.682,2.97,5.865,1.581,10.538,-2.635,5.865,-1.582,10.641,-3.02,29.326,-41.056,0.0
3.515,-1.054,10.778,2.922,5.865,1.581,10.634,-2.587,5.865,-1.582,10.929,-2.876,29.326,-41.056,-5.865
3.52,-1.006,10.921,2.922,5.865,1.581,10.634,-2.491,5.865,-1.438,11.073,-2.876,29.326,-41.056,-5.865
3.525,-1.054,10.921,2.778,11.73,1.533,10.586,-2.395,11.73,-1.438,11.216,-2.876,29.326,-41.056,-5.865
3.5300000000000002,-0.958,10.873,2.778,11.73,1.437,10.49,-2.395,17.595,-1.438,11.216,-2.732,23.46,-35.191,-11.73
3.535,-0.91,10.873,2.682,17.595,1.293,10.442,-2.299,23.46,-1.438,11.216,-2.732,23.46,-35.191,-11.73
3.54,-0.91,10.873,2.587,23.46,1.198,10.394,-2.203,23.46,-1.294,11.216,-2.588,17.595,-35.191,-17.595
3.545,-0.91,10.969,2.443,29.326,1.15,10.538,-2.06,29.326,-1.438,11.36,-2.588,5.865,-35.191,-23.46
3.5500000000000003,-0.91,11.017,2.347,35.191,1.102,10.634,-1.964,35.191,-1.582,11.36,-2.445,5.865,-35.191,-23.46
3.555,-0.91,10.969,2.203,41.056,1.054,10.634,-1.82,41.056,-1.582,11.36,-2.301,5.865,-35.191,-35.191
3.56,-0.862,10.778,2.06,46.921,1.006,10.586,-1.724,46.921,-1.582,11.216,-2.157,0.0,-35.191,-41.056
3.565,-0.814,10.538,2.012,52.786,1.102,10.538,-1.677,52.786,-1.582,10.929,-2.013,-5.865,-41.056,-46.921
3.5700000000000003,-0.814,10.203,2.012,52.786,1.15,10.251,-1.724,58.651,-1.438,10.497,-1.869,-5.865,-41.056,-46.921
3.575,-0.862,9.772,2.156,58.651,1.198,9.82,-1.916,58.651,-1.294,10.066,-2.013,-5.865,-46.921,-52.786
3.58,-0.862,9.388,2.395,58.651,1.293,9.436,-2.108,58.651,-1.294,9.635,-2.157,-5.865,-46.921,-58.651
3.585,-0.91,9.005,2.539,64.516,1.341,9.053,-2.251,58.651,-1.294,9.347,-2.301,0.0,-46.921,-58.651
3.59,-0.91,8.67,2.682,58.651,1.389,8.766,-2.347,58.651,-1.294,8.916,-2.588,0.0,-46.921,-64.516
3.595,-0.958,8.478,2.73,58.651,1.389,8.67,-2.347,58.651,-1.294,8.628,-2.588,5.865,-46.921,-58.651
3.6,-0.958,8.335,2.682,58.651,1.341,8.718,-2.251,58.651,-1.294,8.34,-2.732,5.865,-41.056,-58.651
3.605,-1.006,8.335,2.587,52.786,1.389,8.862,-2.156,52.786,-1.294,8.197,-2.732,5.865,-41.056,-58.651
3.61,-1.006,8.43,2.491,52.786,1.389,9.005,-2.06,52.786,-1.294,8.053,-2.588,5.865,-41.056,-52.786
3.615,-1.102,8.478,2.395,52.786,1.437,9.101,-2.012,46.921,-1.438,8.053,-2.445,5.865,-41.056,-52.786
3.62,-1.198,8.574,2.395,46.921,1.485,9.341,-2.012,46.921,-1.582,8.053,-2.445,17.595,-41.056,-46.921
3.625,-1.245,8.766,2.347,46.921,1.533,9.58,-2.012,46.921,-1.582,8.053,-2.301,23.46,-41.056,-46.921
3.63,-1.293,8.957,2.395,46.921,1.629,9.867,-2.06,46.921,-1.726,8.197,-2.445,35.191,-41.056,-46.921
3.6350000000000002,-1.437,9.149,2.491,46.921,1.772,9.867,-2.203,46.921,-1.869,8.34,-2.445,41.056,-41.056,-46.921
3.64,-1.533,9.197,2.635,52.786,1.868,9.676,-2.395,52.786,-1.869,8.628,-2.445,46.921,-41.056,-46.921
3.645,-1.533,9.149,2.826,52.786,1.964,9.436,-2.587,58.651,-2.013,8.772,-2.588,58.651,-41.056,-52.786
3.65,-1.581,9.053,3.018,58.651,2.156,9.197,-2.73,64.516,-1.869,8.772,-2.876,64.516,-41.056,-52.786
3.6550000000000002,-1.724,8.814,3.114,64.516,2.347,8.862,-2.73,70.381,-1.869,8.772,-3.02,70.381,-41.056,-58.651
3.66,-1.772,8.622,3.114,70.381,2.347,8.718,-2.778,76.246,-1.869,8.628,-3.02,76.246,-41.056,-64.516
3.665,-1.772,8.574,3.066,82.111,2.299,8.766,-2.635,82.111,-2.013,8.484,-3.02,76.246,-35.191,-70.381
3.67,-1.772,8.574,2.874,87.977,2.347,8.766,-2.443,93.842,-1.869,8.484,-3.02,82.111,-35.191,-82.111
3.6750000000000003,-1.772,8.526,2.778,99.707,2.156,8.67,-2.347,99.707,-2.013,8.34,-2.876,82.111,-29.326,-87.977
3.68,-1.724,8.383,2.587,105.572,2.012,8.43,-2.203,111.437,-2.013,8.34,-2.732,87.977,-29.326,-93.842
3.685,-1.677,8.047,2.587,117.302,1.724,7.808,-2.347,123.167,-2.157,8.197,-2.588,87.977,-23.46,-105.572
3.69,-1.485,7.425,2.826,123.167,1.293,6.802,-2.682,129.032,-2.157,7.909,-2.445,93.842,-23.46,-117.302
3.6950000000000003,-1.245,6.658,3.209,129.032,0.958,5.461,-3.066,134.897,-2.157,7.478,-2.732,93.842,-23.46,-123.167
3.7,-1.102,5.652,3.497,134.897,1.102,4.359,-3.257,134.897,-2.013,7.046,-3.164,93.842,-29.326,-129.032
3.705,-1.198,4.598,3.688,134.897,1.437,3.401,-3.353,134.897,-1.726,6.327,-3.307,87.977,-29.326,-134.897
3.71,-1.198,3.593,3.88,129.032,1.533,2.682,-3.497,129.032,-1.582,5.321,-3.595,82.111,-35.191,-134.897
3.715,-1.245,2.682,3.928,123.167,1.677,2.012,-3.449,123.167,-1.438,4.17,-3.739,76.246,-35.191,-129.032
3.72,-1.15,1.485,3.928,111.437,1.485,1.054,-3.497,105.572,-1.294,3.02,-3.883,64.516,-35.191,-123.167
3.725,-0.91,0.287,3.928,99.707,1.054,-0.096,-3.353,87.977,-1.007,1.726,-3.883,58.651,-35.191,-111.437
3.73,-0.623,-1.15,3.688,76.246,0.623,-1.677,-3.066,64.516,-0.863,0.288,-3.883,52.786,-35.191,-93.842
3.735,-0.192,-2.682,3.353,52.786,0.096,-3.353,-2.587,41.056,-0.431,-1.15,-3.595,52.786,-29.326,-76.246
3.74,0.096,-4.407,2.874,23.46,-0.431,-4.886,-2.203,5.865,-0.144,-2.588,-3.307,52.786,-29.326,-52.786
3.745,0.719,-5.94,2.73,-11.73,-1.102,-6.61,-2.251,-29.326,0.144,-4.17,-2.732,46.921,-23.46,-17.595
3.75,1.485,-7.281,2.778,-52.786,-1.724,-8.383,-2.156,-76.246,1.007,-5.752,-2.588,46.921,-23.46,17.595
3.755,1.964,-8.526,2.874,-99.707,-1.629,-9.58,-2.443,-123.167,1.869,-6.759,-2.732,41.056,-23.46,58.651
3.7600000000000002,2.347,-9.005,3.64,-152.493,-1.437,-9.149,-3.305,-181.818,2.588,-7.621,-2.732,35.191,-23.46,105.572
3.765,2.682,-8.095,4.455,-205.279,-1.677,-8.047,-3.88,-228.739,3.595,-8.34,-3.595,23.46,-23.46,152.493
3.77,2.97,-6.514,4.79,-252.199,-1.916,-7.281,-4.263,-275.66,4.17,-7.478,-4.458,5.865,-11.73,211.144
3.775,3.114,-5.365,5.509,-293.255,-1.724,-7.185,-5.317,-316.715,4.314,-5.464,-4.745,-5.865,0.0,258.064
3.7800000000000002,3.593,-4.455,6.946,-328.446,-2.539,-5.844,-6.85,-351.906,4.602,-3.595,-5.464,-17.595,17.595,299.12
3.785,4.79,-1.868,7.951,-357.771,-4.742,7.616,-5.173,-375.366,5.177,-2.301,-6.902,-41.056,29.326,334.311
3.79,4.072,23.327,-11.831,-381.232,14.801,-20.98,17.819,-287.39,6.183,0.0,-7.765,-64.516,46.921,363.636
3.795,-2.299,23.902,-23.758,-351.906,-24.19,23.854,12.071,-205.279,28.616,26.891,11.216,-46.921,76.246,387.097
3.8000000000000003,-1.006,23.902,-12.741,-117.302,-2.587,24.237,11.879,-134.897,-57.951,73.482,31.061,123.167,199.413,351.906
3.805,0.766,13.029,-13.556,-46.921,-2.156,18.298,7.377,-99.707,-3.451,71.612,16.393,-140.762,-58.651,117.302
3.81,8.957,6.227,3.066,-17.595,4.024,9.628,-5.7,11.73,6.759,10.066,14.524,-269.795,-310.85,46.921
3.815,1.245,-3.449,9.293,58.651,4.503,1.293,-10.251,70.381,16.968,-3.739,-3.883,-310.85,-269.795,17.595
3.8200000000000003,-3.88,1.581,11.927,64.516,6.275,7.52,-10.778,35.191,6.615,-5.608,-9.491,-222.874,-193.548,-58.651
3.825,-0.431,6.61,10.442,-23.46,1.198,14.466,-8.67,-70.381,-2.157,-0.719,-12.079,-158.358,-111.437,-64.516
3.83,-0.24,12.215,6.946,-111.437,2.347,18.681,-4.598,-140.762,1.007,2.876,-10.785,-129.032,-64.516,29.326
3.835,-2.347,14.993,3.688,-152.493,4.263,21.555,-2.347,-158.358,-0.288,8.197,-7.19,-93.842,-29.326,117.302
3.84,-2.06,15.711,2.73,-146.628,2.73,20.789,-2.443,-146.628,-2.588,10.354,-4.026,-41.056,-11.73,152.493
3.845,-0.335,14.849,3.066,-129.032,0.0,17.005,-3.018,-123.167,-1.582,10.641,-3.164,17.595,-5.865,152.493
3.85,0.287,13.843,3.066,-111.437,-0.862,13.125,-3.018,-111.437,-0.719,11.648,-3.164,82.111,5.865,129.032
3.855,-0.048,12.598,2.97,-111.437,-0.383,10.634,-3.066,-111.437,-1.15,13.086,-2.876,134.897,17.595,117.302
3.86,-0.096,11.688,3.353,-105.572,0.479,10.203,-3.449,-105.572,-1.582,13.517,-2.732,158.358,5.865,111.437
3.865,-0.431,11.448,3.976,-99.707,2.299,11.161,-4.024,-93.842,-1.15,12.798,-3.164,152.493,-5.865,111.437
3.87,-1.054,12.119,4.503,-82.111,2.539,11.4,-4.311,-70.381,-0.431,11.935,-3.883,140.762,-17.595,99.707
3.875,-1.245,12.262,4.407,-52.786,1.629,10.011,-4.119,-41.056,-0.575,12.511,-4.458,134.897,-17.595,82.111
3.88,-0.623,11.64,3.928,-23.46,0.048,8.622,-3.497,-11.73,-1.438,13.517,-4.17,129.032,-5.865,52.786
3.8850000000000002,0.575,10.778,3.114,-5.865,-1.15,8.047,-2.539,0.0,-1.438,13.805,-3.739,117.302,-5.865,23.46
3.89,1.245,10.203,2.203,5.865,-1.245,8.191,-1.533,11.73,-0.431,12.942,-2.876,99.707,-5.865,11.73
3.895,1.293,9.724,1.485,23.46,-1.724,7.856,-1.15,29.326,0.575,11.935,-2.013,70.381,-11.73,-5.865
3.9,1.677,9.245,1.389,35.191,-2.395,7.233,-1.15,35.191,0.575,11.216,-1.294,52.786,-17.595,-23.46
3.9050000000000002,1.82,8.957,1.245,35.191,-2.156,7.377,-0.91,35.191,0.575,10.929,-1.15,29.326,-23.46,-35.191
3.91,1.629,9.005,1.006,29.326,-1.629,8.239,-0.671,29.326,0.719,10.497,-1.007,5.865,-35.191,-35.191
3.915,1.437,9.245,0.91,29.326,-1.198,9.053,-0.623,29.326,0.863,10.066,-0.863,-5.865,-41.056,-23.46
3.92,1.245,9.436,0.958,29.326,-0.958,9.436,-0.719,29.326,0.863,9.778,-0.863,-23.46,-52.786,-23.46
3.9250000000000003,1.245,9.341,1.102,29.326,-0.862,9.436,-0.766,23.46,0.863,9.635,-0.863,-29.326,-52.786,-23.46
3.93,1.293,9.197,1.15,23.46,-0.862,9.341,-0.814,23.46,1.007,9.491,-1.007,-29.326,-58.651,-23.46
3.935,1.389,9.245,1.15,23.46,-0.958,9.532,-0.814,23.46,1.15,9.203,-1.007,-29.326,-58.651,-23.46
3.94,1.437,9.388,1.15,23.46,-1.102,9.915,-0.719,17.595,1.15,9.203,-1.15,-29.326,-58.651,-17.595
3.9450000000000003,1.485,9.676,1.006,17.595,-1.245,10.251,-0.527,17.595,1.15,9.203,-1.15,-29.326,-52.786,-17.595
3.95,1.533,9.867,0.766,17.595,-1.341,10.394,-0.335,17.595,1.15,9.347,-1.007,-23.46,-52.786,-17.595
3.955,1.581,9.963,0.623,17.595,-1.581,10.394,-0.287,17.595,1.15,9.491,-0.719,-17.595,-52.786,-11.73
3.96,1.724,10.107,0.623,17.595,-1.772,10.251,-0.335,17.595,1.007,9.778,-0.575,-11.73,-52.786,-17.595
3.9650000000000003,1.82,10.059,0.719,23.46,-1.82,10.059,-0.527,23.46,1.15,10.066,-0.575,-5.865,-52.786,-17.595
3.97,1.82,10.059,0.91,23.46,-1.724,9.963,-0.671,23.46,1.15,10.066,-0.575,-5.865,-58.651,-17.595
3.975,1.772,10.107,1.006,23.46,-1.581,9.915,-0.766,23.46,1.15,10.21,-0.863,0.0,-64.516,-23.46
3.98,1.724,10.107,1.15,23.46,-1.533,9.867,-0.958,23.46,1.294,10.354,-0.863,0.0,-64.516,-23.46
3.985,1.724,10.107,1.341,29.326,-1.629,9.676,-1.15,29.326,1.15,10.497,-1.007,0.0,-70.381,-23.46
3.99,1.724,9.676,1.485,29.326,-1.533,9.388,-1.15,29.326,1.294,10.497,-1.294,0.0,-70.381,-23.46
3.995,1.868,9.628,1.485,29.326,-1.389,9.532,-1.15,29.326,1.15,10.066,-1.294,-5.865,-70.381,-23.46
4.0,1.772,9.58,1.485,29.326,-1.437,9.532,-1.102,29.326,1.582,9.778,-1.438,-5.865,-76.246,-23.46
4.005,1.82,9.58,1.437,35.191,-1.629,9.58,-1.054,29.326,1.438,9.778,-1.438,-5.865,-76.246,-23.46
4.01,1.916,9.724,1.341,29.326,-1.581,9.628,-0.958,29.326,1.438,9.778,-1.294,-5.865,-76.246,-29.326
4.015,1.82,9.772,1.293,29.326,-1.437,9.82,-0.91,29.326,1.582,9.922,-1.294,-5.865,-76.246,-23.46
4.0200000000000005,1.772,9.772,1.293,35.191,-1.485,9.772,-1.006,35.191,1.438,9.922,-1.15,-11.73,-76.246,-29.326
4.025,1.868,9.676,1.389,35.191,-1.629,9.724,-1.102,29.326,1.438,9.922,-1.15,-5.865,-76.246,-35.191
4.03,1.916,9.724,1.389,29.326,-1.629,9.867,-0.958,29.326,1.582,9.778,-1.294,-5.865,-76.246,-35.191
4.035,1.82,9.867,1.198,29.326,-1.629,9.867,-0.862,29.326,1.582,9.778,-1.294,-5.865,-76.246,-29.326
4.04,1.82,9.915,1.198,29.326,-1.677,9.915,-0.958,29.326,1.438,9.922,-1.15,-5.865,-76.246,-29.326
4.045,1.868,9.915,1.341,35.191,-1.677,9.963,-1.102,29.326,1.438,10.066,-1.15,-5.865,-76.246,-29.326
4.05,1.724,10.011,1.341,29.326,-1.293,10.011,-1.054,29.326,1.438,10.066,-1.294,0.0,-76.246,-35.191
4.055,1.677,10.011,1.533,35.191,-1.437,10.059,-1.389,35.191,1.438,10.21,-1.294,0.0,-76.246,-29.326
4.0600000000000005,1.724,10.011,1.772,35.191,-1.485,9.915,-1.485,35.191,1.294,10.066,-1.438,0.0,-82.111,-35.191
4.065,1.724,10.059,1.772,35.191,-1.293,10.059,-1.437,29.326,1.294,10.21,-1.726,0.0,-82.111,-35.191
4.07,1.581,10.107,1.724,29.326,-1.15,10.203,-1.389,29.326,1.294,10.21,-1.726,0.0,-82.111,-35.191
4.075,1.533,10.155,1.724,35.191,-1.102,10.203,-1.389,29.326,1.294,10.21,-1.582,0.0,-82.111,-23.46
4.08,1.437,10.059,1.724,35.191,-1.006,10.059,-1.389,35.191,1.15,10.21,-1.582,0.0,-82.111,-35.191
4.085,1.389,9.915,1.724,35.191,-1.006,9.82,-1.389,35.191,1.15,10.21,-1.582,5.865,-82.111,-35.191
4.09,1.389,9.82,1.772,35.191,-1.054,9.724,-1.485,35.191,1.007,10.066,-1.582,5.865,-82.111,-35.191
4.095,1.389,9.82,1.868,35.191,-1.006,9.772,-1.533,35.191,1.007,10.066,-1.726,5.865,-82.111,-35.191
4.1,1.293,9.772,1.82,35.191,-0.862,9.676,-1.437,35.191,1.007,9.922,-1.726,5.865,-76.246,-35.191
4.105,1.15,9.724,1.677,35.191,-0.814,9.532,-1.341,35.191,1.007,10.066,-1.726,5.865,-76.246,-35.191
4.11,1.15,9.628,1.629,35.191,-0.814,9.436,-1.293,35.191,0.719,9.922,-1.582,5.865,-76.246,-35.191
4.115,1.054,9.58,1.629,41.056,-0.719,9.388,-1.293,35.191,0.719,9.922,-1.582,5.865,-76.246,-35.191
4.12,1.006,9.436,1.581,41.056,-0.575,9.341,-1.245,35.191,0.719,9.778,-1.438,5.865,-82.111,-35.191
4.125,0.91,9.293,1.581,41.056,-0.527,9.149,-1.245,41.056,0.719,9.635,-1.438,5.865,-82.111,-41.056
4.13,0.91,9.149,1.629,41.056,-0.623,9.005,-1.341,41.056,0.575,9.491,-1.438,5.865,-82.111,-41.056
4.135,0.958,8.957,1.677,41.056,-0.671,8.862,-1.341,41.056,0.575,9.347,-1.582,0.0,-82.111,-41.056
4.14,0.91,8.909,1.581,41.056,-0.575,8.814,-1.198,41.056,0.575,9.203,-1.582,5.865,-82.111,-41.056
4.1450000000000005,0.814,8.862,1.485,41.056,-0.527,8.862,-1.102,41.056,0.575,9.059,-1.438,5.865,-82.111,-41.056
4.15,0.766,8.814,1.485,41.056,-0.431,8.909,-1.15,41.056,0.431,8.916,-1.438,0.0,-82.111,-41.056
4.155,0.719,8.718,1.485,41.056,-0.287,8.862,-1.15,41.056,0.431,8.916,-1.438,5.865,-82.111,-41.056
4.16,0.623,8.67,1.485,41.056,-0.24,8.814,-1.15,41.056,0.431,8.772,-1.438,5.865,-82.111,-41.056
4.165,0.575,8.574,1.581,41.056,-0.24,8.67,-1.245,41.056,0.288,8.628,-1.438,5.865,-82.111,-41.056
4.17,0.623,8.478,1.629,41.056,-0.287,8.574,-1.293,41.056,0.288,8.628,-1.438,5.865,-82.111,-41.056
4.175,0.671,8.574,1.677,41.056,-0.335,8.766,-1.293,41.056,0.288,8.484,-1.582,5.865,-82.111,-41.056
4.18,0.671,8.718,1.629,41.056,-0.287,8.957,-1.293,41.056,0.431,8.628,-1.582,5.865,-82.111,-41.056
4.1850000000000005,0.575,8.814,1.629,41.056,-0.24,8.957,-1.245,41.056,0.431,8.628,-1.582,5.865,-82.111,-41.056
4.19,0.527,8.862,1.581,41.056,-0.144,8.909,-1.293,41.056,0.288,8.772,-1.438,17.595,-82.111,-41.056
4.195,0.431,8.957,1.677,41.056,-0.096,8.862,-1.341,41.056,0.144,8.916,-1.582,17.595,-76.246,-41.056
4.2,0.383,8.957,1.724,41.056,-0.048,8.766,-1.437,41.056,0.144,9.059,-1.582,23.46,-82.111,-41.056
4.205,0.383,8.957,1.772,41.056,-0.048,8.718,-1.485,41.056,0.0,9.203,-1.582,23.46,-76.246,-41.056
4.21,0.383,8.957,1.772,41.056,0.0,8.814,-1.437,41.056,0.0,9.203,-1.726,17.595,-82.111,-41.056
4.215,0.335,9.053,1.724,46.921,0.0,8.909,-1.389,46.921,0.0,9.203,-1.726,17.595,-76.246,-41.056
4.22,0.335,9.101,1.677,46.921,0.0,8.909,-1.389,46.921,0.0,9.347,-1.582,5.865,-82.111,-46.921
4.225,0.24,9.053,1.724,46.921,0.096,8.862,-1.437,46.921,-0.144,9.347,-1.582,5.865,-76.246,-46.921
4.23,0.192,8.957,1.724,52.786,0.24,8.814,-1.437,52.786,-0.144,9.347,-1.582,5.865,-82.111,-46.921
4.235,0.144,8.862,1.772,52.786,0.383,8.766,-1.437,52.786,-0.144,9.203,-1.726,5.865,-82.111,-46.921
4.24,0.096,8.814,1.82,52.786,0.335,8.766,-1.437,52.786,-0.144,9.059,-1.726,5.865,-82.111,-52.786
4.245,0.096,8.862,1.82,58.651,0.335,8.909,-1.437,52.786,-0.144,8.916,-1.726,5.865,-82.111,-52.786
4.25,0.0,8.909,1.724,52.786,0.383,8.909,-1.389,52.786,-0.288,9.059,-1.726,5.865,-76.246,-52.786
4.255,-0.048,8.957,1.724,58.651,0.431,8.909,-1.389,58.651,-0.288,9.059,-1.582,5.865,-76.246,-58.651
4.26,-0.096,8.909,1.772,58.651,0.527,8.814,-1.437,58.651,-0.431,9.059,-1.582,5.865,-76.246,-52.786
4.265,-0.144,8.814,1.772,58.651,0.575,8.67,-1.389,58.651,-0.431,9.059,-1.726,5.865,-76.246,-58.651
4.2700000000000005,-0.192,8.67,1.724,58.651,0.623,8.574,-1.341,58.651,-0.431,8.916,-1.582,5.865,-76.246,-58.651
4.275,-0.192,8.622,1.724,58.651,0.623,8.526,-1.341,58.651,-0.431,8.916,-1.582,5.865,-76.246,-58.651
4.28,-0.096,8.622,1.82,58.651,0.431,8.574,-1.485,58.651,-0.575,8.772,-1.582,5.865,-76.246,-58.651
4.285,-0.096,8.718,1.916,58.651,0.527,8.622,-1.533,52.786,-0.431,8.772,-1.726,5.865,-76.246,-58.651
4.29,-0.144,8.814,1.82,58.651,0.623,8.766,-1.485,52.786,-0.431,8.916,-1.726,5.865,-76.246,-58.651
4.295,-0.24,8.909,1.82,52.786,0.719,8.957,-1.437,52.786,-0.575,9.059,-1.726,5.865,-70.381,-52.786
4.3,-0.287,9.005,1.772,52.786,0.766,9.053,-1.389,52.786,-0.575,9.059,-1.726,5.865,-70.381,-52.786
4.305,-0.335,9.053,1.772,52.786,0.814,9.101,-1.389,52.786,-0.575,9.059,-1.726,5.865,-70.381,-52.786
4.3100000000000005,-0.335,9.101,1.724,52.786,0.766,9.101,-1.389,52.786,-0.719,9.203,-1.726,5.865,-70.381,-52.786
4.315,-0.383,9.149,1.724,52.786,0.814,9.053,-1.341,52.786,-0.719,9.203,-1.726,5.865,-70.381,-52.786
4.32,-0.479,9.149,1.677,52.786,0.91,9.101,-1.293,52.786,-0.719,9.347,-1.582,5.865,-70.381,-52.786
4.325,-0.479,9.101,1.677,52.786,0.91,9.053,-1.341,52.786,-0.863,9.347,-1.582,0.0,-70.381,-52.786
4.33,-0.431,9.053,1.677,52.786,0.91,9.005,-1.293,52.786,-0.863,9.203,-1.582,0.0,-64.516,-52.786
4.335,-0.479,9.053,1.629,52.786,0.958,9.101,-1.341,52.786,-0.863,9.203,-1.582,0.0,-64.516,-52.786
4.34,-0.431,9.149,1.772,58.651,0.862,9.341,-1.437,58.651,-0.719,9.059,-1.582,0.0,-64.516,-52.786
4.345,-0.479,9.197,1.772,58.651,0.958,9.293,-1.389,58.651,-0.719,9.203,-1.726,0.0,-64.516,-58.651
4.3500000000000005,-0.671,9.149,1.677,52.786,1.006,9.197,-1.341,52.786,-0.863,9.203,-1.726,0.0,-64.516,-58.651
4.355,-0.671,9.101,1.677,58.651,1.054,9.197,-1.341,52.786,-1.15,9.203,-1.582,0.0,-64.516,-52.786
4.36,-0.671,9.005,1.677,52.786,1.102,9.197,-1.293,52.786,-1.15,9.059,-1.582,5.865,-64.516,-52.786
4.365,-0.719,8.957,1.677,58.651,1.15,9.149,-1.293,52.786,-1.007,8.916,-1.582,5.865,-64.516,-58.651
4.37,-0.766,8.862,1.677,52.786,1.245,9.005,-1.293,52.786,-1.007,8.916,-1.582,5.865,-64.516,-52.786
4.375,-0.814,8.814,1.629,52.786,1.293,8.909,-1.293,52.786,-1.15,8.772,-1.582,5.865,-64.516,-52.786
4.38,-0.91,8.862,1.629,46.921,1.293,8.909,-1.293,46.921,-1.15,8.772,-1.582,5.865,-58.651,-52.786
4.385,-0.958,8.909,1.629,52.786,1.341,8.862,-1.293,46.921,-1.294,8.916,-1.582,5.865,-58.651,-52.786
4.39,-1.006,8.909,1.629,46.921,1.437,8.862,-1.293,46.921,-1.438,8.916,-1.582,5.865,-58.651,-46.921
4.3950000000000005,-1.054,8.909,1.629,46.921,1.485,8.814,-1.293,46.921,-1.438,9.059,-1.582,5.865,-58.651,-46.921
4.4,-1.15,9.005,1.677,46.921,1.485,8.814,-1.341,46.921,-1.438,9.059,-1.582,5.865,-58.651,-46.921
4.405,-1.198,9.149,1.724,46.921,1.485,8.957,-1.437,46.921,-1.582,9.203,-1.582,5.865,-58.651,-46.921
4.41,-1.293,9.341,1.82,46.921,1.485,9.005,-1.581,46.921,-1.726,9.491,-1.582,5.865,-58.651,-46.921
4.415,-1.341,9.484,2.012,46.921,1.581,9.149,-1.82,41.056,-1.869,9.635,-1.726,5.865,-58.651,-46.921
4.42,-1.389,9.58,2.251,41.056,1.724,9.484,-2.06,41.056,-2.013,9.922,-1.869,0.0,-58.651,-41.056
4.425,-1.389,9.724,2.539,41.056,1.82,9.915,-2.347,35.191,-2.013,9.922,-2.157,-5.865,-64.516,-41.056
4.43,-1.341,10.011,2.826,41.056,1.772,10.394,-2.635,35.191,-1.869,9.778,-2.445,-5.865,-64.516,-41.056
4.4350000000000005,-1.245,10.346,3.066,35.191,1.677,10.778,-2.826,29.326,-1.726,9.922,-2.732,-11.73,-64.516,-35.191
4.44,-1.245,10.73,3.209,29.326,1.724,11.113,-2.97,29.326,-1.726,10.21,-3.02,-11.73,-64.516,-35.191
4.445,-1.245,10.969,3.353,23.46,1.724,11.304,-3.114,23.46,-1.726,10.641,-3.164,-5.865,-64.516,-23.46
4.45,-1.198,11.113,3.545,23.46,1.629,11.4,-3.305,23.46,-1.726,10.785,-3.307,-5.865,-64.516,-23.46
4.455,-1.054,11.209,3.736,23.46,1.581,11.4,-3.497,23.46,-1.726,10.929,-3.451,-5.865,-64.516,-23.46
4.46,-1.006,11.257,3.928,23.46,1.485,11.352,-3.688,23.46,-1.582,11.073,-3.739,0.0,-64.516,-23.46
4.465,-0.862,11.304,4.167,23.46,1.341,11.257,-3.976,23.46,-1.438,11.216,-3.883,0.0,-64.516,-23.46
4.47,-0.766,11.352,4.407,23.46,1.341,11.304,-4.167,23.46,-1.294,11.36,-4.17,5.865,-58.651,-23.46
4.4750000000000005,-0.766,11.4,4.598,23.46,1.389,11.352,-4.311,23.46,-1.294,11.504,-4.314,5.865,-58.651,-23.46
4.48,-0.766,11.4,4.694,23.46,1.485,11.448,-4.407,23.46,-1.15,11.504,-4.602,0.0,-58.651,-23.46
4.485,-0.766,11.4,4.694,23.46,1.533,11.496,-4.407,23.46,-1.007,11.504,-4.602,0.0,-58.651,-23.46
4.49,-0.766,11.4,4.694,29.326,1.533,11.496,-4.311,23.46,-1.007,11.36,-4.745,0.0,-52.786,-23.46
4.495,-0.814,11.352,4.598,29.326,1.437,11.352,-4.215,29.326,-1.007,11.504,-4.745,0.0,-52.786,-23.46
4.5,-0.814,11.161,4.407,29.326,1.437,11.113,-4.024,29.326,-1.15,11.36,-4.602,5.865,-46.921,-23.46
4.505,-0.814,10.873,4.215,29.326,1.437,10.873,-3.784,29.326,-1.15,11.216,-4.458,5.865,-46.921,-23.46
4.51,-0.862,10.538,3.976,35.191,1.437,10.586,-3.545,35.191,-1.15,10.929,-4.17,5.865,-41.056,-29.326
4.515,-0.91,10.251,3.784,35.191,1.485,10.251,-3.353,35.191,-1.15,10.497,-3.883,5.865,-41.056,-29.326
4.5200000000000005,-0.958,9.915,3.593,35.191,1.485,9.963,-3.161,35.191,-1.294,10.21,-3.739,5.865,-35.191,-35.191
4.525,-1.006,9.58,3.401,41.056,1.533,9.628,-2.97,41.056,-1.294,9.778,-3.595,5.865,-35.191,-35.191
4.53,-1.102,9.293,3.209,41.056,1.581,9.341,-2.778,41.056,-1.438,9.491,-3.307,5.865,-35.191,-35.191
4.535,-1.102,9.005,3.018,41.056,1.581,9.149,-2.587,41.056,-1.438,9.203,-3.164,5.865,-35.191,-35.191
4.54,-1.15,8.718,2.826,41.056,1.533,9.053,-2.347,41.056,-1.438,8.772,-3.02,5.865,-35.191,-35.191
4.545,-1.15,8.574,2.587,41.056,1.437,8.909,-2.108,35.191,-1.582,8.484,-2.732,17.595,-29.326,-35.191
4.55,-1.102,8.43,2.443,35.191,1.293,8.814,-1.964,35.191,-1.582,8.34,-2.588,17.595,-29.326,-35.191
4.555,-1.054,8.287,2.251,35.191,1.198,8.766,-1.82,35.191,-1.582,8.197,-2.445,23.46,-29.326,-35.191
4.5600000000000005,-0.91,8.191,2.108,29.326,1.054,8.766,-1.724,29.326,-1.438,7.909,-2.157,29.326,-29.326,-35.191
4.565,-0.862,8.191,2.06,29.326,1.006,8.718,-1.677,29.326,-1.438,7.765,-2.157,29.326,-35.191,-29.326
4.57,-0.91,8.239,2.012,23.46,1.006,8.766,-1.629,23.46,-1.438,7.765,-2.013,41.056,-35.191,-23.46
4.575,-0.91,8.383,2.012,23.46,1.006,8.862,-1.677,17.595,-1.438,7.909,-2.013,46.921,-35.191,-23.46
4.58,-0.958,8.574,2.012,17.595,1.006,8.957,-1.677,17.595,-1.582,8.053,-1.869,46.921,-35.191,-17.595
4.585,-1.006,8.766,2.06,17.595,0.958,9.053,-1.772,17.595,-1.582,8.34,-2.013,52.786,-41.056,-17.595
4.59,-0.958,8.957,2.108,11.73,0.91,9.101,-1.868,11.73,-1.726,8.628,-2.013,58.651,-41.056,-17.595
4.595,-0.958,9.101,2.203,11.73,0.958,9.149,-1.964,11.73,-1.726,8.916,-2.013,58.651,-46.921,-11.73
4.6000000000000005,-1.006,9.293,2.299,11.73,1.054,9.341,-2.012,17.595,-1.726,9.203,-2.157,64.516,-46.921,-11.73
4.605,-1.006,9.484,2.299,17.595,1.054,9.436,-2.108,17.595,-1.726,9.347,-2.157,64.516,-52.786,-11.73
4.61,-1.006,9.58,2.395,17.595,1.054,9.484,-2.156,17.595,-1.726,9.491,-2.157,64.516,-58.651,-11.73
4.615,-1.054,9.628,2.443,17.595,1.102,9.484,-2.251,17.595,-1.726,9.778,-2.301,64.516,-58.651,-17.595
4.62,-1.054,9.676,2.539,23.46,1.054,9.436,-2.299,23.46,-1.869,9.778,-2.301,64.516,-64.516,-17.595
4.625,-1.054,9.676,2.587,23.46,1.102,9.341,-2.395,23.46,-1.869,9.922,-2.445,58.651,-70.381,-17.595
4.63,-1.054,9.628,2.682,29.326,1.102,9.197,-2.443,29.326,-1.726,9.922,-2.445,52.786,-70.381,-23.46
4.635,-1.054,9.484,2.73,29.326,1.15,9.053,-2.539,29.326,-1.869,9.922,-2.588,52.786,-76.246,-23.46
4.64,-1.054,9.341,2.778,29.326,1.245,8.957,-2.539,29.326,-1.726,9.778,-2.588,52.786,-82.111,-23.46
4.6450000000000005,-1.102,9.245,2.778,29.326,1.389,8.957,-2.491,35.191,-1.726,9.635,-2.732,46.921,-82.111,-29.326
4.65,-1.198,9.101,2.682,35.191,1.485,8.862,-2.347,35.191,-1.726,9.491,-2.732,46.921,-87.977,-35.191
4.655,-1.245,8.957,2.587,35.191,1.485,8.766,-2.251,35.191,-1.726,9.347,-2.588,41.056,-93.842,-35.191
4.66,-1.245,8.766,2.491,35.191,1.437,8.574,-2.156,35.191,-1.726,9.059,-2.445,41.056,-93.842,-35.191
4.665,-1.198,8.574,2.395,41.056,1.293,8.335,-2.06,41.056,-1.869,8.916,-2.445,41.056,-93.842,-35.191
4.67,-1.15,8.383,2.299,41.056,1.245,8.143,-1.964,41.056,-1.726,8.772,-2.301,35.191,-93.842,-41.056
4.675,-1.102,8.239,2.203,41.056,1.198,7.951,-1.916,41.056,-1.726,8.628,-2.157,35.191,-99.707,-41.056
4.68,-1.054,8.047,2.203,41.056,1.15,7.76,-1.964,41.056,-1.726,8.34,-2.157,35.191,-99.707,-41.056
4.6850000000000005,-1.054,7.951,2.203,41.056,1.245,7.712,-1.916,41.056,-1.582,8.34,-2.013,35.191,-105.572,-41.056
4.69,-1.054,7.856,2.156,41.056,1.341,7.616,-1.868,41.056,-1.582,8.197,-2.013,29.326,-105.572,-41.056
4.695,-1.102,7.76,2.156,41.056,1.341,7.568,-1.82,41.056,-1.582,8.053,-2.013,29.326,-105.572,-41.056
4.7,-1.054,7.664,2.108,41.056,1.437,7.616,-1.772,41.056,-1.582,7.909,-2.013,23.46,-111.437,-41.056
4.705,-1.102,7.616,2.012,41.056,1.485,7.568,-1.677,41.056,-1.438,7.765,-2.013,23.46,-111.437,-41.056
4.71,-1.102,7.616,1.964,41.056,1.437,7.568,-1.629,41.056,-1.438,7.765,-1.869,23.46,-111.437,-41.056
4.715,-1.15,7.616,1.868,41.056,1.389,7.568,-1.533,41.056,-1.438,7.765,-1.869,23.46,-111.437,-41.056
4.72,-1.15,7.664,1.82,41.056,1.389,7.52,-1.533,41.056,-1.582,7.765,-1.726,23.46,-111.437,-41.056
4.7250000000000005,-1.15,7.664,1.868,41.056,1.389,7.52,-1.581,41.056,-1.582,7.765,-1.726,23.46,-111.437,-41.056
4.73,-1.198,7.712,1.868,41.056,1.485,7.568,-1.581,41.056,-1.582,7.909,-1.726,23.46,-111.437,-41.056
4.735,-1.198,7.664,1.916,41.056,1.581,7.568,-1.629,41.056,-1.582,7.765,-1.726,17.595,-111.437,-41.056
4.74,-1.198,7.568,2.012,41.056,1.677,7.568,-1.677,41.056,-1.582,7.765,-1.726,17.595,-117.302,-41.056
4.745,-1.245,7.568,2.012,41.056,1.772,7.664,-1.677,41.056,-1.582,7.621,-1.869,17.595,-117.302,-41.056
4.75,-1.293,7.616,2.012,41.056,1.868,7.76,-1.677,41.056,-1.438,7.621,-1.869,5.865,-111.437,-41.056
4.755,-1.341,7.712,1.964,41.056,1.868,7.904,-1.629,35.191,-1.438,7.621,-1.869,5.865,-111.437,-41.056
4.76,-1.389,7.856,1.868,41.056,1.868,8.095,-1.533,35.191,-1.582,7.621,-1.869,17.595,-111.437,-41.056
4.765,-1.437,8.095,1.868,35.191,1.868,8.335,-1.485,35.191,-1.726,7.765,-1.726,17.595,-111.437,-35.191
4.7700000000000005,-1.437,8.335,1.772,35.191,1.868,8.526,-1.437,35.191,-1.726,8.053,-1.726,17.595,-105.572,-35.191
4.775,-1.485,8.526,1.724,35.191,1.82,8.67,-1.437,35.191,-1.869,8.34,-1.582,23.46,-105.572,-35.191
4.78,-1.437,8.622,1.772,35.191,1.772,8.718,-1.437,35.191,-1.869,8.484,-1.582,23.46,-105.572,-35.191
4.785,-1.389,8.718,1.772,35.191,1.82,8.766,-1.485,35.191,-1.869,8.628,-1.582,23.46,-105.572,-35.191
4.79,-1.389,8.622,1.916,35.191,1.82,8.814,-1.581,29.326,-1.869,8.628,-1.582,23.46,-105.572,-35.191
4.795,-1.437,8.862,1.82,35.191,2.156,9.053,-1.533,29.326,-1.726,8.628,-1.726,23.46,-105.572,-35.191
4.8,-1.581,9.101,1.916,29.326,2.108,9.293,-1.677,29.326,-1.726,8.916,-1.726,23.46,-105.572,-29.326
4.805,-1.581,9.293,1.964,35.191,2.012,9.197,-1.677,29.326,-1.869,9.059,-1.869,23.46,-105.572,-29.326
4.8100000000000005,-1.581,9.388,2.012,35.191,2.06,9.245,-1.677,29.326,-2.013,9.491,-1.869,29.326,-99.707,-35.191
4.815,-1.629,9.436,1.964,29.326,2.108,9.388,-1.629,29.326,-2.013,9.491,-1.869,23.46,-99.707,-29.326
4.82,-1.629,9.532,1.916,29.326,2.108,9.628,-1.629,29.326,-2.013,9.491,-1.869,23.46,-99.707,-29.326
4.825,-1.629,9.676,1.964,29.326,2.156,9.676,-1.629,29.326,-2.013,9.635,-1.869,23.46,-99.707,-29.326
4.83,-1.724,9.724,1.964,29.326,2.203,9.772,-1.677,29.326,-2.157,9.778,-1.869,23.46,-99.707,-29.326
4.835,-1.772,9.772,1.964,29.326,2.347,9.82,-1.677,29.326,-2.157,9.778,-1.869,23.46,-93.842,-23.46
4.84,-1.772,9.772,2.012,29.326,2.347,9.867,-1.677,29.326,-2.157,9.778,-1.869,17.595,-93.842,-29.326
4.845,-1.82,9.676,2.012,29.326,2.347,9.772,-1.677,29.326,-2.157,9.778,-1.869,17.595,-93.842,-23.46
4.8500000000000005,-1.772,9.628,1.964,29.326,2.347,9.772,-1.677,29.326,-2.157,9.635,-1.869,17.595,-93.842,-29.326
4.855,-1.772,9.532,2.012,29.326,2.347,9.676,-1.677,29.326,-2.157,9.491,-1.869,17.595,-87.977,-29.326
4.86,-1.82,9.436,2.06,29.326,2.347,9.58,-1.724,29.326,-2.157,9.491,-1.869,23.46,-87.977,-23.46
4.865,-1.868,9.388,2.06,29.326,2.395,9.484,-1.677,23.46,-2.157,9.347,-2.013,23.46,-87.977,-23.46
4.87,-1.868,9.293,1.964,29.326,2.443,9.484,-1.629,23.46,-2.157,9.347,-2.013,23.46,-82.111,-23.46
4.875,-1.868,9.245,1.916,23.46,2.299,9.436,-1.581,23.46,-2.301,9.203,-1.869,23.46,-82.111,-23.46
4.88,-1.724,9.245,1.868,23.46,2.108,9.436,-1.533,23.46,-2.157,9.203,-1.869,23.46,-82.111,-23.46
4.885,-1.677,9.245,1.82,23.46,2.012,9.436,-1.437,23.46,-2.157,9.203,-1.869,29.326,-82.111,-23.46
4.89,-1.629,9.245,1.772,23.46,1.916,9.436,-1.437,17.595,-2.157,9.059,-1.726,29.326,-76.246,-23.46
4.8950000000000005,-1.533,9.245,1.772,17.595,1.772,9.484,-1.485,17.595,-2.157,9.203,-1.726,29.326,-76.246,-17.595
4.9,-1.437,9.293,1.82,17.595,1.677,9.58,-1.533,17.595,-2.013,9.203,-1.582,29.326,-76.246,-17.595
4.905,-1.341,9.341,1.916,11.73,1.629,9.628,-1.629,11.73,-2.013,9.203,-1.726,35.191,-76.246,-17.595
4.91,-1.245,9.388,2.012,11.73,1.485,9.676,-1.724,5.865,-1.869,9.203,-1.869,35.191,-76.246,-11.73
4.915,-1.102,9.436,2.108,5.865,1.293,9.724,-1.868,5.865,-1.726,9.203,-1.869,35.191,-82.111,-11.73
4.92,-0.91,9.58,2.299,5.865,1.054,9.772,-2.108,0.0,-1.582,9.347,-2.013,41.056,-82.111,-5.865
4.925,-0.766,9.724,2.491,-0.0,0.958,9.915,-2.299,-5.865,-1.582,9.491,-2.157,41.056,-82.111,0.0
4.93,-0.671,9.963,2.682,-5.865,0.862,10.107,-2.491,-5.865,-1.294,9.778,-2.445,41.056,-82.111,0.0
4.9350000000000005,-0.575,10.203,2.826,-11.73,0.766,10.346,-2.682,-5.865,-1.294,10.066,-2.588,41.056,-82.111,5.865
4.94,-0.431,10.394,3.018,-11.73,0.623,10.442,-2.874,-11.73,-1.15,10.21,-2.732,41.056,-87.977,11.73
4.945,-0.287,10.538,3.257,-11.73,0.431,10.442,-3.066,-11.73,-1.007,10.497,-2.876,41.056,-87.977,11.73
4.95,-0.144,10.634,3.449,-11.73,0.335,10.394,-3.305,-11.73,-1.007,10.641,-3.164,41.056,-87.977,11.73
4.955,-0.096,10.682,3.593,-11.73,0.335,10.394,-3.449,-11.73,-0.863,10.929,-3.307,41.056,-93.842,17.595
4.96,-0.096,10.73,3.688,-11.73,0.335,10.394,-3.497,-11.73,-0.719,11.073,-3.451,41.056,-93.842,11.73
4.965,-0.096,10.73,3.688,-11.73,0.335,10.394,-3.497,-11.73,-0.719,11.073,-3.595,35.191,-93.842,11.73
4.97,-0.096,10.682,3.736,-11.73,0.287,10.299,-3.545,-11.73,-0.719,11.073,-3.595,35.191,-99.707,11.73
4.9750000000000005,-0.144,10.634,3.736,-11.73,0.335,10.155,-3.545,-11.73,-0.719,11.073,-3.595,29.326,-99.707,11.73
4.98,-0.24,10.538,3.688,-11.73,0.383,10.011,-3.497,-5.865,-0.863,11.073,-3.595,23.46,-105.572,11.73
4.985,-0.383,10.346,3.64,-5.865,0.527,9.963,-3.401,-5.865,-1.007,10.929,-3.595,23.46,-105.572,11.73
4.99,-0.479,10.251,3.593,-5.865,0.671,9.915,-3.353,-5.865,-1.15,10.785,-3.451,17.595,-105.572,5.865
4.995,-0.623,10.155,3.497,-5.865,0.766,9.867,-3.305,-5.865,-1.294,10.497,-3.451,5.865,-111.437,5.865
5.0,-0.766,10.011,3.449,-0.0,0.814,9.82,-3.305,0.0,-1.438,10.354,-3.307,5.865,-117.302,5.865
5.005,-0.814,9.915,3.497,-0.0,0.862,9.724,-3.353,0.0,-1.438,10.21,-3.307,5.865,-117.302,5.865
5.01,-0.766,9.82,3.545,-0.0,0.814,9.724,-3.401,0.0,-1.582,10.066,-3.307,5.865,-123.167,0.0
5.015,-0.671,9.867,3.688,-0.0,0.719,9.915,-3.593,0.0,-1.438,9.922,-3.451,0.0,-129.032,0.0
5.0200000000000005,-0.575,10.107,3.928,-0.0,0.575,10.155,-3.928,0.0,-1.438,10.066,-3.595,0.0,-129.032,0.0
5.025,-0.431,10.442,4.263,-0.0,0.623,10.586,-4.359,0.0,-1.294,10.21,-3.739,0.0,-134.897,0.0
5.03,-0.431,10.921,4.838,-0.0,0.862,11.113,-4.934,0.0,-1.15,10.641,-4.17,0.0,-134.897,0.0
5.035,-0.623,11.4,5.317,-0.0,1.15,11.544,-5.365,0.0,-1.15,11.073,-4.745,0.0,-140.762,5.865
5.04,-0.719,11.879,5.748,-0.0,1.389,12.023,-5.796,0.0,-1.15,11.504,-5.177,0.0,-146.628,0.0
5.045,-0.862,12.215,6.083,-0.0,1.629,12.358,-6.035,0.0,-1.294,11.935,-5.608,0.0,-146.628,0.0
5.05,-0.91,12.358,6.275,5.865,1.772,12.502,-6.131,5.865,-1.294,12.223,-6.04,0.0,-146.628,0.0
5.055,-0.862,12.358,6.371,11.73,1.772,12.406,-6.131,11.73,-1.15,12.367,-6.183,0.0,-146.628,0.0
5.0600000000000005,-0.766,12.167,6.275,17.595,1.677,12.119,-5.94,17.595,-1.15,12.367,-6.327,0.0,-140.762,-11.73
5.065,-0.671,11.736,5.988,23.46,1.437,11.64,-5.652,23.46,-0.863,12.079,-6.183,0.0,-134.897,-17.595
5.07,-0.431,11.304,5.652,29.326,1.15,11.209,-5.269,29.326,-0.863,11.792,-5.896,5.865,-129.032,-23.46
5.075,-0.24,10.825,5.269,29.326,0.814,10.73,-4.838,29.326,-0.575,11.36,-5.608,5.865,-129.032,-23.46
5.08,-0.048,10.442,4.838,35.191,0.527,10.394,-4.407,35.191,-0.431,10.929,-5.177,5.865,-123.167,-23.46
5.085,0.144,10.107,4.407,35.191,0.24,10.107,-3.976,35.191,-0.288,10.497,-4.745,5.865,-117.302,-29.326
5.09,0.383,9.82,4.072,35.191,0.0,9.915,-3.64,35.191,-0.144,10.066,-4.314,5.865,-117.302,-35.191
5.095,0.575,9.58,3.736,29.326,-0.335,9.772,-3.353,29.326,0.0,9.778,-3.883,5.865,-111.437,-35.191
5.1000000000000005,0.766,9.436,3.401,29.326,-0.575,9.676,-3.018,29.326,0.144,9.491,-3.595,5.865,-111.437,-29.326
5.105,0.91,9.341,3.066,29.326,-0.814,9.58,-2.682,23.46,0.431,9.347,-3.307,17.595,-111.437,-23.46
5.11,1.102,9.245,2.73,23.46,-1.054,9.484,-2.395,23.46,0.431,9.203,-3.02,23.46,-111.437,-23.46
5.115,1.293,9.197,2.539,23.46,-1.245,9.341,-2.203,23.46,0.719,9.203,-2.588,23.46,-111.437,-23.46
5.12,1.389,9.197,2.299,23.46,-1.437,9.149,-2.06,17.595,0.719,9.203,-2.445,29.326,-111.437,-17.595
5.125,1.485,9.197,2.251,17.595,-1.581,9.005,-2.012,17.595,0.863,9.203,-2.157,29.326,-117.302,-17.595
5.13,1.533,9.101,2.156,17.595,-1.581,8.814,-1.916,17.595,0.863,9.347,-2.157,35.191,-117.302,-17.595
5.135,1.581,9.005,2.108,17.595,-1.581,8.622,-1.916,17.595,0.863,9.491,-2.013,35.191,-123.167,-17.595
5.14,1.629,8.862,2.156,17.595,-1.533,8.478,-1.964,17.595,1.007,9.347,-1.869,35.191,-129.032,-17.595
5.1450000000000005,1.629,8.766,2.251,23.46,-1.485,8.383,-2.06,17.595,1.15,9.203,-2.013,29.326,-129.032,-17.595
5.15,1.533,8.766,2.299,23.46,-1.389,8.335,-2.156,17.595,1.15,9.203,-2.013,29.326,-134.897,-17.595
5.155,1.437,8.766,2.347,23.46,-1.15,8.383,-2.156,17.595,1.15,9.203,-2.157,23.46,-134.897,-17.595
5.16,1.341,8.814,2.395,23.46,-1.006,8.574,-2.203,17.595,1.007,9.203,-2.157,23.46,-140.762,-17.595
5.165,1.198,8.862,2.443,23.46,-0.862,8.766,-2.203,17.595,1.007,9.203,-2.157,17.595,-140.762,-17.595
5.17,1.102,8.909,2.395,23.46,-0.766,8.862,-2.156,17.595,0.863,9.059,-2.157,17.595,-140.762,-17.595
5.175,1.006,8.957,2.299,17.595,-0.671,9.101,-2.06,17.595,0.719,9.059,-2.157,5.865,-140.762,-17.595
5.18,0.91,9.053,2.203,23.46,-0.479,9.197,-1.964,17.595,0.719,9.059,-2.157,5.865,-140.762,-17.595
5.1850000000000005,0.766,9.053,2.203,23.46,-0.335,9.197,-1.964,17.595,0.575,9.059,-2.013,5.865,-140.762,-17.595
5.19,0.671,9.005,2.203,23.46,-0.144,9.149,-2.012,23.46,0.431,9.059,-2.013,17.595,-140.762,-17.595
5.195,0.527,8.957,2.299,23.46,0.0,9.101,-2.108,23.46,0.431,8.916,-2.013,17.595,-140.762,-17.595
5.2,0.431,8.957,2.395,23.46,0.24,9.149,-2.108,23.46,0.288,8.916,-2.157,23.46,-140.762,-17.595
5.205,0.287,9.053,2.395,23.46,0.383,9.197,-2.156,23.46,0.144,8.916,-2.157,23.46,-140.762,-23.46
5.21,0.144,9.101,2.395,29.326,0.479,9.149,-2.108,29.326,0.0,9.059,-2.301,23.46,-140.762,-23.46
5.215,0.096,9.101,2.347,29.326,0.527,9.149,-2.06,29.326,0.0,9.203,-2.301,29.326,-134.897,-23.46
5.22,0.048,9.005,2.299,35.191,0.671,9.101,-1.964,35.191,-0.144,9.203,-2.301,29.326,-134.897,-29.326
5.2250000000000005,-0.048,8.814,2.203,35.191,0.719,8.862,-1.868,35.191,-0.144,9.059,-2.157,29.326,-129.032,-35.191
5.23,-0.048,8.67,2.156,41.056,0.671,8.622,-1.82,35.191,-0.144,8.772,-2.013,29.326,-129.032,-35.191
5.235,-0.096,8.478,2.06,41.056,0.623,8.383,-1.677,41.056,-0.144,8.628,-2.013,35.191,-129.032,-35.191
5.24,-0.144,8.239,1.82,41.056,0.575,8.191,-1.437,41.056,-0.288,8.484,-1.869,35.191,-123.167,-41.056
5.245,-0.144,8.095,1.629,41.056,0.527,8.095,-1.245,41.056,-0.431,8.34,-1.726,35.191,-123.167,-41.056
5.25,-0.144,8.047,1.437,46.921,0.527,8.143,-1.102,46.921,-0.431,8.197,-1.438,41.056,-117.302,-41.056
5.255,-0.287,8.047,1.341,41.056,0.766,8.239,-1.054,41.056,-0.575,8.053,-1.294,41.056,-117.302,-41.056
5.26,-0.431,8.095,1.341,41.056,0.958,8.239,-1.054,41.056,-0.575,8.053,-1.294,41.056,-117.302,-41.056
5.265,-0.623,8.047,1.437,46.921,1.198,8.239,-1.102,41.056,-0.719,8.053,-1.294,41.056,-117.302,-41.056
5.2700000000000005,-0.719,7.951,1.485,46.921,1.341,8.095,-1.15,41.056,-0.863,8.053,-1.294,41.056,-117.302,-41.056
5.275,-0.862,7.856,1.485,46.921,1.389,7.904,-1.15,41.056,-0.863,7.909,-1.294,46.921,-111.437,-41.056
5.28,-0.862,7.712,1.437,46.921,1.341,7.664,-1.102,46.921,-1.007,7.765,-1.294,46.921,-111.437,-46.921
5.285,-0.862,7.568,1.389,46.921,1.341,7.568,-1.006,46.921,-1.15,7.765,-1.294,46.921,-105.572,-46.921
5.29,-0.958,7.52,1.341,46.921,1.389,7.52,-1.006,46.921,-1.15,7.621,-1.294,46.921,-105.572,-46.921
5.295,-1.006,7.472,1.341,46.921,1.485,7.472,-1.054,46.921,-1.15,7.621,-1.15,46.921,-105.572,-46.921
5.3,-1.15,7.568,1.389,46.921,1.581,7.568,-1.102,46.921,-1.294,7.478,-1.15,46.921,-105.572,-46.921
5.305,-1.293,7.712,1.485,46.921,1.772,7.76,-1.198,41.056,-1.438,7.621,-1.294,52.786,-99.707,-46.921
5.3100000000000005,-1.437,7.904,1.629,41.056,1.868,7.951,-1.341,41.056,-1.726,7.765,-1.438,52.786,-99.707,-46.921
5.315,-1.581,8.143,1.724,46.921,2.012,8.239,-1.485,41.056,-1.869,7.909,-1.438,52.786,-99.707,-46.921
5.32,-1.677,8.383,1.82,46.921,2.108,8.478,-1.581,41.056,-2.013,8.197,-1.582,46.921,-99.707,-41.056
5.325,-1.868,8.622,2.012,41.056,2.251,8.766,-1.772,46.921,-2.157,8.484,-1.726,46.921,-99.707,-41.056
5.33,-1.964,8.814,2.203,46.921,2.395,8.957,-1.964,46.921,-2.301,8.628,-1.869,46.921,-99.707,-46.921
5.335,-2.012,8.957,2.395,41.056,2.587,9.053,-2.156,46.921,-2.445,8.772,-2.013,46.921,-99.707,-41.056
5.34,-2.108,8.957,2.587,46.921,2.682,9.101,-2.347,41.056,-2.445,8.916,-2.301,46.921,-99.707,-41.056
5.345,-2.203,9.005,2.73,46.921,2.73,9.053,-2.491,46.921,-2.445,8.916,-2.445,46.921,-99.707,-41.056
5.3500000000000005,-2.251,9.053,2.874,46.921,2.682,9.053,-2.682,41.056,-2.588,8.916,-2.588,52.786,-99.707,-41.056
5.355,-2.299,9.101,3.114,41.056,2.73,9.101,-2.922,41.056,-2.732,9.059,-2.732,52.786,-93.842,-41.056
5.36,-2.395,9.197,3.401,41.056,2.97,9.341,-3.209,41.056,-2.732,9.203,-3.02,52.786,-93.842,-46.921
5.365,-2.539,9.341,3.64,41.056,3.257,9.58,-3.449,41.056,-2.876,9.203,-3.307,46.921,-93.842,-41.056
5.37,-2.635,9.436,3.928,41.056,3.64,9.867,-3.736,35.191,-2.876,9.203,-3.595,46.921,-93.842,-41.056
5.375,-2.826,9.532,4.263,35.191,3.928,9.915,-3.976,35.191,-2.732,9.203,-3.883,46.921,-93.842,-41.056
5.38,-2.922,9.628,4.455,35.191,4.072,9.915,-4.167,35.191,-2.876,9.347,-4.314,52.786,-87.977,-35.191
5.385,-3.018,9.772,4.646,35.191,4.024,9.867,-4.311,35.191,-2.876,9.491,-4.458,52.786,-82.111,-35.191
5.39,-2.97,9.867,4.694,35.191,3.928,9.772,-4.359,35.191,-3.02,9.778,-4.602,52.786,-76.246,-35.191
5.3950000000000005,-2.922,9.867,4.646,35.191,3.736,9.628,-4.263,35.191,-3.02,9.922,-4.745,52.786,-64.516,-35.191
5.4,-2.826,9.867,4.503,35.191,3.353,9.484,-4.072,29.326,-3.164,10.066,-4.602,52.786,-58.651,-29.326
5.405,-2.587,9.867,4.167,29.326,2.97,9.58,-3.736,29.326,-3.164,10.066,-4.458,52.786,-52.786,-29.326
5.41,-2.443,10.011,3.928,29.326,2.826,10.011,-3.545,29.326,-3.164,10.21,-4.026,52.786,-52.786,-29.326
5.415,-2.395,10.299,3.784,29.326,2.778,10.442,-3.545,29.326,-3.02,10.21,-3.883,46.921,-46.921,-29.326
5.42,-2.395,10.682,3.832,23.46,2.922,10.873,-3.593,23.46,-3.02,10.354,-3.739,41.056,-46.921,-23.46
5.425,-2.491,11.113,3.976,23.46,3.066,11.304,-3.784,23.46,-3.02,10.785,-3.739,41.056,-46.921,-23.46
5.43,-2.587,11.544,4.263,23.46,3.257,11.688,-4.024,23.46,-3.02,11.216,-4.026,41.056,-46.921,-23.46
5.4350000000000005,-2.73,11.927,4.455,23.46,3.497,12.071,-4.263,23.46,-3.164,11.648,-4.17,35.191,-46.921,-23.46
5.44,-2.778,12.119,4.742,23.46,3.688,12.215,-4.455,23.46,-3.164,11.935,-4.458,35.191,-46.921,-23.46
5.445,-2.778,12.119,4.886,23.46,3.688,12.167,-4.646,23.46,-3.164,12.079,-4.745,35.191,-46.921,-17.595
5.45,-2.587,12.071,5.125,23.46,3.64,12.023,-4.79,23.46,-3.02,12.079,-4.889,35.191,-41.056,-17.595
5.455,-2.635,12.071,5.221,23.46,3.736,12.023,-4.934,23.46,-2.732,12.079,-5.033,35.191,-35.191,-23.46
5.46,-2.491,12.071,5.509,23.46,3.449,11.927,-5.221,23.46,-2.732,12.223,-5.177,35.191,-35.191,-23.46
5.465,-2.299,12.071,5.556,23.46,3.353,12.071,-5.173,23.46,-2.588,12.223,-5.464,35.191,-23.46,-23.46
5.47,-2.251,12.119,5.317,23.46,3.401,12.406,-4.886,23.46,-2.445,12.223,-5.464,29.326,-17.595,-23.46
5.4750000000000005,-2.251,12.071,5.125,23.46,3.353,12.55,-4.551,23.46,-2.301,12.079,-5.321,29.326,-11.73,-23.46
5.48,-2.203,11.927,4.742,23.46,3.161,12.502,-4.167,23.46,-2.301,11.792,-5.033,29.326,-5.865,-17.595
5.485,-2.06,11.688,4.359,23.46,2.874,12.262,-3.832,23.46,-2.301,11.504,-4.745,29.326,5.865,-17.595
5.49,-1.916,11.352,4.024,17.595,2.587,12.071,-3.545,17.595,-2.301,11.073,-4.458,35.191,11.73,-17.595
5.495,-1.772,11.017,3.736,11.73,2.347,11.783,-3.257,17.595,-2.157,10.785,-4.026,41.056,17.595,-17.595
5.5,-1.629,10.825,3.497,11.73,2.156,11.544,-3.114,11.73,-2.013,10.354,-3.739,46.921,23.46,-11.73
5.505,-1.485,10.634,3.401,5.865,2.06,11.304,-3.018,5.865,-2.013,10.21,-3.451,52.786,29.326,-11.73
5.51,-1.485,10.538,3.257,5.865,1.964,11.113,-2.874,5.865,-1.869,10.066,-3.307,64.516,29.326,-5.865
5.515,-1.389,10.682,3.018,-0.0,1.389,11.113,-2.347,0.0,-1.869,10.066,-3.164,70.381,35.191,0.0
5.5200000000000005,-1.293,11.113,2.299,-0.0,1.629,11.304,-2.06,5.865,-2.013,10.354,-3.02,76.246,35.191,0.0
5.525,-1.102,11.017,2.635,-0.0,1.341,11.065,-2.443,0.0,-1.869,11.073,-2.157,82.111,35.191,0.0
5.53,-0.958,10.73,2.682,-0.0,1.341,10.586,-2.347,0.0,-1.726,10.929,-2.588,87.977,35.191,0.0
5.535,-0.958,10.586,2.682,-5.865,1.485,10.538,-2.443,-5.865,-1.582,10.785,-2.588,87.977,29.326,0.0
5.54,-0.862,10.49,2.73,-5.865,1.245,10.394,-2.443,-5.865,-1.294,10.641,-2.588,87.977,29.326,5.865
5.545,-0.671,10.299,2.682,-5.865,1.15,10.299,-2.299,0.0,-1.294,10.497,-2.588,87.977,29.326,5.865
5.55,-0.671,10.203,2.395,-5.865,1.198,10.299,-1.916,-5.865,-1.15,10.354,-2.588,87.977,29.326,5.865
5.555,-0.623,10.203,2.06,-11.73,1.102,10.346,-1.629,-5.865,-1.007,10.21,-2.301,87.977,35.191,5.865
5.5600000000000005,-0.527,10.251,1.82,-5.865,0.958,10.251,-1.437,-5.865,-1.007,10.21,-2.013,87.977,35.191,11.73
5.565,-0.479,10.251,1.629,-5.865,0.719,10.107,-1.15,-5.865,-0.863,10.354,-1.726,87.977,35.191,11.73
5.57,-0.431,10.059,1.198,-5.865,0.479,9.915,-0.719,-5.865,-1.007,10.354,-1.438,87.977,35.191,11.73
5.575,-0.192,9.915,0.862,-5.865,0.335,9.724,-0.527,0.0,-1.007,10.21,-1.007,87.977,35.191,5.865
5.58,-0.144,9.628,0.719,-5.865,0.144,9.436,-0.335,0.0,-0.863,10.066,-0.719,87.977,35.191,5.865
5.585,-0.048,9.341,0.527,-0.0,0.096,9.101,-0.144,0.0,-0.863,9.778,-0.575,87.977,35.191,5.865
5.59,0.048,8.909,0.335,-0.0,-0.287,8.383,0.096,0.0,-0.719,9.491,-0.431,87.977,29.326,5.865
5.595,0.144,8.526,0.24,-0.0,-0.048,8.526,0.24,0.0,-0.719,9.059,-0.144,82.111,23.46,5.865
5.6000000000000005,0.335,8.047,-0.048,-5.865,-0.335,8.143,0.431,0.0,-0.431,8.628,-0.144,82.111,23.46,5.865
5.605,0.575,7.856,-0.144,-5.865,-0.623,7.999,0.527,-5.865,-0.288,8.053,0.144,82.111,17.595,5.865
5.61,0.623,7.664,-0.24,-11.73,-0.623,7.808,0.527,-11.73,0.0,7.765,0.288,82.111,17.595,11.73
5.615,0.575,7.616,-0.192,-17.595,-0.527,7.664,0.479,-17.595,0.0,7.621,0.431,87.977,17.595,11.73
5.62,0.575,7.568,-0.096,-23.46,-0.479,7.568,0.335,-23.46,0.0,7.621,0.288,87.977,11.73,17.595
5.625,0.527,7.664,0.048,-23.46,-0.335,7.616,0.192,-23.46,0.144,7.621,0.288,87.977,5.865,23.46
5.63,0.431,7.856,0.192,-29.326,-0.144,7.856,0.192,-29.326,0.144,7.765,0.144,87.977,5.865,29.326
5.635,0.431,8.287,0.192,-35.191,-0.144,8.287,0.192,-35.191,0.0,8.053,-0.0,87.977,0.0,29.326
5.64,0.431,8.766,0.144,-35.191,-0.192,8.67,0.24,-35.191,0.0,8.484,-0.0,87.977,0.0,35.191
5.6450000000000005,0.431,9.388,0.048,-35.191,-0.287,9.101,0.287,-35.191,0.0,9.059,-0.0,82.111,0.0,35.191
5.65,0.335,9.963,-0.096,-35.191,-0.335,9.436,0.479,-35.191,-0.144,9.922,0.144,82.111,0.0,35.191
5.655,0.287,10.251,-0.287,-35.191,-0.24,9.58,0.623,-29.326,-0.431,10.641,0.288,76.246,0.0,35.191
5.66,0.24,10.299,-0.431,-29.326,-0.144,9.628,0.766,-23.46,-0.575,10.929,0.431,70.381,-5.865,35.191
5.665,0.335,10.155,-0.479,-17.595,-0.096,9.724,0.91,-11.73,-0.431,10.929,0.575,64.516,-11.73,29.326
5.67,0.479,9.724,-0.671,-5.865,-0.287,9.532,1.054,0.0,-0.288,10.641,0.719,58.651,-17.595,17.595
5.675,0.575,9.293,-0.671,-0.0,-0.287,9.341,0.958,5.865,0.0,9.922,0.863,52.786,-17.595,11.73
5.68,0.623,9.053,-0.527,5.865,-0.24,9.149,0.862,11.73,0.144,9.347,0.719,52.786,-17.595,0.0
5.6850000000000005,0.623,8.862,-0.335,11.73,-0.096,8.957,0.623,11.73,0.288,9.059,0.719,52.786,-23.46,-5.865
5.69,0.575,8.718,-0.144,17.595,0.048,8.909,0.431,17.595,0.431,8.772,0.431,52.786,-23.46,-11.73
5.695,0.479,8.67,0.048,17.595,0.287,8.862,0.335,17.595,0.431,8.772,0.288,52.786,-23.46,-11.73
5.7,0.335,8.574,0.144,23.46,0.527,8.862,0.335,23.46,0.431,8.628,-0.0,58.651,-17.595,-17.595
5.705,0.24,8.622,0.144,23.46,0.719,9.005,0.287,29.326,0.431,8.484,-0.0,58.651,-11.73,-17.595
5.71,0.24,8.67,0.24,29.326,0.623,9.101,0.192,29.326,0.431,8.484,-0.144,64.516,-11.73,-23.46
5.715,0.287,8.67,0.24,35.191,0.431,9.101,0.24,35.191,0.431,8.484,-0.144,70.381,-5.865,-23.46
5.72,0.335,8.622,0.096,35.191,0.144,9.245,0.431,35.191,0.431,8.484,-0.144,70.381,0.0,-29.326
5.7250000000000005,0.527,8.478,-0.192,35.191,-0.096,9.149,0.719,35.191,0.288,8.34,-0.0,76.246,5.865,-29.326
5.73,0.671,8.287,-0.479,29.326,-0.048,9.101,0.958,29.326,0.431,8.053,0.288,82.111,11.73,-29.326
5.735,0.766,8.143,-0.527,23.46,-0.24,9.005,0.91,23.46,0.575,7.765,0.575,87.977,17.595,-23.46
5.74,0.766,7.856,-0.575,23.46,-0.144,8.814,1.006,23.46,0.719,7.621,0.575,93.842,23.46,-23.46
5.745,0.623,7.712,-0.671,17.595,-0.144,8.622,1.006,23.46,0.719,7.19,0.719,99.707,23.46,-17.595
5.75,0.527,7.664,-0.766,11.73,-0.144,8.478,1.054,17.595,0.575,7.046,0.863,111.437,29.326,-17.595
5.755,0.383,7.568,-0.766,11.73,-0.048,8.191,1.15,17.595,0.288,7.046,1.007,123.167,35.191,-11.73
5.76,0.287,7.377,-0.91,11.73,-0.192,7.904,1.245,17.595,0.144,7.046,1.007,134.897,35.191,-11.73
5.765,0.048,6.85,-1.054,17.595,-1.341,8.239,1.389,17.595,0.0,7.046,1.15,140.762,35.191,-11.73
5.7700000000000005,-0.671,6.179,-1.102,23.46,-1.245,7.425,1.389,11.73,0.144,6.902,1.294,146.628,35.191,-17.595
5.775,0.671,6.946,-1.198,29.326,-1.533,6.85,1.437,5.865,-0.575,6.471,1.438,146.628,41.056,-23.46
5.78,1.437,6.898,-1.293,41.056,-1.629,6.275,1.437,11.73,-0.719,6.327,1.582,146.628,46.921,-35.191
5.785,0.958,6.562,-1.293,46.921,-1.198,5.844,1.341,11.73,0.288,6.759,1.582,140.762,52.786,-35.191
5.79,1.485,7.041,-1.341,41.056,-0.91,5.7,1.629,11.73,0.431,7.046,1.582,140.762,46.921,-35.191
5.795,1.772,7.281,-1.629,35.191,-0.479,5.556,1.868,5.865,0.144,7.046,1.582,134.897,46.921,-35.191
5.8,1.916,7.329,-1.485,23.46,-0.431,5.7,1.724,5.865,0.719,7.19,1.869,129.032,41.056,-23.46
5.805,1.245,6.993,-1.341,11.73,-0.431,6.179,1.677,5.865,0.863,6.759,1.869,123.167,35.191,-5.865
5.8100000000000005,1.437,7.281,-1.341,5.865,-0.862,6.85,1.724,5.865,1.294,7.19,1.582,117.302,35.191,11.73
5.815,1.15,7.329,-1.533,5.865,-0.814,7.233,2.203,5.865,1.438,7.19,1.726,111.437,35.191,23.46
5.82,1.054,7.999,-2.347,-0.0,-1.15,7.664,3.066,0.0,1.438,8.053,1.869,105.572,35.191,35.191
5.825,0.766,7.377,-3.018,-5.865,-1.006,7.185,3.64,0.0,1.007,8.484,2.588,105.572,35.191,46.921
5.83,1.437,7.664,-4.119,-17.595,-1.916,6.85,4.742,-11.73,1.726,9.059,3.307,99.707,41.056,58.651
5.835,2.012,8.191,-4.886,-23.46,-2.682,7.472,5.221,-17.595,1.726,9.635,4.314,99.707,41.056,64.516
5.84,2.395,8.862,-5.461,-23.46,-3.305,7.568,5.796,-17.595,2.013,10.066,5.321,87.977,41.056,58.651
5.845,2.635,9.245,-5.604,-23.46,-3.593,8.335,5.652,-11.73,1.726,10.354,5.608,82.111,23.46,46.921
5.8500000000000005,2.682,10.011,-5.03,-17.595,-3.209,9.628,4.79,-11.73,1.582,10.785,6.04,70.381,5.865,41.056
5.855,2.299,10.969,-3.784,-11.73,-2.443,10.778,3.497,-5.865,2.013,11.504,5.464,58.651,0.0,29.326
5.86,1.916,11.831,-2.395,-0.0,-1.581,11.352,2.299,0.0,2.157,11.935,3.883,46.921,-17.595,23.46
5.865,1.245,12.31,-1.581,-0.0,-0.958,10.778,1.868,11.73,1.869,12.079,2.588,46.921,-23.46,17.595
5.87,0.958,12.167,-1.437,-5.865,-0.527,10.442,2.06,23.46,1.438,12.079,1.726,41.056,-29.326,11.73
5.875,0.862,11.592,-1.772,-11.73,-0.192,9.58,2.251,35.191,1.007,12.079,1.726,41.056,-29.326,17.595
5.88,0.91,10.921,-1.868,-23.46,0.335,9.58,2.299,41.056,1.007,11.648,1.869,41.056,-29.326,23.46
5.885,0.91,10.442,-1.724,-29.326,0.479,9.341,2.251,46.921,1.007,11.504,2.013,41.056,-23.46,29.326
5.89,0.144,10.538,-2.156,-29.326,0.671,9.341,1.964,52.786,0.863,10.929,2.013,35.191,-23.46,35.191
5.8950000000000005,0.383,10.107,-1.629,-35.191,0.91,9.101,2.203,58.651,1.007,10.497,1.294,35.191,-17.595,41.056
5.9,0.048,9.82,-1.677,-35.191,-0.287,18.873,1.293,64.516,0.288,10.497,1.726,29.326,-11.73,41.056
5.905,0.0,10.442,-1.293,-35.191,-0.096,13.316,1.916,23.46,-0.144,10.641,1.726,29.326,-5.865,41.056
5.91,0.431,10.251,-1.724,-29.326,0.814,9.676,2.251,-11.73,-0.144,10.066,1.438,23.46,-11.73,41.056
5.915,-0.431,10.059,-1.916,-23.46,0.623,7.568,2.97,-11.73,-0.144,10.354,1.582,23.46,-17.595,41.056
5.92,0.287,10.011,-2.682,-5.865,0.958,7.664,3.018,17.595,0.719,10.641,1.869,23.46,-23.46,35.191
5.925,0.144,10.778,-2.587,17.595,1.15,9.436,2.682,46.921,0.0,11.36,2.732,5.865,-23.46,23.46
5.93,-0.096,11.544,-2.108,35.191,1.485,10.778,2.443,70.381,-0.144,11.504,2.588,-5.865,-23.46,5.865
5.9350000000000005,-0.383,11.448,-1.964,46.921,1.006,12.119,2.443,76.246,-0.144,11.36,2.013,-17.595,-23.46,-5.865
5.94,-0.192,11.4,-2.299,52.786,0.958,12.885,2.778,76.246,-0.288,11.216,2.301,-23.46,-23.46,-11.73
5.945,0.144,12.023,-2.539,58.651,1.006,12.741,2.97,70.381,0.431,12.079,2.445,-29.326,-17.595,-17.595
5.95,0.383,12.837,-2.491,64.516,1.293,12.789,2.778,64.516,1.007,12.223,2.157,-35.191,-11.73,-17.595
5.955,0.287,12.598,-2.299,64.516,1.054,12.789,2.682,64.516,2.157,12.942,1.869,-41.056,-11.73,-17.595
5.96,0.24,11.831,-1.916,64.516,0.096,14.083,0.91,64.516,1.438,12.079,2.301,-52.786,-11.73,-5.865
5.965,-1.724,6.179,-1.772,76.246,1.485,12.981,4.934,58.651,-1.582,9.347,3.739,-58.651,-5.865,0.0
5.97,-1.772,6.993,-4.551,105.572,2.539,10.969,4.119,58.651,-7.909,4.17,5.608,-17.595,-23.46,-23.46
5.9750000000000005,-2.395,10.346,-2.491,146.628,2.874,8.574,1.054,87.977,-4.314,9.635,1.294,82.111,-46.921,-70.381
5.98,-2.539,12.023,1.15,175.953,4.407,8.862,-2.778,140.762,-1.582,10.929,2.301,99.707,-76.246,-99.707
5.985,-2.874,11.975,1.054,187.683,2.012,10.442,5.365,181.818,-1.582,12.079,2.301,76.246,-87.977,-111.437
5.99,-1.533,9.915,-2.012,181.818,-0.048,9.436,3.688,152.493,-1.726,13.661,-1.869,58.651,-99.707,-111.437
5.995,-0.862,8.814,-2.826,164.223,0.24,9.676,2.635,99.707,-0.144,11.36,2.301,17.595,-93.842,-105.572
6.0,-1.437,9.915,-1.964,152.493,0.048,10.538,1.916,82.111,-0.575,10.641,2.588,0.0,-93.842,-105.572
6.005,-1.389,10.73,-1.581,152.493,0.24,11.257,2.012,82.111,-0.431,10.641,2.157,0.0,-105.572,-111.437
6.01,-1.581,11.927,-1.964,152.493,0.719,12.167,2.395,82.111,-0.863,11.36,2.013,5.865,-111.437,-117.302
6.015000000000001,-1.677,11.448,-2.299,146.628,1.82,12.55,2.635,70.381,-0.575,12.511,2.157,5.865,-123.167,-117.302
6.0200000000000005,-2.203,11.065,-2.539,146.628,2.012,11.64,2.826,64.516,-0.575,11.504,2.588,5.865,-123.167,-117.302
6.025,-2.491,10.73,-2.539,140.762,1.916,11.113,2.587,58.651,-0.863,11.36,2.732,17.595,-123.167,-117.302
6.03,-2.299,11.113,-2.299,129.032,1.82,10.682,2.395,52.786,-1.15,11.792,2.732,23.46,-123.167,-117.302
6.035,-2.443,10.921,-1.868,117.302,1.724,10.873,1.868,41.056,-1.438,11.792,2.445,29.326,-123.167,-111.437
