time_aligned_sec,L_Acc_X_aligned,L_Acc_Y_aligned,L_Acc_Z_aligned,L_Gyro_Z_aligned,R_Acc_X_aligned,R_Acc_Y_aligned,R_Acc_Z_aligned,R_Gyro_Z_aligned,T_Acc_X_aligned,T_Acc_Y_aligned,T_Acc_Z_aligned,T_Gyro_X_aligned,T_Gyro_Y_aligned,T_Gyro_Z_aligned
0.0,-0.096,9.915,1.533,-17.595,1.82,10.107,-1.772,-11.73,2.013,10.354,2.157,-29.326,0.0,-17.595
0.005,-0.096,10.059,1.485,-17.595,1.82,10.346,-1.724,-17.595,2.013,10.641,2.157,-29.326,0.0,-23.46
0.01,-0.048,10.155,1.485,-23.46,1.772,10.442,-1.724,-23.46,2.013,10.785,2.013,-29.326,0.0,-29.326
0.015,-0.048,10.203,1.437,-29.326,1.724,10.49,-1.677,-29.326,2.013,10.785,2.013,-23.46,0.0,-35.191
0.02,0.0,10.203,1.389,-29.326,1.677,10.538,-1.581,-29.326,1.869,10.929,2.013,-23.46,-5.865,-35.191
0.025,0.048,10.155,1.341,-29.326,1.629,10.49,-1.581,-35.191,1.726,10.785,2.013,-17.595,-5.865,-35.191
0.03,0.096,10.059,1.341,-29.326,1.533,10.442,-1.581,-35.191,1.582,10.785,2.013,-17.595,-11.73,-35.191
0.035,0.144,9.963,1.341,-29.326,1.437,10.346,-1.581,-35.191,1.438,10.641,2.013,-11.73,-11.73,-35.191
0.04,0.144,9.867,1.245,-29.326,1.389,10.203,-1.533,-29.326,1.438,10.354,1.869,-5.865,-11.73,-35.191
0.045,0.192,9.772,1.198,-29.326,1.341,10.059,-1.437,-29.326,1.294,10.21,1.869,-5.865,-11.73,-35.191
0.05,0.192,9.676,1.15,-23.46,1.293,9.915,-1.389,-29.326,1.15,10.066,1.869,-5.865,-5.865,-23.46
0.055,0.192,9.628,1.15,-17.595,1.245,9.82,-1.389,-17.595,1.15,9.922,1.869,-5.865,-5.865,-23.46
0.06,0.192,9.58,1.15,-17.595,1.198,9.676,-1.389,-17.595,1.007,9.778,1.869,-5.865,-5.865,-17.595
0.065,0.24,9.58,1.15,-11.73,1.15,9.58,-1.437,-11.73,1.007,9.635,1.869,-5.865,-5.865,-11.73
0.07,0.24,9.532,1.15,-5.865,1.15,9.58,-1.389,-5.865,0.863,9.491,1.869,-5.865,0.0,-5.865
0.075,0.24,9.58,1.102,-0.0,1.102,9.532,-1.341,0.0,0.863,9.347,1.869,-11.73,0.0,0.0
0.08,0.192,9.58,1.054,5.865,1.15,9.484,-1.341,5.865,0.863,9.347,1.726,-11.73,5.865,5.865
0.085,0.144,9.532,1.006,5.865,1.198,9.436,-1.245,5.865,1.007,9.203,1.726,-17.595,5.865,5.865
0.09,0.048,9.532,0.958,11.73,1.293,9.436,-1.245,11.73,1.15,9.347,1.726,-17.595,11.73,11.73
0.095,-0.096,9.58,0.91,11.73,1.437,9.532,-1.198,17.595,1.294,9.491,1.726,-23.46,17.595,17.595
0.1,-0.192,9.724,0.862,17.595,1.629,9.628,-1.102,17.595,1.582,9.491,1.582,-29.326,17.595,17.595
0.105,-0.24,9.772,0.766,17.595,1.772,9.724,-1.006,23.46,1.869,9.635,1.294,-29.326,17.595,17.595
0.11,-0.335,9.772,0.575,17.595,1.916,9.724,-0.814,23.46,2.013,9.635,1.15,-35.191,17.595,17.595
0.115,-0.383,9.724,0.479,23.46,1.964,9.724,-0.671,17.595,2.157,9.635,1.007,-35.191,17.595,17.595
0.12,-0.431,9.676,0.335,17.595,2.012,9.676,-0.575,23.46,2.157,9.491,0.863,-41.056,17.595,23.46
0.125,-0.431,9.628,0.24,11.73,2.108,9.724,-0.479,23.46,2.301,9.635,0.863,-41.056,17.595,23.46
0.13,-0.335,9.628,0.096,11.73,2.156,9.724,-0.335,17.595,2.301,9.635,0.575,-46.921,11.73,23.46
0.135,-0.335,9.628,0.0,11.73,2.06,9.628,-0.192,17.595,2.301,9.491,0.575,-46.921,11.73,17.595
0.14,-0.287,9.58,-0.096,5.865,2.012,9.58,-0.096,11.73,2.157,9.491,0.431,-46.921,5.865,11.73
0.145,-0.24,9.58,-0.144,5.865,1.916,9.58,-0.048,11.73,2.013,9.347,0.431,-52.786,5.865,5.865
0.15,-0.192,9.532,-0.192,-0.0,1.868,9.532,0.0,5.865,2.013,9.347,0.431,-52.786,5.865,5.865
0.155,-0.144,9.58,-0.24,-0.0,1.82,9.532,0.048,0.0,2.013,9.491,0.288,-58.651,0.0,0.0
0.16,-0.144,9.676,-0.24,-5.865,1.82,9.724,0.048,-5.865,2.013,9.778,0.288,-58.651,0.0,-5.865
0.165,-0.144,9.772,-0.287,-11.73,1.82,9.915,0.096,-5.865,2.013,10.066,0.288,-58.651,0.0,-11.73
0.17,-0.048,9.963,-0.335,-11.73,1.772,10.155,0.144,-11.73,2.013,10.354,0.144,-58.651,0.0,-17.595
0.17500000000000002,0.0,10.059,-0.335,-17.595,1.724,10.299,0.144,-17.595,1.869,10.497,0.144,-58.651,-5.865,-17.595
0.18,0.048,10.059,-0.287,-23.46,1.629,10.346,0.096,-17.595,1.726,10.497,0.288,-58.651,-5.865,-23.46
0.185,0.096,10.059,-0.287,-23.46,1.533,10.299,0.048,-23.46,1.726,10.354,0.288,-58.651,-11.73,-23.46
0.19,0.144,10.011,-0.287,-29.326,1.485,10.251,0.096,-29.326,1.582,10.21,0.288,-52.786,-11.73,-29.326
0.195,0.192,9.867,-0.335,-29.326,1.437,10.155,0.144,-29.326,1.438,10.21,0.144,-52.786,-11.73,-35.191
0.2,0.192,9.772,-0.383,-35.191,1.341,10.011,0.192,-35.191,1.438,10.066,0.144,-52.786,-11.73,-35.191
0.20500000000000002,0.24,9.628,-0.431,-35.191,1.293,9.82,0.192,-35.191,1.294,9.922,0.144,-52.786,-11.73,-41.056
0.21,0.24,9.484,-0.431,-35.191,1.245,9.676,0.24,-41.056,1.294,9.635,0.144,-52.786,-11.73,-41.056
0.215,0.335,9.388,-0.479,-41.056,1.198,9.532,0.24,-41.056,1.15,9.491,-0.0,-52.786,-11.73,-41.056
0.22,0.383,9.245,-0.527,-41.056,1.15,9.388,0.335,-41.056,1.007,9.347,-0.0,-52.786,-11.73,-41.056
0.225,0.383,9.149,-0.575,-41.056,1.102,9.245,0.383,-41.056,1.007,9.203,-0.0,-52.786,-11.73,-41.056
0.23,0.431,9.053,-0.671,-41.056,1.054,9.149,0.431,-41.056,1.007,9.059,-0.144,-52.786,-11.73,-41.056
0.23500000000000001,0.431,8.957,-0.719,-35.191,1.054,9.101,0.527,-41.056,0.863,8.916,-0.144,-52.786,-11.73,-41.056
0.24,0.479,9.005,-0.814,-35.191,0.958,8.957,0.575,-41.056,0.863,8.916,-0.288,-52.786,-5.865,-41.056
0.245,0.527,9.005,-0.862,-35.191,0.91,8.909,0.671,-35.191,0.719,8.772,-0.288,-58.651,-5.865,-41.056
0.25,0.527,8.957,-0.862,-29.326,0.862,8.909,0.671,-35.191,0.719,8.772,-0.288,-58.651,0.0,-41.056
0.255,0.575,8.957,-0.958,-29.326,0.766,8.957,0.719,-35.191,0.719,8.916,-0.431,-64.516,0.0,-41.056
0.26,0.623,9.053,-1.054,-29.326,0.766,9.053,0.814,-35.191,0.719,9.059,-0.431,-64.516,0.0,-35.191
0.265,0.623,9.149,-1.15,-23.46,0.814,9.101,0.91,-29.326,0.719,9.203,-0.575,-70.381,0.0,-35.191
0.27,0.623,9.197,-1.198,-23.46,0.814,9.245,0.958,-23.46,0.719,9.491,-0.719,-70.381,5.865,-29.326
0.275,0.575,9.293,-1.245,-17.595,0.814,9.436,1.054,-23.46,0.863,9.635,-0.719,-70.381,5.865,-23.46
0.28,0.575,9.388,-1.245,-17.595,0.766,9.58,1.054,-17.595,0.863,9.778,-0.719,-76.246,5.865,-17.595
0.28500000000000003,0.671,9.436,-1.245,-11.73,0.814,9.676,1.006,-11.73,0.719,9.922,-0.575,-70.381,5.865,-11.73
0.29,0.623,9.436,-1.198,-11.73,0.766,9.724,1.006,-11.73,0.719,10.066,-0.719,-70.381,5.865,-11.73
0.295,0.623,9.484,-1.198,-11.73,0.719,9.772,1.006,-5.865,0.575,10.21,-0.575,-70.381,5.865,-11.73
0.3,0.671,9.484,-1.198,-5.865,0.671,9.82,0.958,-5.865,0.575,10.21,-0.575,-70.381,11.73,-5.865
0.305,0.719,9.532,-1.245,-5.865,0.671,9.867,1.006,-5.865,0.575,10.21,-0.719,-64.516,11.73,-5.865
0.31,0.766,9.628,-1.389,-5.865,0.671,9.915,1.102,-5.865,0.575,10.21,-0.863,-64.516,17.595,-5.865
0.315,0.719,9.628,-1.485,-5.865,0.719,9.963,1.245,-5.865,0.719,10.354,-1.007,-58.651,17.595,-5.865
0.32,0.671,9.676,-1.581,-5.865,0.766,10.011,1.341,0.0,0.719,10.354,-1.007,-58.651,17.595,0.0
0.325,0.671,9.676,-1.581,-0.0,0.814,10.059,1.341,0.0,0.719,10.354,-1.007,-52.786,17.595,0.0
0.33,0.623,9.724,-1.581,-0.0,0.814,10.059,1.341,0.0,0.863,10.354,-1.007,-52.786,17.595,0.0
0.335,0.623,9.676,-1.198,-0.0,1.533,9.484,1.054,5.865,1.582,10.21,-1.438,-46.921,17.595,5.865
0.34,0.527,9.341,-1.677,-0.0,0.287,10.203,1.437,0.0,1.438,10.21,-1.15,-41.056,11.73,0.0
0.34500000000000003,0.479,9.915,-1.82,-0.0,1.245,10.011,1.677,0.0,1.294,10.21,-0.575,-41.056,5.865,-5.865
0.35000000000000003,0.144,9.867,-1.533,-0.0,1.293,10.107,1.341,0.0,1.15,10.354,-1.007,-41.056,11.73,-5.865
0.355,0.335,9.772,-1.485,-0.0,1.245,10.107,1.245,0.0,1.294,10.641,-1.15,-41.056,11.73,0.0
0.36,0.527,9.963,-1.581,-0.0,1.054,10.251,1.341,5.865,1.294,10.785,-1.007,-41.056,5.865,5.865
0.365,0.575,10.203,-1.533,5.865,1.102,10.586,1.341,5.865,2.157,9.778,-0.863,-41.056,5.865,11.73
0.37,0.383,9.963,-1.293,11.73,1.341,10.346,1.102,11.73,2.732,9.922,-1.15,-35.191,5.865,5.865
0.375,-0.24,9.293,-1.437,5.865,1.724,9.484,1.198,11.73,1.438,10.641,-0.863,-29.326,0.0,-11.73
0.38,-0.431,9.628,-1.724,-5.865,1.916,9.82,1.485,0.0,1.582,10.066,-1.15,-29.326,-5.865,-17.595
0.385,0.0,9.82,-1.916,-11.73,1.772,10.011,1.677,-11.73,1.726,9.778,-1.294,-29.326,-5.865,-17.595
0.39,0.431,9.82,-2.012,-17.595,1.389,9.963,1.82,-17.595,1.582,9.922,-1.438,-29.326,-5.865,-17.595
0.395,0.623,9.915,-1.82,-17.595,1.006,10.155,1.677,-17.595,0.863,10.497,-1.007,-29.326,-11.73,-23.46
0.4,0.527,10.011,-1.485,-17.595,0.814,10.346,1.293,-17.595,0.431,10.785,-0.575,-29.326,-11.73,-23.46
0.405,0.527,9.915,-1.293,-17.595,0.766,10.203,1.054,-17.595,0.431,10.785,-0.863,-23.46,-5.865,-23.46
0.41000000000000003,0.575,9.963,-1.533,-17.595,0.719,10.394,1.245,-23.46,0.575,10.641,-1.007,-17.595,0.0,-23.46
0.41500000000000004,0.623,10.011,-1.724,-17.595,0.671,10.394,1.485,-23.46,0.719,10.785,-1.007,-17.595,0.0,-23.46
0.42,0.575,10.011,-1.677,-17.595,0.766,10.299,1.437,-17.595,0.719,10.641,-1.15,-17.595,0.0,-17.595
0.425,0.527,9.963,-1.629,-11.73,0.814,10.299,1.389,-17.595,1.007,10.497,-1.15,-11.73,0.0,-11.73
0.43,0.527,9.867,-1.581,-11.73,0.958,10.203,1.389,-11.73,1.15,10.497,-1.007,-11.73,0.0,-5.865
0.435,0.383,9.82,-1.485,-5.865,1.102,10.107,1.293,-5.865,1.438,10.21,-1.294,-11.73,0.0,0.0
0.44,0.479,9.867,-1.389,-0.0,1.198,10.011,1.198,0.0,2.013,9.922,-1.726,-5.865,-5.865,0.0
0.445,0.24,9.724,-1.964,-0.0,1.485,9.867,1.533,5.865,1.869,10.066,-0.863,-5.865,-23.46,0.0
0.45,-0.144,9.724,-1.916,-0.0,1.772,10.059,1.629,0.0,1.582,10.066,-1.007,-11.73,-23.46,5.865
0.455,-0.144,9.867,-1.437,-0.0,1.437,10.059,1.341,0.0,1.438,10.354,-1.15,-11.73,-17.595,5.865
0.46,0.335,9.915,-1.629,-0.0,1.198,10.203,1.341,0.0,1.007,10.497,-1.15,-11.73,-23.46,5.865
0.465,0.862,10.011,-1.772,-0.0,0.766,10.346,1.581,0.0,0.719,10.641,-1.007,-11.73,-29.326,11.73
0.47000000000000003,1.054,10.059,-1.772,-0.0,0.479,10.346,1.533,5.865,0.144,10.641,-1.007,-11.73,-23.46,11.73
0.47500000000000003,1.198,10.011,-1.629,-0.0,0.192,10.299,1.533,5.865,0.0,10.497,-0.863,-5.865,-23.46,11.73
0.48,1.437,10.011,-1.629,11.73,-0.048,10.251,1.389,11.73,-0.144,10.497,-0.863,-5.865,-17.595,17.595
0.485,1.293,10.059,-1.629,17.595,-0.096,10.299,1.341,17.595,-0.144,10.497,-1.007,0.0,-17.595,23.46
0.49,1.293,10.011,-1.629,23.46,-0.048,10.299,1.389,29.326,0.0,10.497,-1.007,0.0,-11.73,29.326
0.495,1.293,9.915,-1.629,29.326,0.048,10.299,1.389,35.191,0.144,10.354,-1.007,0.0,-11.73,35.191
0.5,1.293,10.011,-1.581,29.326,0.192,10.155,1.341,35.191,0.431,10.21,-0.863,0.0,-11.73,35.191
0.505,1.198,10.011,-1.533,29.326,0.335,10.107,1.293,35.191,0.431,10.066,-0.863,0.0,-11.73,35.191
0.51,1.341,10.011,-1.533,29.326,0.479,10.011,1.293,35.191,0.288,10.066,-0.863,0.0,-11.73,35.191
0.515,1.198,9.963,-1.533,29.326,0.431,10.011,1.293,35.191,0.431,10.066,-0.863,0.0,-11.73,35.191
0.52,0.958,9.963,-1.581,23.46,0.527,10.107,1.341,29.326,0.431,10.21,-1.007,0.0,-5.865,29.326
0.525,1.102,9.963,-1.772,23.46,0.479,10.155,1.485,23.46,0.288,10.354,-1.15,-5.865,-5.865,23.46
0.53,1.293,9.915,-1.82,11.73,0.24,10.155,1.581,17.595,0.0,10.354,-1.15,0.0,0.0,17.595
0.535,1.533,10.011,-1.772,11.73,-0.096,10.203,1.533,11.73,0.144,10.497,-1.15,0.0,0.0,11.73
0.54,1.868,10.107,-1.677,5.865,-0.383,10.251,1.437,11.73,0.0,10.497,-1.15,0.0,0.0,11.73
0.545,1.82,10.107,-1.629,5.865,-0.287,10.251,1.437,11.73,-0.144,10.354,-1.007,5.865,-5.865,11.73
0.55,1.533,10.107,-1.581,5.865,-0.096,10.299,1.341,11.73,0.144,10.354,-0.863,5.865,-5.865,11.73
0.555,1.341,10.059,-1.533,5.865,0.144,10.299,1.293,11.73,0.575,10.497,-1.007,5.865,-5.865,5.865
0.56,1.198,10.059,-1.533,5.865,0.383,10.346,1.341,5.865,0.719,10.497,-0.863,5.865,-5.865,5.865
0.5650000000000001,1.054,10.107,-1.437,-0.0,0.527,10.442,1.245,5.865,0.863,10.641,-0.863,5.865,-5.865,5.865
0.5700000000000001,1.054,10.203,-1.389,-0.0,0.623,10.442,1.198,5.865,1.007,10.641,-0.863,5.865,-5.865,0.0
0.5750000000000001,1.102,10.251,-1.341,-5.865,0.623,10.442,1.102,0.0,1.15,10.641,-0.719,5.865,-11.73,-5.865
0.58,1.245,10.155,-1.198,-11.73,0.479,10.586,1.006,-5.865,0.863,10.785,-0.719,5.865,-17.595,-11.73
0.585,1.437,10.059,-1.245,-11.73,0.479,10.682,1.006,-11.73,0.431,10.785,-0.575,5.865,-17.595,-17.595
0.59,1.485,10.107,-1.341,-17.595,0.335,10.49,1.054,-17.595,0.0,10.497,-0.719,5.865,-17.595,-23.46
0.595,1.581,10.011,-1.389,-23.46,0.048,10.299,1.15,-23.46,-0.144,10.354,-0.863,5.865,-17.595,-29.326
0.6,1.724,9.915,-1.485,-23.46,-0.287,10.059,1.198,-29.326,-0.288,10.21,-0.863,5.865,-17.595,-35.191
0.605,1.677,10.011,-1.581,-29.326,-0.383,9.963,1.341,-35.191,-0.288,9.922,-1.007,17.595,-11.73,-41.056
0.61,1.629,9.676,-1.581,-29.326,-0.335,9.772,1.341,-35.191,-0.431,9.635,-1.007,17.595,-11.73,-41.056
0.615,1.629,9.484,-1.581,-29.326,-0.287,9.58,1.341,-35.191,-0.288,9.491,-0.863,17.595,-17.595,-41.056
0.62,1.629,9.341,-1.581,-35.191,-0.24,9.436,1.341,-35.191,-0.144,9.347,-0.863,23.46,-11.73,-41.056
0.625,1.677,9.149,-1.533,-35.191,-0.24,9.197,1.341,-41.056,0.0,9.203,-0.863,17.595,-11.73,-46.921
0.63,1.629,9.053,-1.485,-29.326,-0.287,9.053,1.245,-41.056,0.0,9.059,-0.863,17.595,-11.73,-46.921
0.635,1.485,8.909,-1.437,-35.191,-0.144,8.957,1.198,-35.191,0.144,8.916,-0.863,17.595,-17.595,-46.921
0.64,1.341,8.766,-1.677,-29.326,-0.048,8.718,1.437,-35.191,0.0,9.059,-1.15,17.595,-23.46,-46.921
0.645,1.293,8.67,-1.772,-35.191,0.192,8.909,1.581,-35.191,-0.431,9.203,-1.15,17.595,-23.46,-46.921
0.65,1.437,8.862,-1.772,-29.326,-0.192,9.101,1.533,-35.191,-0.719,9.491,-1.15,17.595,-17.595,-41.056
0.655,1.724,9.053,-1.724,-29.326,-0.431,9.245,1.485,-35.191,-0.719,9.491,-1.15,23.46,-17.595,-35.191
0.66,1.868,9.197,-1.677,-23.46,-0.527,9.293,1.437,-29.326,-0.719,9.491,-1.007,23.46,-11.73,-29.326
0.665,1.916,9.341,-1.629,-23.46,-0.575,9.388,1.389,-23.46,-0.719,9.491,-1.007,23.46,-11.73,-23.46
0.67,1.964,9.341,-1.677,-17.595,-0.623,9.436,1.437,-17.595,-0.719,9.491,-1.007,23.46,-11.73,-23.46
0.675,1.916,9.341,-1.677,-17.595,-0.623,9.436,1.437,-17.595,-0.863,9.635,-1.007,23.46,-11.73,-23.46
0.68,2.012,9.388,-1.677,-17.595,-0.719,9.436,1.437,-17.595,-0.863,9.491,-1.007,23.46,-5.865,-23.46
0.685,2.06,9.436,-1.629,-17.595,-0.766,9.436,1.389,-17.595,-0.863,9.491,-0.863,23.46,-5.865,-23.46
0.6900000000000001,2.06,9.436,-1.581,-17.595,-0.671,9.436,1.341,-17.595,-0.863,9.491,-1.007,23.46,0.0,-23.46
0.6950000000000001,1.916,9.532,-1.533,-23.46,-0.431,9.676,1.341,-23.46,-0.863,9.491,-0.863,23.46,0.0,-23.46
0.7000000000000001,1.724,9.676,-1.581,-23.46,-0.335,9.772,1.341,-23.46,-0.288,9.922,-0.863,23.46,-5.865,-23.46
0.705,1.677,9.82,-1.533,-29.326,-0.192,9.963,1.293,-29.326,0.0,10.066,-0.863,23.46,-5.865,-17.595
0.71,1.772,9.724,-1.437,-29.326,-0.24,9.867,1.245,-29.326,0.144,10.21,-0.863,23.46,-5.865,-23.46
0.715,1.629,9.772,-1.389,-29.326,-0.096,10.059,1.15,-23.46,0.144,10.497,-0.719,23.46,-5.865,-23.46
0.72,1.245,9.963,-1.389,-23.46,0.144,10.299,1.15,-29.326,0.144,10.641,-0.719,23.46,-11.73,-17.595
0.725,0.862,10.011,-1.389,-23.46,0.383,10.346,1.15,-23.46,0.431,10.785,-0.575,29.326,-11.73,-17.595
0.73,0.862,10.107,-1.245,-23.46,0.671,10.586,1.006,-23.46,0.719,10.354,-0.719,35.191,-11.73,-17.595
0.735,0.719,9.963,-1.198,-17.595,0.862,10.251,0.958,-17.595,1.15,10.354,-0.575,41.056,-5.865,-11.73
0.74,0.479,9.867,-1.15,-17.595,1.006,10.346,0.91,-17.595,1.007,10.21,-0.431,41.056,-5.865,-11.73
0.745,0.287,9.82,-1.054,-11.73,1.293,10.155,0.814,-11.73,1.438,10.066,-0.575,41.056,-11.73,-5.865
0.75,0.335,9.628,-1.054,-11.73,1.198,10.059,0.862,-11.73,1.294,9.778,-0.575,46.921,-5.865,0.0
0.755,0.335,9.628,-1.006,-11.73,1.293,9.772,0.862,-11.73,0.719,9.491,-0.575,46.921,-5.865,5.865
0.76,0.623,9.436,-1.054,-5.865,0.91,9.484,0.814,-5.865,1.007,9.491,-0.144,46.921,-5.865,11.73
0.765,0.862,9.436,-0.862,-5.865,0.671,9.58,0.623,0.0,0.863,9.778,-0.288,52.786,-5.865,17.595
0.77,0.958,9.628,-1.198,-0.0,0.479,9.053,0.958,5.865,0.431,9.778,-0.719,46.921,-5.865,23.46
0.775,1.245,9.436,-1.293,5.865,0.287,9.149,1.006,11.73,0.144,9.635,-0.575,52.786,-5.865,29.326
0.78,1.533,9.101,-1.102,5.865,-0.096,9.532,0.91,17.595,-0.144,9.635,-0.431,52.786,-5.865,41.056
0.785,1.677,9.149,-1.293,11.73,-0.383,9.532,0.958,23.46,-0.144,9.778,-0.719,46.921,-5.865,46.921
0.79,1.916,9.197,-1.485,23.46,-0.671,9.436,1.245,29.326,-0.431,9.635,-0.863,41.056,-5.865,46.921
0.795,2.156,9.101,-1.533,29.326,-0.719,9.149,1.293,35.191,-0.575,9.491,-0.863,41.056,-5.865,52.786
0.8,2.443,9.053,-1.581,29.326,-1.15,8.957,1.293,35.191,-0.863,9.347,-1.007,35.191,-5.865,52.786
0.805,2.635,9.101,-1.724,29.326,-1.437,8.957,1.485,35.191,-1.15,9.059,-1.15,29.326,-5.865,46.921
0.81,2.778,8.957,-1.868,29.326,-1.677,8.862,1.629,35.191,-1.294,8.916,-1.294,29.326,-5.865,41.056
0.8150000000000001,2.635,8.814,-2.012,23.46,-1.533,8.766,1.772,35.191,-0.719,9.059,-1.438,29.326,-5.865,35.191
0.8200000000000001,2.012,8.862,-2.108,23.46,-0.862,8.909,1.868,23.46,-0.575,9.203,-1.438,23.46,-5.865,23.46
0.8250000000000001,1.772,8.862,-2.012,11.73,-0.383,9.053,1.82,17.595,-0.288,9.203,-1.294,23.46,-5.865,11.73
0.8300000000000001,1.868,9.053,-1.485,5.865,-0.431,9.149,1.341,5.865,-0.288,9.347,-0.719,29.326,0.0,0.0
0.835,1.82,9.245,-1.054,-5.865,-0.383,9.293,0.862,0.0,-0.144,9.491,-0.431,29.326,0.0,-5.865
0.84,1.629,9.341,-0.958,-5.865,-0.192,9.484,0.719,-5.865,0.288,9.778,-0.288,29.326,0.0,-11.73
0.845,1.198,9.436,-0.862,-11.73,0.24,9.676,0.671,-11.73,0.719,10.066,-0.288,29.326,0.0,-11.73
0.85,0.91,9.532,-0.719,-11.73,0.575,9.82,0.527,-11.73,1.007,10.066,-0.0,29.326,0.0,-17.595
0.855,0.958,9.628,-0.431,-17.595,0.671,9.867,0.287,-17.595,1.007,10.21,0.288,35.191,0.0,-17.595
0.86,0.958,9.772,-0.287,-11.73,0.623,9.915,0.096,-17.595,0.863,10.21,0.288,35.191,0.0,-17.595
0.865,1.006,9.772,-0.383,-11.73,0.527,9.963,0.144,-11.73,0.719,10.21,0.144,35.191,0.0,-11.73
0.87,0.958,9.724,-0.575,-5.865,0.527,9.963,0.335,-5.865,0.719,10.21,-0.0,35.191,0.0,-11.73
0.875,1.054,9.772,-0.719,-5.865,0.479,9.963,0.479,-5.865,0.719,10.21,-0.144,41.056,5.865,-5.865
0.88,1.102,9.724,-0.766,-5.865,0.431,9.915,0.527,0.0,0.719,10.066,-0.144,41.056,5.865,0.0
0.885,1.198,9.724,-0.671,-0.0,0.287,9.82,0.479,0.0,0.431,9.922,-0.0,41.056,0.0,0.0
0.89,1.245,9.628,-0.623,-0.0,0.192,9.772,0.383,0.0,0.431,9.778,-0.0,41.056,5.865,0.0
0.895,1.198,9.58,-0.623,-0.0,0.192,9.724,0.383,0.0,0.431,9.778,-0.0,41.056,5.865,0.0
0.9,1.15,9.532,-0.671,-0.0,0.192,9.628,0.383,0.0,0.144,9.778,-0.0,41.056,5.865,0.0
0.905,1.198,9.484,-0.671,-0.0,0.144,9.58,0.431,0.0,0.288,9.635,-0.0,41.056,5.865,0.0
0.91,1.341,9.484,-0.527,-0.0,0.144,9.532,0.335,0.0,0.431,9.491,0.144,41.056,11.73,0.0
0.915,1.437,9.484,-0.287,-5.865,0.048,9.484,0.096,0.0,0.144,9.347,0.288,41.056,11.73,-5.865
0.92,1.581,9.293,-0.287,-5.865,-0.144,9.293,0.048,-5.865,0.144,9.059,0.288,35.191,11.73,-5.865
0.925,1.629,9.197,-0.287,-5.865,-0.144,9.149,0.096,-5.865,0.0,8.916,0.288,35.191,11.73,-11.73
0.93,1.341,9.101,-0.192,-11.73,0.335,9.005,0.0,-5.865,0.288,8.916,0.431,29.326,11.73,-17.595
0.935,1.389,9.149,-0.144,-11.73,0.0,9.053,-0.096,-11.73,0.431,8.916,0.431,29.326,11.73,-23.46
0.9400000000000001,1.581,9.149,0.0,-17.595,-0.048,9.149,-0.192,-17.595,0.431,9.203,0.575,29.326,11.73,-23.46
0.9450000000000001,1.341,9.149,0.048,-17.595,0.192,9.197,-0.287,-17.595,0.431,9.347,0.575,23.46,5.865,-23.46
0.9500000000000001,1.293,9.197,0.0,-17.595,0.335,9.245,-0.24,-17.595,0.719,9.347,0.575,23.46,5.865,-29.326
0.9550000000000001,1.293,9.149,-0.048,-23.46,0.335,9.245,-0.144,-17.595,0.575,9.347,0.575,23.46,5.865,-35.191
0.96,1.293,9.149,0.0,-17.595,0.383,9.245,-0.192,-17.595,0.719,9.203,0.575,23.46,0.0,-35.191
0.965,1.581,9.149,-0.144,-17.595,-0.096,9.245,-0.096,-17.595,0.144,9.491,0.431,23.46,0.0,-29.326
0.97,1.437,9.245,-0.287,-17.595,0.096,9.341,0.048,-17.595,-0.144,9.635,0.288,23.46,0.0,-23.46
0.975,1.629,9.436,-0.431,-17.595,-0.144,9.532,0.144,-17.595,-0.431,9.922,0.144,23.46,0.0,-23.46
0.98,1.868,9.532,-0.527,-11.73,-0.527,9.724,0.24,-11.73,-0.431,10.066,-0.0,23.46,0.0,-23.46
0.985,1.82,9.628,-0.623,-11.73,-0.527,9.772,0.383,-11.73,-0.575,10.066,-0.0,23.46,5.865,-23.46
0.99,1.629,9.676,-0.527,-11.73,-0.24,9.82,0.335,-11.73,-0.144,10.066,0.144,29.326,5.865,-23.46
0.995,1.629,9.724,-0.479,-11.73,-0.144,9.867,0.24,-11.73,0.144,10.066,0.144,29.326,5.865,-23.46
1.0,1.581,9.82,-0.335,-11.73,-0.096,9.915,0.144,-11.73,0.144,9.922,0.288,29.326,5.865,-29.326
1.0050000000000001,1.677,9.82,-0.192,-17.595,-0.192,9.867,0.0,-11.73,-0.144,10.066,0.431,29.326,5.865,-29.326
1.01,1.485,9.772,-0.192,-17.595,0.0,9.867,-0.048,-17.595,0.144,9.922,0.288,29.326,5.865,-35.191
1.0150000000000001,1.724,9.82,-0.287,-17.595,-0.24,9.867,0.096,-17.595,0.0,9.922,0.288,29.326,5.865,-35.191
1.02,1.581,9.772,-0.24,-17.595,0.0,9.82,0.048,-17.595,0.0,9.778,0.288,29.326,5.865,-29.326
1.025,1.724,9.676,-0.335,-23.46,-0.144,9.724,0.096,-17.595,0.0,9.635,0.288,29.326,5.865,-35.191
1.03,1.724,9.532,-0.383,-23.46,-0.24,9.58,0.144,-17.595,0.0,9.491,0.144,23.46,5.865,-35.191
1.035,1.724,9.484,-0.431,-23.46,-0.192,9.532,0.192,-23.46,0.0,9.635,0.144,23.46,5.865,-35.191
1.04,1.677,9.484,-0.431,-23.46,-0.096,9.532,0.192,-23.46,-0.144,9.635,0.144,23.46,5.865,-35.191
1.045,1.772,9.436,-0.335,-23.46,-0.287,9.484,0.144,-23.46,-0.288,9.635,0.288,23.46,5.865,-29.326
1.05,1.772,9.341,-0.287,-23.46,-0.383,9.436,0.048,-17.595,-0.288,9.491,0.431,23.46,5.865,-29.326
1.055,1.629,9.293,-0.144,-23.46,-0.335,9.436,-0.048,-17.595,-0.144,9.491,0.431,23.46,5.865,-23.46
1.06,1.198,9.149,-0.048,-17.595,-0.575,9.58,-0.144,-17.595,-0.144,9.491,0.575,17.595,5.865,-23.46
1.065,2.012,9.532,-0.144,-11.73,0.096,9.245,-0.096,-23.46,-0.144,9.491,0.431,17.595,0.0,-23.46
1.07,1.82,9.341,-0.096,-11.73,0.144,9.245,-0.096,-23.46,0.0,9.347,0.575,17.595,5.865,-23.46
1.075,1.677,9.245,-0.096,-11.73,-0.192,9.245,-0.144,-17.595,0.0,9.347,0.575,17.595,5.865,-23.46
1.08,1.677,9.245,-0.048,-11.73,-0.144,9.293,-0.192,-11.73,-0.144,9.635,0.575,5.865,5.865,-17.595
1.085,1.629,9.341,-0.048,-11.73,-0.192,9.436,-0.192,-11.73,-0.144,9.778,0.575,5.865,0.0,-17.595
1.09,1.629,9.436,-0.096,-5.865,-0.192,9.58,-0.144,-5.865,-0.288,9.922,0.575,17.595,0.0,-17.595
1.095,1.724,9.532,-0.096,-5.865,-0.287,9.724,-0.144,-5.865,-0.431,9.922,0.575,17.595,0.0,-17.595
1.1,1.724,9.58,-0.096,-5.865,-0.24,9.724,-0.144,-5.865,-0.144,9.778,0.431,17.595,5.865,-11.73
1.105,1.868,9.676,-0.192,-5.865,-0.431,9.676,-0.048,-5.865,-0.144,9.635,0.431,17.595,5.865,-11.73
1.11,1.772,9.676,-0.144,-5.865,-0.24,9.628,-0.048,-5.865,-0.288,9.635,0.431,17.595,5.865,-11.73
1.115,1.772,9.58,-0.24,-5.865,-0.287,9.58,0.0,-5.865,-0.431,9.491,0.288,17.595,5.865,-11.73
1.12,1.82,9.628,-0.287,-5.865,-0.431,9.58,0.0,-5.865,-0.431,9.491,0.288,5.865,5.865,-11.73
1.125,1.82,9.628,-0.24,-11.73,-0.431,9.58,0.048,-5.865,-0.431,9.635,0.431,5.865,5.865,-11.73
1.1300000000000001,1.82,9.628,-0.287,-11.73,-0.479,9.628,0.048,-11.73,-0.575,9.778,0.431,5.865,5.865,-11.73
1.135,1.82,9.676,-0.192,-11.73,-0.431,9.724,0.0,-11.73,-0.575,9.922,0.431,5.865,5.865,-11.73
1.1400000000000001,1.772,9.676,-0.144,-11.73,-0.383,9.772,-0.048,-11.73,-0.431,9.922,0.431,5.865,5.865,-11.73
1.145,1.724,9.676,-0.096,-11.73,-0.335,9.82,-0.144,-11.73,-0.431,9.922,0.575,5.865,5.865,-11.73
1.1500000000000001,1.724,9.628,-0.048,-11.73,-0.287,9.772,-0.192,-11.73,-0.288,9.922,0.575,5.865,5.865,-11.73
1.155,1.677,9.58,-0.048,-11.73,-0.24,9.724,-0.144,-11.73,-0.288,9.778,0.575,5.865,5.865,-11.73
1.16,1.677,9.532,-0.096,-11.73,-0.192,9.628,-0.144,-11.73,-0.288,9.778,0.575,5.865,5.865,-11.73
1.165,1.724,9.532,-0.096,-11.73,-0.24,9.628,-0.144,-11.73,-0.288,9.778,0.575,5.865,5.865,-11.73
1.17,1.868,9.484,-0.096,-11.73,-0.431,9.58,-0.144,-11.73,-0.431,9.491,0.575,5.865,5.865,-11.73
1.175,1.724,9.532,0.0,-11.73,-0.287,9.532,-0.192,-5.865,-0.431,9.491,0.575,5.865,5.865,-11.73
1.18,1.772,9.436,0.0,-5.865,-0.287,9.436,-0.24,-5.865,-0.288,9.491,0.575,5.865,5.865,-11.73
1.185,1.772,9.388,-0.048,-5.865,-0.383,9.436,-0.192,-5.865,-0.288,9.347,0.575,5.865,5.865,-11.73
1.19,1.677,9.341,0.048,-5.865,-0.24,9.388,-0.24,-5.865,-0.288,9.347,0.575,5.865,5.865,-5.865
1.195,1.724,9.245,-0.048,-5.865,-0.192,9.293,-0.192,-5.865,-0.288,9.347,0.575,5.865,5.865,-5.865
1.2,1.772,9.245,0.0,-5.865,-0.24,9.293,-0.192,-5.865,-0.431,9.491,0.575,5.865,5.865,-5.865
1.205,1.82,9.293,0.048,-5.865,-0.383,9.388,-0.24,-5.865,-0.575,9.491,0.719,5.865,5.865,-5.865
1.21,1.82,9.293,0.048,-5.865,-0.431,9.388,-0.24,0.0,-0.431,9.635,0.575,5.865,5.865,0.0
1.215,1.82,9.293,0.096,-5.865,-0.383,9.388,-0.335,0.0,-0.431,9.491,0.863,5.865,5.865,0.0
1.22,1.868,9.245,0.096,-5.865,-0.431,9.341,-0.383,0.0,-0.575,9.491,0.719,5.865,5.865,0.0
1.225,1.964,9.293,0.096,-0.0,-0.527,9.388,-0.335,0.0,-0.575,9.635,0.719,5.865,5.865,-5.865
1.23,1.916,9.341,0.144,-5.865,-0.527,9.436,-0.383,0.0,-0.575,9.635,0.863,5.865,5.865,0.0
1.235,1.916,9.388,0.192,-5.865,-0.479,9.484,-0.383,0.0,-0.575,9.635,0.863,5.865,5.865,-5.865
1.24,1.868,9.341,0.144,-5.865,-0.431,9.436,-0.383,-5.865,-0.431,9.635,0.863,5.865,5.865,-5.865
1.245,1.82,9.388,0.144,-5.865,-0.335,9.532,-0.431,-5.865,-0.431,9.778,0.863,5.865,5.865,-5.865
1.25,1.868,9.388,0.24,-5.865,-0.431,9.628,-0.431,-5.865,-0.288,9.778,0.863,5.865,5.865,-5.865
1.2550000000000001,1.677,9.58,0.431,-5.865,-0.24,9.676,-0.623,-5.865,-0.431,9.922,1.15,5.865,5.865,-5.865
1.26,1.82,9.436,0.431,-5.865,-0.383,9.628,-0.671,-5.865,-0.575,10.066,1.007,5.865,5.865,-5.865
1.2650000000000001,1.82,9.484,0.431,-5.865,-0.479,9.82,-0.671,0.0,-0.719,10.354,1.15,5.865,5.865,-5.865
1.27,1.868,9.676,0.479,-0.0,-0.479,9.963,-0.719,0.0,-0.575,10.497,1.15,17.595,11.73,0.0
1.2750000000000001,1.82,9.724,0.479,-0.0,-0.431,10.059,-0.719,0.0,-0.431,10.497,1.15,23.46,11.73,0.0
1.28,1.772,9.724,0.575,-0.0,-0.383,10.059,-0.766,0.0,-0.431,10.354,1.294,29.326,11.73,0.0
1.285,1.724,9.772,0.671,-0.0,-0.287,9.963,-0.91,5.865,-0.431,10.21,1.294,29.326,11.73,0.0
1.29,1.772,9.82,0.766,5.865,-0.335,9.963,-1.006,5.865,-0.431,10.066,1.438,35.191,11.73,5.865
1.295,1.868,9.82,0.766,5.865,-0.431,9.867,-1.006,5.865,-0.575,9.922,1.438,35.191,11.73,5.865
1.3,1.964,9.915,0.671,5.865,-0.479,9.915,-0.91,11.73,-0.719,9.922,1.294,35.191,11.73,5.865
1.305,2.06,10.011,0.527,5.865,-0.575,9.963,-0.814,11.73,-0.719,9.922,1.15,35.191,17.595,5.865
1.31,2.108,9.963,0.623,5.865,-0.671,9.915,-0.814,11.73,-0.575,9.635,1.294,35.191,17.595,5.865
1.315,2.06,9.867,0.862,5.865,-0.479,9.58,-1.006,11.73,-0.575,9.491,1.582,29.326,17.595,5.865
1.32,2.06,9.867,1.102,5.865,-0.527,9.628,-1.341,5.865,-0.288,9.203,1.869,23.46,11.73,5.865
1.325,1.82,9.867,1.533,-0.0,-0.24,9.436,-1.581,5.865,-0.144,8.772,2.157,17.595,11.73,0.0
1.33,0.24,9.197,1.868,-5.865,1.054,8.814,-1.964,0.0,1.294,7.334,3.164,5.865,5.865,-11.73
1.335,2.06,9.82,2.06,-23.46,0.527,9.388,-2.443,-23.46,-0.431,8.916,2.157,0.0,5.865,-41.056
1.34,3.257,9.58,0.862,-46.921,-1.533,9.245,-1.245,-46.921,-1.438,9.059,1.294,-5.865,0.0,-52.786
1.345,2.06,9.293,0.527,-46.921,-0.958,9.005,-0.814,-46.921,-0.719,8.34,1.15,-17.595,-5.865,-52.786
1.35,1.629,8.766,0.479,-41.056,-0.287,8.574,-0.671,-41.056,-0.144,8.197,1.007,-23.46,0.0,-46.921
1.355,1.964,8.478,0.575,-41.056,-0.335,8.383,-0.719,-41.056,-0.288,8.34,1.15,-29.326,0.0,-41.056
1.36,2.06,8.526,0.671,-41.056,-0.527,8.526,-0.862,-41.056,-0.575,8.628,1.294,-29.326,0.0,-46.921
1.365,2.06,8.622,0.527,-41.056,-0.671,8.67,-0.814,-46.921,-0.719,8.916,1.15,-29.326,-5.865,-46.921
1.37,1.916,8.718,0.192,-46.921,-0.431,8.814,-0.527,-46.921,-0.719,9.059,0.719,-29.326,-5.865,-46.921
1.375,2.203,8.718,0.0,-41.056,-0.766,8.862,-0.24,-41.056,-1.007,9.203,0.575,-29.326,-5.865,-41.056
1.3800000000000001,2.251,8.862,-0.096,-41.056,-0.814,8.957,-0.096,-41.056,-1.007,9.203,0.431,-29.326,-5.865,-41.056
1.385,2.251,8.862,-0.096,-35.191,-0.91,8.957,-0.096,-35.191,-1.15,9.203,0.431,-29.326,-5.865,-35.191
1.3900000000000001,2.299,8.814,-0.335,-29.326,-0.958,9.005,0.048,-29.326,-1.15,9.203,0.144,-29.326,-5.865,-29.326
1.395,2.203,8.526,-0.623,-23.46,-0.91,8.718,0.335,-23.46,-1.15,8.916,-0.0,-29.326,-5.865,-23.46
1.4000000000000001,2.491,8.67,-0.766,-17.595,-1.102,8.67,0.527,-17.595,-1.438,8.916,-0.144,-23.46,0.0,-23.46
1.405,2.587,8.957,-0.862,-17.595,-1.245,8.909,0.623,-17.595,-1.438,8.916,-0.288,-23.46,0.0,-17.595
1.41,2.635,9.149,-1.006,-17.595,-1.245,9.053,0.719,-17.595,-1.294,9.203,-0.431,-29.326,0.0,-23.46
1.415,2.587,9.388,-0.91,-23.46,-1.198,9.341,0.623,-17.595,-1.294,9.491,-0.288,-29.326,0.0,-23.46
1.42,2.682,9.532,-1.054,-23.46,-1.293,9.532,0.766,-17.595,-1.438,9.635,-0.575,-29.326,0.0,-23.46
1.425,2.635,9.628,-1.15,-23.46,-1.293,9.676,0.862,-17.595,-1.582,9.922,-0.575,-29.326,0.0,-23.46
1.43,2.682,9.628,-1.198,-17.595,-1.341,9.724,0.91,-17.595,-1.582,9.778,-0.575,-35.191,0.0,-17.595
1.435,2.73,9.532,-1.293,-17.595,-1.389,9.628,1.006,-17.595,-1.726,9.922,-0.719,-29.326,5.865,-17.595
1.44,2.826,9.58,-1.437,-17.595,-1.485,9.676,1.15,-17.595,-1.869,9.778,-0.863,-29.326,5.865,-17.595
1.445,2.826,9.388,-1.485,-23.46,-1.533,9.58,1.245,-17.595,-1.726,9.635,-0.863,-29.326,5.865,-23.46
1.45,2.778,9.053,-1.437,-23.46,-1.533,9.197,1.198,-17.595,-1.726,9.347,-0.863,-29.326,11.73,-23.46
1.455,2.97,9.053,-1.389,-23.46,-1.677,9.197,1.198,-23.46,-1.869,9.635,-0.863,-29.326,11.73,-23.46
1.46,2.491,9.341,-1.533,-23.46,-1.245,9.532,1.198,-23.46,-1.582,9.922,-0.863,-23.46,17.595,-23.46
1.465,2.778,9.197,-1.054,-17.595,-1.485,9.436,0.91,-17.595,-1.869,9.922,-0.431,-23.46,17.595,-17.595
1.47,2.874,9.341,-0.958,-17.595,-1.533,9.628,0.671,-17.595,-1.726,10.21,-0.431,-17.595,23.46,-17.595
1.475,3.161,9.867,-1.293,-11.73,-1.724,10.011,1.006,-11.73,-1.869,10.354,-0.863,-17.595,23.46,-11.73
1.48,3.161,10.442,-1.916,-17.595,-1.916,10.49,1.724,-11.73,-2.013,10.497,-0.863,-11.73,23.46,-17.595
1.485,2.826,10.011,-0.958,-17.595,-1.677,10.251,0.814,-17.595,-2.301,11.073,-0.144,-11.73,23.46,-17.595
1.49,2.97,9.915,-0.479,-17.595,-1.82,10.49,0.287,-17.595,-1.726,10.929,0.288,-11.73,29.326,-17.595
1.495,2.587,9.724,-0.24,-17.595,-1.198,10.155,0.048,-17.595,-1.294,10.21,0.288,-5.865,29.326,-17.595
1.5,2.922,10.586,-0.814,-17.595,-1.102,10.49,0.814,-17.595,-0.719,10.354,-0.288,0.0,29.326,-17.595
1.5050000000000001,2.682,10.442,-0.575,-11.73,-1.198,10.299,0.383,-11.73,-1.007,10.354,0.288,-5.865,29.326,-11.73
1.51,1.964,10.969,-0.479,-5.865,-0.383,10.778,0.096,-5.865,-0.431,10.641,-0.0,-5.865,29.326,0.0
1.5150000000000001,2.874,10.394,-0.431,11.73,-1.006,10.394,0.192,11.73,-1.007,10.354,0.144,-11.73,23.46,17.595
1.52,3.066,10.299,0.0,23.46,-1.437,10.299,-0.144,23.46,-1.582,10.354,0.719,-17.595,23.46,23.46
1.5250000000000001,3.305,10.346,0.144,17.595,-1.82,10.394,-0.431,23.46,-1.869,10.641,0.863,-17.595,17.595,11.73
1.53,3.114,10.346,0.048,5.865,-1.772,10.49,-0.287,11.73,-1.726,10.785,0.575,-11.73,17.595,5.865
1.5350000000000001,2.874,10.394,-0.048,-5.865,-1.533,10.538,-0.192,0.0,-1.438,10.641,0.575,-11.73,17.595,-5.865
1.54,2.826,10.49,0.0,-11.73,-1.341,10.442,-0.24,-5.865,-1.294,10.354,0.575,-11.73,17.595,-11.73
1.545,2.682,10.251,0.096,-11.73,-1.15,10.203,-0.335,-5.865,-1.007,10.066,0.863,-11.73,17.595,-11.73
1.55,2.635,10.059,0.431,-11.73,-1.102,10.011,-0.623,-5.865,-1.007,10.066,1.15,-11.73,17.595,-5.865
1.555,2.539,9.82,0.814,-5.865,-1.054,9.915,-1.006,-5.865,-1.15,10.21,1.582,-17.595,11.73,-5.865
1.56,2.539,9.58,1.245,-5.865,-1.102,9.867,-1.437,0.0,-1.15,10.21,2.013,-17.595,11.73,0.0
1.565,2.539,9.436,1.629,-0.0,-1.054,9.772,-1.772,0.0,-1.007,10.21,2.301,-11.73,11.73,0.0
1.57,2.539,9.293,1.916,-0.0,-1.006,9.628,-2.06,0.0,-1.007,10.066,2.588,-5.865,11.73,-5.865
1.575,2.443,9.149,2.156,-5.865,-0.91,9.484,-2.347,0.0,-0.719,9.922,2.876,0.0,11.73,-5.865
1.58,2.299,9.053,2.299,-5.865,-0.766,9.341,-2.539,-5.865,-0.575,9.778,3.02,0.0,5.865,-5.865
1.585,2.251,9.005,2.491,-5.865,-0.623,9.293,-2.73,-5.865,-0.575,9.635,3.164,5.865,5.865,-5.865
1.59,2.156,9.101,2.778,-5.865,-0.575,9.245,-2.97,0.0,-0.431,9.491,3.451,5.865,0.0,0.0
1.595,2.108,9.101,3.066,-0.0,-0.431,9.245,-3.257,0.0,-0.288,9.491,3.883,5.865,0.0,0.0
1.6,2.06,9.149,3.449,-0.0,-0.383,9.245,-3.64,0.0,-0.288,9.491,4.314,5.865,-5.865,0.0
1.605,2.06,9.293,3.928,-0.0,-0.383,9.341,-4.119,5.865,-0.144,9.635,4.745,17.595,-5.865,0.0
1.61,2.012,9.388,4.359,-0.0,-0.24,9.388,-4.551,5.865,0.144,9.635,5.177,17.595,-11.73,0.0
1.615,1.868,9.436,4.79,-0.0,-0.048,9.436,-4.982,5.865,0.431,9.635,5.464,17.595,-17.595,0.0
1.62,1.772,9.532,5.125,-0.0,0.144,9.484,-5.317,0.0,0.719,9.491,5.896,17.595,-23.46,0.0
1.625,1.677,9.532,5.365,-5.865,0.335,9.388,-5.604,0.0,1.007,9.203,6.04,5.865,-29.326,-5.865
1.6300000000000001,1.629,9.532,5.556,-5.865,0.479,9.341,-5.796,-5.865,1.15,9.059,6.183,5.865,-41.056,-5.865
1.635,1.485,9.484,5.652,-5.865,0.527,9.245,-5.892,-5.865,1.007,8.916,6.183,5.865,-46.921,-5.865
1.6400000000000001,1.533,9.293,5.652,-5.865,0.479,9.101,-5.892,-5.865,1.007,8.916,6.183,5.865,-58.651,-5.865
1.645,1.485,9.341,5.604,-5.865,0.431,9.005,-5.844,-5.865,0.863,8.916,6.183,0.0,-70.381,-5.865
1.6500000000000001,1.772,9.388,5.461,-5.865,0.383,9.149,-5.7,-5.865,1.15,9.059,5.896,-5.865,-76.246,-11.73
1.655,1.389,9.388,5.269,-11.73,0.479,9.149,-5.509,-11.73,0.719,8.916,5.752,-5.865,-82.111,-11.73
1.6600000000000001,1.629,9.484,4.982,-11.73,0.335,9.197,-5.269,-11.73,0.719,8.916,5.321,-11.73,-93.842,-11.73
1.665,1.581,9.436,4.551,-11.73,0.383,9.197,-4.79,-11.73,0.863,8.916,4.889,-17.595,-99.707,-11.73
1.67,1.437,9.388,4.072,-11.73,0.479,9.245,-4.311,-11.73,1.007,9.203,4.314,-17.595,-105.572,-11.73
1.675,1.533,9.245,3.353,-11.73,0.431,9.245,-3.688,-11.73,0.863,9.347,3.595,-23.46,-117.302,-11.73
1.68,1.485,9.293,2.587,-11.73,0.287,9.293,-2.874,-11.73,0.575,9.491,2.732,-23.46,-123.167,-11.73
1.685,1.629,9.293,1.485,-11.73,0.096,9.436,-1.82,-11.73,0.288,9.778,1.582,-23.46,-129.032,-11.73
1.69,1.533,9.388,0.24,-11.73,0.048,9.532,-0.575,-11.73,0.0,9.778,0.144,-23.46,-129.032,-11.73
1.695,1.724,9.532,-1.15,-11.73,-0.096,9.628,0.766,-11.73,-0.288,9.635,-1.294,-23.46,-134.897,-11.73
1.7,2.108,9.724,-2.682,-5.865,-0.575,9.676,2.251,-11.73,-0.863,9.635,-2.876,-23.46,-134.897,-5.865
1.705,2.443,9.867,-4.455,-5.865,-1.006,9.772,3.976,-5.865,-1.438,9.778,-4.745,-29.326,-134.897,-5.865
1.71,2.635,10.155,-6.562,-0.0,-1.437,10.011,6.035,0.0,-2.157,10.066,-6.902,-29.326,-134.897,0.0
1.715,3.018,10.586,-8.766,-0.0,-2.012,10.442,8.239,0.0,-3.02,10.354,-8.916,-35.191,-129.032,0.0
1.72,3.401,11.065,-10.778,5.865,-2.682,10.873,10.251,0.0,-4.17,10.929,-10.785,-41.056,-123.167,5.865
1.725,3.736,11.4,-12.454,5.865,-3.305,11.304,11.975,5.865,-5.033,11.216,-12.223,-41.056,-111.437,5.865
1.73,4.072,11.304,-13.747,5.865,-3.832,11.4,13.268,5.865,-5.608,11.36,-13.373,-46.921,-93.842,5.865
1.735,4.215,10.969,-14.562,-0.0,-4.167,11.257,14.178,5.865,-5.896,11.504,-13.949,-46.921,-76.246,0.0
1.74,4.263,10.442,-14.993,-0.0,-4.311,11.017,14.657,0.0,-6.183,11.504,-14.092,-46.921,-52.786,0.0
1.745,4.072,9.867,-14.993,-5.865,-4.263,10.682,14.705,-5.865,-5.896,11.36,-14.092,-41.056,-29.326,-5.865
1.75,3.784,9.293,-14.801,-5.865,-3.928,10.299,14.514,-5.865,-5.321,11.216,-13.805,-29.326,-5.865,-5.865
1.7550000000000001,3.497,9.005,-14.322,-5.865,-3.497,9.963,14.131,-5.865,-4.889,10.785,-13.373,-17.595,17.595,-5.865
1.76,3.305,8.862,-13.795,-5.865,-3.161,9.724,13.604,0.0,-4.458,10.354,-12.798,-5.865,41.056,0.0
1.7650000000000001,3.209,8.814,-13.316,5.865,-3.066,9.532,13.125,5.865,-4.602,10.21,-12.367,0.0,58.651,5.865
1.77,3.209,8.862,-12.741,11.73,-3.066,9.388,12.598,11.73,-4.458,9.778,-11.648,5.865,76.246,11.73
1.7750000000000001,3.497,9.053,-11.736,17.595,-3.114,9.245,11.688,23.46,-4.17,9.203,-10.641,5.865,93.842,23.46
1.78,3.449,9.101,-10.586,23.46,-2.922,9.005,10.538,29.326,-3.451,8.484,-9.635,17.595,111.437,23.46
1.7850000000000001,3.209,8.862,-9.293,23.46,-2.443,8.67,9.341,29.326,-2.876,8.053,-8.34,5.865,123.167,23.46
1.79,2.97,8.526,-7.904,17.595,-2.012,8.335,7.999,23.46,-2.301,7.909,-7.046,5.865,129.032,17.595
1.795,2.587,8.191,-6.467,17.595,-1.533,8.095,6.61,17.595,-1.582,7.909,-5.608,0.0,134.897,11.73
1.8,2.203,7.904,-5.03,11.73,-1.054,7.951,5.173,17.595,-1.15,8.053,-4.17,-5.865,140.762,17.595
1.805,2.012,7.664,-3.593,11.73,-0.719,7.856,3.688,17.595,-0.719,8.053,-2.732,-5.865,140.762,17.595
1.81,1.916,7.472,-2.06,17.595,-0.479,7.712,2.203,23.46,-0.144,8.053,-1.294,-5.865,146.628,23.46
1.815,1.677,7.377,-0.623,23.46,-0.048,7.568,0.766,23.46,0.719,7.621,0.288,0.0,140.762,23.46
1.82,1.341,7.041,1.15,23.46,0.335,7.329,-1.006,29.326,0.719,7.765,1.869,0.0,140.762,29.326
1.825,1.15,6.85,2.395,29.326,0.671,7.281,-2.251,35.191,1.007,7.909,3.164,0.0,134.897,35.191
1.83,1.341,7.137,3.688,35.191,0.527,7.377,-3.593,35.191,1.007,7.909,4.602,5.865,129.032,35.191
1.835,1.15,7.52,4.886,35.191,0.766,7.616,-4.886,35.191,1.438,8.053,5.752,5.865,123.167,35.191
1.84,0.958,7.999,5.892,29.326,1.054,7.999,-5.892,35.191,1.726,8.484,6.615,5.865,111.437,29.326
1.845,0.958,8.526,6.85,29.326,1.102,8.526,-6.898,35.191,1.869,8.916,7.621,17.595,105.572,29.326
1.85,1.054,9.005,7.856,29.326,1.15,8.909,-7.904,29.326,2.157,9.059,8.628,17.595,93.842,23.46
1.855,1.006,9.341,8.766,23.46,1.389,9.149,-8.814,29.326,2.588,9.203,9.491,17.595,82.111,23.46
1.86,1.006,9.484,9.58,23.46,1.581,9.293,-9.724,29.326,2.876,9.347,10.497,17.595,64.516,23.46
1.865,1.15,9.724,10.442,23.46,1.533,9.484,-10.586,29.326,2.876,9.491,11.216,5.865,46.921,23.46
1.87,1.102,9.867,10.873,23.46,1.533,9.628,-11.113,23.46,2.732,9.635,11.504,5.865,29.326,23.46
1.875,1.15,9.867,10.969,17.595,1.485,9.724,-11.304,23.46,2.588,9.635,11.648,5.865,5.865,17.595
1.8800000000000001,1.341,10.011,10.921,17.595,1.293,9.724,-11.304,17.595,2.588,9.491,11.504,5.865,-11.73,11.73
1.885,1.245,10.155,10.538,11.73,1.293,9.772,-10.921,11.73,2.301,9.491,10.929,0.0,-29.326,11.73
1.8900000000000001,1.341,10.251,9.867,5.865,1.15,9.867,-10.299,5.865,2.013,9.635,10.21,-5.865,-41.056,5.865
1.895,1.533,10.394,9.245,-0.0,0.862,9.963,-9.628,5.865,1.582,9.491,9.635,-5.865,-58.651,0.0
1.9000000000000001,1.677,10.394,8.574,-5.865,0.671,9.915,-8.957,0.0,1.582,9.347,8.916,-17.595,-70.381,-5.865
1.905,1.533,10.155,7.856,-11.73,0.671,9.772,-8.239,-11.73,1.438,9.491,8.053,-23.46,-82.111,-11.73
1.9100000000000001,1.724,10.203,6.993,-17.595,0.623,9.772,-7.377,-17.595,1.438,9.347,7.046,-29.326,-99.707,-23.46
1.915,1.629,10.107,5.988,-23.46,0.479,9.772,-6.371,-23.46,1.15,9.491,6.04,-35.191,-111.437,-29.326
1.92,1.389,9.58,4.79,-29.326,0.575,9.532,-5.173,-29.326,1.15,9.491,4.745,-41.056,-123.167,-35.191
1.925,1.341,9.293,3.353,-29.326,0.575,9.436,-3.784,-35.191,0.863,9.635,3.307,-41.056,-129.032,-35.191
1.93,1.437,9.245,1.868,-29.326,0.383,9.484,-2.251,-29.326,0.431,9.778,1.582,-41.056,-134.897,-23.46
1.935,1.629,9.245,0.144,-23.46,0.0,9.532,-0.575,-23.46,-0.144,10.066,-0.144,-41.056,-140.762,-23.46
1.94,1.772,9.388,-1.772,-23.46,-0.383,9.724,1.293,-23.46,-0.863,10.497,-2.013,-35.191,-146.628,-17.595
1.945,2.012,9.772,-3.688,-17.595,-0.814,10.107,3.257,-17.595,-1.582,10.785,-3.883,-29.326,-140.762,-17.595
1.95,2.395,10.346,-5.7,-11.73,-1.389,10.634,5.173,-11.73,-2.301,11.36,-5.896,-23.46,-140.762,-11.73
1.955,2.778,11.065,-7.712,-11.73,-1.916,11.304,7.233,-11.73,-3.02,11.792,-7.765,-23.46,-129.032,-11.73
1.96,2.922,11.544,-9.341,-11.73,-2.299,11.783,8.862,-11.73,-3.595,12.223,-9.203,-17.595,-123.167,-11.73
1.965,3.305,11.831,-10.586,-11.73,-2.778,12.071,10.203,-11.73,-4.314,12.511,-10.21,-17.595,-105.572,-17.595
1.97,3.832,12.071,-11.544,-17.595,-3.353,12.31,11.161,-17.595,-4.602,12.511,-11.073,-11.73,-93.842,-23.46
1.975,3.736,12.119,-12.262,-23.46,-3.401,12.31,11.879,-23.46,-4.602,12.223,-11.648,-11.73,-76.246,-23.46
1.98,3.593,11.688,-12.646,-23.46,-3.353,11.927,12.31,-23.46,-4.602,11.792,-11.792,-11.73,-58.651,-23.46
1.985,3.64,11.065,-12.598,-23.46,-3.257,11.352,12.31,-23.46,-4.458,11.36,-11.792,-11.73,-41.056,-23.46
1.99,3.593,10.682,-12.31,-17.595,-3.161,10.969,12.071,-17.595,-4.17,11.073,-11.36,-11.73,-23.46,-17.595
1.995,3.593,10.346,-11.831,-11.73,-3.018,10.586,11.64,-11.73,-4.026,10.497,-10.929,-11.73,-11.73,-11.73
2.0,3.449,9.915,-11.352,-11.73,-2.97,10.203,11.161,-5.865,-4.026,10.354,-10.497,-11.73,5.865,-11.73
2.005,3.353,9.58,-11.017,-5.865,-2.826,9.867,10.778,-5.865,-3.739,9.778,-10.066,-11.73,17.595,-5.865
2.0100000000000002,3.401,9.341,-10.346,-5.865,-2.73,9.532,10.203,0.0,-3.595,9.347,-9.347,-11.73,29.326,0.0
2.015,3.353,9.149,-9.532,-0.0,-2.635,9.053,9.484,0.0,-3.307,8.628,-8.628,-11.73,46.921,0.0
2.02,3.257,8.622,-8.862,-0.0,-2.443,8.622,8.766,5.865,-2.876,8.197,-7.909,-17.595,52.786,5.865
2.025,3.114,8.047,-7.904,5.865,-2.251,8.143,7.856,5.865,-2.732,8.053,-6.902,-17.595,64.516,5.865
2.0300000000000002,2.874,7.616,-6.802,5.865,-2.012,7.856,6.802,5.865,-2.445,8.053,-5.752,-17.595,70.381,5.865
2.035,2.682,7.377,-5.461,5.865,-1.724,7.568,5.461,11.73,-1.869,7.909,-4.602,-17.595,76.246,11.73
2.04,2.539,7.137,-4.311,11.73,-1.341,7.425,4.311,17.595,-1.294,7.909,-3.451,-17.595,82.111,17.595
2.045,2.299,6.993,-3.257,11.73,-1.054,7.52,3.257,17.595,-1.438,8.34,-2.301,-17.595,82.111,17.595
2.05,2.347,7.089,-2.156,11.73,-1.198,7.664,2.156,17.595,-1.294,8.484,-1.294,-5.865,87.977,17.595
2.055,2.347,7.281,-1.198,11.73,-0.958,7.76,1.198,17.595,-0.863,8.484,-0.431,0.0,87.977,17.595
2.06,2.156,7.425,-0.575,11.73,-0.623,7.808,0.479,17.595,-0.431,8.197,0.144,5.865,87.977,17.595
2.065,2.06,7.664,0.048,11.73,-0.431,7.808,-0.096,17.595,-0.144,7.909,0.719,5.865,82.111,11.73
2.07,1.916,7.904,0.479,17.595,-0.24,7.856,-0.623,17.595,0.144,7.909,1.15,17.595,82.111,17.595
2.075,1.916,8.095,0.91,23.46,-0.144,7.999,-1.006,23.46,0.144,8.053,1.582,5.865,76.246,23.46
2.08,2.06,8.43,1.341,29.326,-0.24,8.143,-1.437,29.326,0.144,8.053,2.013,5.865,70.381,29.326
2.085,2.012,8.814,1.677,35.191,-0.192,8.43,-1.82,35.191,0.144,8.484,2.301,5.865,64.516,35.191
2.09,1.964,9.101,1.82,35.191,-0.24,8.862,-2.012,35.191,-0.144,8.916,2.445,0.0,58.651,35.191
2.095,2.299,9.484,2.012,29.326,-0.479,9.197,-2.251,35.191,-0.288,9.059,2.588,0.0,52.786,29.326
2.1,2.347,9.724,2.06,29.326,-0.575,9.436,-2.299,29.326,-0.288,9.347,2.588,-5.865,46.921,23.46
2.105,2.299,9.82,2.06,23.46,-0.527,9.628,-2.251,23.46,-0.288,9.635,2.588,-5.865,41.056,17.595
2.11,2.347,9.772,2.012,11.73,-0.575,9.676,-2.251,17.595,-0.288,9.635,2.588,-11.73,35.191,11.73
2.115,2.299,9.532,1.82,5.865,-0.575,9.532,-2.108,11.73,-0.288,9.635,2.301,-11.73,29.326,5.865
2.12,2.203,9.197,1.533,5.865,-0.527,9.341,-1.82,5.865,-0.431,9.491,2.013,-17.595,23.46,5.865
2.125,2.203,9.005,1.245,-0.0,-0.575,9.149,-1.485,5.865,-0.431,9.203,1.726,-11.73,23.46,5.865
2.13,2.203,8.909,0.91,-0.0,-0.623,9.005,-1.198,5.865,-0.575,9.059,1.438,-11.73,17.595,5.865
2.1350000000000002,2.203,8.814,0.623,5.865,-0.671,8.909,-0.91,5.865,-0.719,9.059,1.15,-11.73,17.595,5.865
2.14,2.251,8.718,0.431,5.865,-0.719,8.862,-0.671,5.865,-0.863,9.059,1.007,-11.73,11.73,5.865
2.145,2.299,8.478,0.144,5.865,-0.862,8.718,-0.383,5.865,-1.007,8.916,0.575,-11.73,11.73,5.865
2.15,2.251,8.287,-0.24,5.865,-0.862,8.526,-0.048,11.73,-1.007,8.916,0.288,-5.865,11.73,5.865
2.1550000000000002,2.251,8.191,-0.575,5.865,-0.862,8.478,0.287,11.73,-1.15,8.772,-0.0,-5.865,11.73,5.865
2.16,2.395,10.059,-0.144,11.73,-0.958,9.053,0.24,11.73,-1.294,10.641,1.438,-5.865,11.73,5.865
2.165,2.922,15.472,1.677,11.73,-1.006,14.562,-1.916,11.73,0.144,13.949,2.157,-11.73,11.73,11.73
2.17,2.826,11.257,1.102,5.865,-0.623,12.885,-1.437,11.73,-0.288,12.942,1.438,-23.46,5.865,0.0
2.1750000000000003,2.491,9.532,0.814,-17.595,-1.054,10.394,-1.102,-5.865,-1.438,10.21,1.438,-11.73,-5.865,-23.46
2.18,2.539,10.155,-0.287,-35.191,-1.198,9.628,-0.287,-29.326,-1.438,8.772,-0.144,0.0,-5.865,-35.191
2.185,2.347,9.436,-1.581,-29.326,-1.054,9.101,1.198,-29.326,-1.294,8.772,-1.15,-5.865,-5.865,-29.326
2.19,2.395,9.245,-1.868,-23.46,-1.102,9.149,1.677,-23.46,-1.294,9.778,-1.15,-17.595,0.0,-23.46
2.195,2.491,10.155,-1.437,-23.46,-1.15,10.155,1.245,-23.46,-1.294,10.929,-0.575,-17.595,0.0,-23.46
2.2,2.491,10.203,-0.958,-17.595,-1.15,10.682,0.719,-17.595,-1.15,11.073,-0.288,-17.595,0.0,-17.595
2.205,2.299,9.772,-0.91,-11.73,-0.958,10.251,0.623,-11.73,-0.863,10.641,-0.431,-11.73,0.0,-11.73
2.21,2.299,9.867,-1.245,-5.865,-0.766,10.107,0.958,-5.865,-0.719,10.497,-0.719,-5.865,0.0,-5.865
2.215,2.443,10.155,-1.437,-5.865,-0.862,10.059,1.102,-5.865,-0.863,10.354,-0.863,-5.865,0.0,-5.865
2.22,2.587,9.867,-1.772,-5.865,-1.102,10.203,1.485,0.0,-1.15,10.641,-1.294,-5.865,0.0,0.0
2.225,2.539,9.724,-1.964,-0.0,-1.198,10.059,1.677,0.0,-1.582,10.354,-1.438,0.0,0.0,0.0
2.23,2.682,9.724,-2.108,5.865,-1.293,9.915,1.82,5.865,-1.438,10.066,-1.582,0.0,0.0,5.865
2.235,2.778,9.676,-2.299,5.865,-1.341,9.772,2.012,11.73,-1.438,9.778,-1.726,0.0,0.0,5.865
2.24,2.778,9.436,-2.347,5.865,-1.437,9.532,2.108,11.73,-1.582,9.635,-1.726,0.0,0.0,11.73
2.245,2.73,9.197,-2.347,5.865,-1.389,9.388,2.108,11.73,-1.582,9.491,-1.726,5.865,0.0,5.865
2.25,2.73,9.053,-2.251,-0.0,-1.389,9.245,2.06,5.865,-1.582,9.491,-1.726,5.865,0.0,0.0
2.255,2.73,9.101,-2.203,-0.0,-1.389,9.245,1.964,5.865,-1.582,9.491,-1.582,5.865,5.865,0.0
2.2600000000000002,2.73,9.149,-2.156,-0.0,-1.389,9.245,1.916,0.0,-1.438,9.491,-1.582,5.865,5.865,0.0
2.265,2.682,9.149,-2.06,-5.865,-1.341,9.245,1.82,0.0,-1.438,9.347,-1.438,5.865,5.865,-5.865
2.27,2.682,9.245,-1.964,-5.865,-1.293,9.293,1.724,-5.865,-1.294,9.491,-1.294,5.865,5.865,-5.865
2.275,2.491,9.867,-1.868,-5.865,-1.054,9.772,1.581,-5.865,-1.294,9.778,-1.438,5.865,5.865,-5.865
2.2800000000000002,3.066,9.245,-1.82,-11.73,-1.581,9.436,1.581,-11.73,-1.582,9.635,-1.15,5.865,5.865,-11.73
2.285,2.156,9.436,-1.724,-11.73,-1.006,9.388,1.485,-5.865,-1.15,9.491,-1.007,5.865,5.865,-5.865
2.29,2.587,9.628,-1.581,-5.865,-1.054,9.436,1.341,-5.865,-1.007,9.635,-1.007,5.865,5.865,-5.865
2.295,2.73,9.82,-1.389,-5.865,-1.102,9.82,1.198,-5.865,-1.15,9.922,-0.863,5.865,5.865,-11.73
2.3000000000000003,2.778,9.628,-1.437,-11.73,-1.437,9.628,1.198,-11.73,-1.438,9.778,-0.863,5.865,5.865,-11.73
2.305,2.587,9.82,-1.485,-11.73,-1.15,9.82,1.245,-5.865,-1.294,9.922,-0.863,5.865,5.865,-5.865
2.31,2.778,9.772,-1.581,-5.865,-1.341,9.772,1.341,-5.865,-1.438,9.922,-1.007,5.865,5.865,-5.865
2.315,2.778,9.628,-1.533,-5.865,-1.389,9.676,1.293,-5.865,-1.438,9.778,-0.863,5.865,5.865,-5.865
2.32,2.73,9.628,-1.485,-5.865,-1.341,9.628,1.245,-5.865,-1.438,9.635,-0.863,0.0,5.865,-5.865
2.325,2.826,9.484,-1.437,-5.865,-1.341,9.532,1.198,0.0,-1.438,9.635,-0.863,0.0,5.865,-5.865
2.33,2.778,9.388,-1.437,-0.0,-1.341,9.436,1.198,0.0,-1.438,9.635,-0.863,0.0,5.865,0.0
2.335,2.778,9.388,-1.485,-5.865,-1.341,9.484,1.293,0.0,-1.294,9.635,-0.863,0.0,0.0,0.0
2.34,2.778,9.484,-1.581,-0.0,-1.341,9.58,1.293,0.0,-1.438,9.778,-1.007,0.0,0.0,0.0
2.345,2.778,9.532,-1.581,-0.0,-1.341,9.676,1.293,0.0,-1.438,9.922,-1.007,0.0,0.0,0.0
2.35,2.874,9.532,-1.629,-0.0,-1.437,9.628,1.389,0.0,-1.582,9.922,-1.15,0.0,0.0,0.0
2.355,2.922,9.532,-1.724,-0.0,-1.533,9.628,1.485,5.865,-1.726,9.778,-1.15,0.0,0.0,0.0
2.36,2.922,9.532,-1.82,-0.0,-1.581,9.628,1.581,5.865,-1.726,9.778,-1.294,0.0,0.0,0.0
2.365,2.922,9.58,-1.916,-0.0,-1.581,9.628,1.677,5.865,-1.726,9.778,-1.294,0.0,5.865,0.0
2.37,2.97,9.58,-1.964,-0.0,-1.581,9.676,1.724,5.865,-1.726,9.778,-1.294,5.865,0.0,0.0
2.375,2.97,9.58,-1.964,-0.0,-1.581,9.676,1.724,5.865,-1.726,9.922,-1.294,5.865,5.865,0.0
2.38,2.874,9.532,-1.916,-0.0,-1.485,9.628,1.724,5.865,-1.582,9.778,-1.294,5.865,5.865,0.0
2.3850000000000002,2.826,9.436,-1.82,-0.0,-1.389,9.58,1.629,0.0,-1.869,9.635,-1.15,5.865,0.0,0.0
2.39,2.539,9.58,-1.677,-0.0,-0.862,9.915,1.485,5.865,-3.164,7.765,-1.294,5.865,0.0,-5.865
2.395,2.443,10.155,-2.012,5.865,-0.623,10.682,1.677,5.865,-1.438,9.059,-1.582,17.595,-5.865,-11.73
2.4,3.161,9.245,-1.82,5.865,-1.677,9.245,1.629,5.865,-1.007,10.066,-1.007,17.595,-5.865,0.0
2.4050000000000002,2.826,8.766,-1.677,5.865,-1.82,8.814,1.437,5.865,-1.007,10.066,-1.15,17.595,-5.865,5.865
2.41,2.874,9.101,-1.581,5.865,-1.437,9.005,1.389,5.865,-0.863,9.922,-1.007,17.595,-5.865,5.865
2.415,2.97,9.101,-1.868,5.865,-1.772,8.766,1.533,5.865,-1.15,9.922,-1.15,5.865,0.0,5.865
2.42,2.874,9.101,-1.772,5.865,-1.581,9.101,1.533,5.865,-1.582,9.347,-1.15,5.865,0.0,5.865
2.4250000000000003,2.73,9.293,-1.82,-0.0,-1.389,9.245,1.581,5.865,-1.582,9.347,-1.294,5.865,0.0,0.0
2.43,2.778,9.341,-1.82,-0.0,-1.389,9.341,1.629,5.865,-1.582,9.347,-1.15,5.865,5.865,0.0
2.435,2.778,9.341,-1.677,-0.0,-1.389,9.388,1.485,0.0,-1.582,9.491,-1.007,5.865,5.865,0.0
2.44,2.682,9.388,-1.629,-0.0,-1.293,9.388,1.389,0.0,-1.438,9.491,-1.007,5.865,5.865,0.0
2.445,2.682,9.484,-1.629,-5.865,-1.245,9.484,1.341,0.0,-1.294,9.635,-1.007,5.865,5.865,-5.865
2.45,2.682,9.388,-1.629,-5.865,-1.245,9.388,1.389,0.0,-1.294,9.491,-1.007,5.865,5.865,-5.865
2.455,2.635,9.532,-1.581,-5.865,-1.198,9.484,1.341,0.0,-1.294,9.491,-1.007,0.0,5.865,0.0
2.46,2.73,9.484,-1.581,-5.865,-1.245,9.484,1.341,0.0,-1.294,9.491,-1.007,0.0,5.865,-5.865
2.465,2.635,9.341,-1.629,-5.865,-1.245,9.436,1.389,-5.865,-1.294,9.491,-1.007,0.0,5.865,-5.865
2.47,2.587,9.341,-1.724,-5.865,-1.15,9.388,1.485,-5.865,-1.294,9.491,-1.15,0.0,5.865,-5.865
2.475,2.635,9.436,-1.629,-5.865,-1.15,9.484,1.389,-5.865,-1.294,9.635,-1.007,0.0,0.0,0.0
2.48,2.682,9.484,-1.677,-0.0,-1.245,9.532,1.437,0.0,-1.294,9.635,-1.15,0.0,0.0,0.0
2.485,2.635,9.484,-1.677,-0.0,-1.198,9.628,1.485,0.0,-1.294,9.922,-1.007,0.0,0.0,-5.865
2.49,2.682,9.436,-1.533,-5.865,-1.245,9.628,1.341,0.0,-1.438,9.922,-1.007,0.0,0.0,0.0
2.495,2.682,9.436,-1.629,-0.0,-1.293,9.628,1.341,0.0,-1.294,9.922,-1.007,0.0,0.0,-5.865
2.5,2.73,9.484,-1.677,-5.865,-1.245,9.628,1.485,0.0,-1.294,9.922,-1.15,5.865,0.0,0.0
2.505,2.682,9.436,-1.724,-5.865,-1.245,9.58,1.485,0.0,-1.294,9.778,-1.15,5.865,0.0,0.0
2.5100000000000002,2.682,9.341,-1.724,-0.0,-1.245,9.484,1.485,0.0,-1.438,9.635,-1.15,5.865,0.0,0.0
2.515,2.73,9.245,-1.772,-0.0,-1.341,9.388,1.533,0.0,-1.582,9.491,-1.15,5.865,0.0,0.0
2.52,2.73,9.149,-1.82,-0.0,-1.389,9.293,1.533,0.0,-1.582,9.491,-1.15,5.865,0.0,0.0
2.525,2.778,9.101,-1.82,-0.0,-1.437,9.197,1.581,5.865,-1.726,9.347,-1.15,5.865,0.0,0.0
2.5300000000000002,2.826,9.149,-1.772,-0.0,-1.485,9.197,1.533,5.865,-1.726,9.347,-1.15,5.865,0.0,0.0
2.535,2.826,9.149,-1.677,-0.0,-1.437,9.197,1.485,5.865,-1.726,9.347,-1.007,5.865,0.0,0.0
2.54,2.778,9.197,-1.629,5.865,-1.437,9.197,1.389,5.865,-1.582,9.203,-1.007,5.865,5.865,5.865
2.545,2.73,9.245,-1.629,5.865,-1.389,9.197,1.389,5.865,-1.582,9.203,-1.007,5.865,5.865,5.865
2.5500000000000003,2.778,9.245,-1.581,5.865,-1.389,9.197,1.341,5.865,-1.582,9.203,-1.007,5.865,5.865,5.865
2.555,2.778,9.293,-1.533,5.865,-1.389,9.197,1.293,5.865,-1.438,9.059,-0.863,5.865,5.865,5.865
2.56,2.73,9.293,-1.533,5.865,-1.341,9.197,1.293,5.865,-1.438,9.203,-1.007,5.865,5.865,5.865
2.565,2.635,9.341,-1.581,5.865,-1.245,9.197,1.341,5.865,-1.294,9.203,-1.007,0.0,5.865,5.865
2.57,2.587,9.245,-1.581,5.865,-1.198,9.245,1.341,5.865,-1.294,9.347,-0.863,0.0,5.865,5.865
2.575,2.635,9.293,-1.437,5.865,-1.198,9.341,1.245,5.865,-1.294,9.491,-0.863,-5.865,5.865,5.865
2.58,2.587,9.388,-1.437,5.865,-1.198,9.436,1.198,11.73,-1.294,9.635,-0.863,-5.865,5.865,5.865
2.585,2.587,9.532,-1.533,5.865,-1.198,9.58,1.245,11.73,-1.294,9.778,-1.007,-5.865,5.865,5.865
2.59,2.682,9.676,-1.581,5.865,-1.198,9.724,1.341,11.73,-1.438,9.922,-1.007,-5.865,5.865,5.865
2.595,2.682,9.724,-1.533,5.865,-1.293,9.772,1.293,5.865,-1.438,9.922,-1.007,-5.865,5.865,5.865
2.6,2.635,9.724,-1.581,-0.0,-1.245,9.82,1.341,5.865,-1.294,9.922,-1.007,-5.865,5.865,0.0
2.605,2.635,9.724,-1.677,-0.0,-1.15,9.772,1.389,5.865,-1.15,9.778,-1.15,-5.865,5.865,0.0
2.61,2.635,9.724,-1.724,-0.0,-1.15,9.772,1.485,0.0,-1.15,9.778,-1.15,-5.865,5.865,0.0
2.615,2.587,9.724,-1.724,-0.0,-1.15,9.772,1.485,0.0,-1.15,9.922,-1.15,-5.865,5.865,0.0
2.62,2.587,9.724,-1.772,-5.865,-1.15,9.772,1.485,0.0,-1.294,9.778,-1.15,-5.865,5.865,0.0
2.625,2.635,9.628,-1.868,-0.0,-1.198,9.724,1.629,0.0,-1.294,9.922,-1.294,-5.865,5.865,-5.865
2.63,2.539,9.436,-1.677,-0.0,-1.15,9.628,1.485,0.0,-1.294,9.922,-1.007,-5.865,0.0,0.0
2.6350000000000002,2.587,9.388,-1.629,-0.0,-1.198,9.58,1.389,0.0,-1.294,9.778,-1.007,-5.865,0.0,0.0
2.64,2.587,9.341,-1.677,-0.0,-1.198,9.532,1.437,0.0,-1.294,9.778,-1.15,0.0,0.0,0.0
2.645,2.635,9.341,-1.724,-0.0,-1.245,9.532,1.485,0.0,-1.438,9.778,-1.15,0.0,5.865,0.0
2.65,2.635,9.436,-1.677,-0.0,-1.245,9.58,1.485,0.0,-1.438,9.922,-1.15,0.0,5.865,0.0
2.6550000000000002,2.635,9.484,-1.724,-0.0,-1.245,9.628,1.485,0.0,-1.438,9.922,-1.15,5.865,5.865,0.0
2.66,2.682,9.58,-1.677,-0.0,-1.293,9.676,1.437,0.0,-1.438,9.922,-1.007,5.865,5.865,0.0
2.665,2.73,9.628,-1.581,-0.0,-1.293,9.724,1.341,0.0,-1.438,9.922,-1.007,5.865,5.865,0.0
2.67,2.73,9.58,-1.581,-0.0,-1.341,9.676,1.293,5.865,-1.438,9.778,-1.007,5.865,5.865,0.0
2.6750000000000003,2.73,9.436,-1.581,-0.0,-1.341,9.58,1.341,5.865,-1.438,9.778,-1.007,5.865,5.865,0.0
2.68,2.73,9.388,-1.581,-0.0,-1.341,9.532,1.341,5.865,-1.438,9.635,-1.007,5.865,5.865,0.0
2.685,2.73,9.341,-1.533,-0.0,-1.341,9.436,1.293,0.0,-1.438,9.491,-0.863,5.865,5.865,0.0
2.69,2.73,9.293,-1.533,-0.0,-1.341,9.388,1.293,0.0,-1.438,9.491,-0.863,5.865,5.865,0.0
2.695,2.73,9.293,-1.485,-0.0,-1.293,9.341,1.245,5.865,-1.438,9.491,-0.863,5.865,5.865,0.0
2.7,2.73,9.388,-1.485,5.865,-1.341,9.436,1.245,5.865,-1.438,9.635,-0.863,5.865,5.865,5.865
2.705,2.778,9.532,-1.389,5.865,-1.341,9.532,1.15,5.865,-1.438,9.778,-0.719,5.865,5.865,5.865
2.71,2.826,9.628,-1.293,5.865,-1.389,9.676,1.102,5.865,-1.438,9.778,-0.719,5.865,5.865,5.865
2.715,2.826,9.724,-1.293,5.865,-1.389,9.772,1.054,5.865,-1.438,9.922,-0.719,5.865,5.865,11.73
2.72,2.826,9.772,-1.293,11.73,-1.389,9.82,1.054,11.73,-1.582,9.922,-0.719,5.865,5.865,11.73
2.725,2.874,9.82,-1.198,11.73,-1.437,9.82,0.958,11.73,-1.582,9.922,-0.575,5.865,5.865,11.73
2.73,2.874,9.772,-1.198,11.73,-1.437,9.772,0.958,11.73,-1.582,9.922,-0.575,5.865,5.865,11.73
2.735,2.826,9.772,-1.293,11.73,-1.389,9.772,1.006,17.595,-1.582,9.922,-0.719,5.865,5.865,11.73
2.74,2.778,9.82,-1.341,11.73,-1.389,9.82,1.102,17.595,-1.438,9.922,-0.719,5.865,5.865,17.595
2.745,2.73,9.867,-1.389,17.595,-1.341,9.915,1.15,17.595,-1.438,10.066,-0.719,5.865,5.865,17.595
2.75,2.778,9.963,-1.389,23.46,-1.341,10.011,1.15,23.46,-1.438,10.21,-0.719,5.865,5.865,23.46
2.755,2.778,10.107,-1.389,23.46,-1.341,10.155,1.15,23.46,-1.438,10.354,-0.863,5.865,5.865,23.46
2.7600000000000002,2.778,10.251,-1.437,29.326,-1.341,10.299,1.15,23.46,-1.438,10.641,-0.863,5.865,5.865,23.46
2.765,2.778,10.442,-1.437,29.326,-1.341,10.49,1.198,29.326,-1.438,10.785,-0.863,5.865,5.865,29.326
2.77,2.778,10.682,-1.533,29.326,-1.341,10.73,1.245,29.326,-1.438,11.073,-1.007,5.865,5.865,29.326
2.775,2.73,10.921,-1.629,29.326,-1.341,11.017,1.341,35.191,-1.438,11.36,-1.007,5.865,5.865,29.326
2.7800000000000002,2.778,11.209,-1.533,35.191,-1.341,11.304,1.293,35.191,-1.438,11.648,-0.863,5.865,5.865,35.191
2.785,2.874,11.4,-1.389,35.191,-1.389,11.544,1.15,35.191,-1.438,11.935,-0.719,5.865,5.865,29.326
2.79,2.874,11.64,-1.341,29.326,-1.437,11.783,1.054,35.191,-1.438,12.079,-0.719,5.865,5.865,29.326
2.795,2.73,11.879,-1.389,29.326,-1.245,12.023,1.102,29.326,-1.294,12.367,-0.719,5.865,0.0,23.46
2.8000000000000003,2.778,12.215,-1.437,23.46,-1.245,12.262,1.15,23.46,-1.294,12.511,-0.863,5.865,0.0,17.595
2.805,2.778,12.502,-1.485,17.595,-1.245,12.55,1.198,17.595,-1.294,12.654,-0.863,17.595,0.0,17.595
2.81,2.826,12.741,-1.485,11.73,-1.245,12.789,1.198,17.595,-1.15,13.086,-0.863,17.595,0.0,11.73
2.815,2.826,13.029,-1.533,11.73,-1.245,13.077,1.198,11.73,-1.294,13.373,-0.863,17.595,0.0,5.865
2.82,2.922,14.322,-2.347,5.865,-1.102,13.891,1.629,5.865,-1.726,14.236,-1.582,17.595,-5.865,5.865
2.825,2.587,14.131,-1.677,-0.0,-0.814,13.987,1.581,5.865,-2.301,14.811,-1.007,5.865,-5.865,-11.73
2.83,3.497,14.514,-1.581,-0.0,-2.06,14.849,1.198,0.0,-1.726,14.524,-0.863,5.865,-11.73,-35.191
2.835,3.784,14.131,-1.581,-17.595,-2.443,14.322,1.245,-11.73,-1.294,13.661,-1.007,17.595,-5.865,-46.921
2.84,3.161,13.508,-1.724,-35.191,-1.677,13.604,1.389,-35.191,-1.294,13.086,-1.15,17.595,-5.865,-52.786
2.845,2.682,12.741,-1.916,-46.921,-1.198,12.885,1.581,-46.921,-1.294,12.654,-1.294,17.595,-5.865,-52.786
2.85,2.682,12.167,-1.964,-52.786,-1.198,12.406,1.677,-52.786,-1.438,12.367,-1.294,17.595,-5.865,-58.651
2.855,2.635,11.592,-1.964,-52.786,-1.245,11.831,1.677,-52.786,-1.582,11.935,-1.294,17.595,-5.865,-52.786
2.86,2.635,11.065,-1.964,-46.921,-1.245,11.4,1.677,-46.921,-1.582,11.648,-1.294,17.595,-5.865,-46.921
2.865,2.826,10.825,-1.82,-41.056,-1.389,11.161,1.581,-41.056,-1.726,11.504,-1.15,23.46,-5.865,-41.056
2.87,2.922,10.634,-1.772,-41.056,-1.533,11.017,1.485,-41.056,-1.869,11.36,-1.15,23.46,-5.865,-41.056
2.875,2.778,10.394,-1.772,-41.056,-1.485,10.778,1.485,-41.056,-1.726,11.073,-1.15,29.326,-5.865,-41.056
2.88,2.778,10.346,-1.82,-41.056,-1.341,10.634,1.533,-41.056,-1.438,10.785,-1.294,35.191,0.0,-46.921
2.8850000000000002,2.826,10.203,-1.916,-46.921,-1.389,10.346,1.677,-46.921,-1.438,10.354,-1.294,35.191,0.0,-46.921
2.89,2.73,9.915,-1.964,-46.921,-1.293,10.011,1.724,-46.921,-1.438,9.778,-1.438,41.056,0.0,-52.786
2.895,2.682,9.58,-2.012,-52.786,-1.245,9.58,1.772,-52.786,-1.438,9.203,-1.438,35.191,0.0,-52.786
2.9,2.682,9.053,-2.012,-52.786,-1.245,9.053,1.772,-52.786,-1.438,8.628,-1.438,35.191,-5.865,-52.786
2.9050000000000002,2.682,8.526,-2.06,-46.921,-1.293,8.478,1.82,-52.786,-1.582,8.053,-1.438,29.326,-5.865,-52.786
2.91,2.539,7.904,-2.108,-46.921,-1.245,7.951,1.868,-46.921,-1.582,7.621,-1.438,29.326,-5.865,-52.786
2.915,2.635,7.472,-2.108,-46.921,-1.293,7.52,1.868,-46.921,-1.582,7.334,-1.438,23.46,0.0,-46.921
2.92,2.539,6.993,-2.108,-46.921,-1.293,7.041,1.868,-46.921,-1.582,6.902,-1.438,23.46,0.0,-46.921
2.9250000000000003,2.539,6.658,-2.012,-41.056,-1.245,6.706,1.82,-41.056,-1.582,6.615,-1.438,23.46,0.0,-41.056
2.93,2.635,6.419,-1.916,-41.056,-1.341,6.323,1.772,-41.056,-1.582,6.04,-1.294,23.46,0.0,-41.056
2.935,2.491,6.035,-1.868,-35.191,-1.198,5.988,1.724,-35.191,-1.438,5.608,-1.294,17.595,5.865,-35.191
2.94,2.443,5.652,-1.772,-29.326,-1.15,5.556,1.581,-35.191,-1.438,5.464,-1.15,5.865,5.865,-35.191
2.945,2.491,5.269,-1.772,-23.46,-1.198,5.269,1.581,-23.46,-1.582,5.033,-1.15,5.865,5.865,-23.46
2.95,2.539,5.077,-1.724,-23.46,-1.245,4.934,1.533,-23.46,-1.582,4.602,-1.15,5.865,5.865,-23.46
2.955,2.539,4.79,-1.724,-17.595,-1.245,4.598,1.533,-17.595,-1.582,4.314,-1.15,5.865,5.865,-17.595
2.96,2.587,4.455,-1.724,-11.73,-1.293,4.359,1.533,-11.73,-1.582,4.17,-1.15,0.0,5.865,-11.73
2.965,2.539,4.311,-1.581,-11.73,-1.245,4.167,1.437,-11.73,-1.438,3.883,-1.007,-5.865,11.73,-11.73
2.97,2.443,4.072,-1.485,-5.865,-1.198,3.928,1.341,-5.865,-1.294,3.739,-0.863,-5.865,11.73,-5.865
2.975,2.347,3.88,-1.437,-0.0,-1.054,3.832,1.293,0.0,-1.15,3.883,-0.863,-11.73,11.73,0.0
2.98,2.251,3.832,-1.341,5.865,-0.958,3.832,1.198,5.865,-1.15,4.026,-0.863,-17.595,11.73,5.865
2.985,2.203,3.736,-1.293,11.73,-0.91,3.928,1.15,11.73,-1.15,4.458,-0.719,-17.595,11.73,17.595
2.99,2.251,3.88,-1.245,23.46,-0.958,4.119,1.054,23.46,-1.294,4.745,-0.719,-11.73,11.73,23.46
2.995,2.299,4.167,-1.198,29.326,-1.006,4.455,1.054,29.326,-1.294,5.033,-0.719,-11.73,11.73,29.326
3.0,2.395,4.455,-1.198,29.326,-1.054,4.742,1.054,35.191,-1.294,5.177,-0.719,-5.865,11.73,29.326
3.005,2.395,4.503,-1.245,35.191,-1.102,4.694,1.054,35.191,-1.438,4.889,-0.719,0.0,11.73,35.191
3.0100000000000002,2.539,4.359,-1.293,35.191,-1.245,4.503,1.102,35.191,-1.582,4.458,-0.719,0.0,17.595,29.326
3.015,2.443,4.119,-1.389,29.326,-1.198,4.167,1.198,35.191,-1.438,4.17,-0.863,0.0,17.595,29.326
3.02,2.299,4.024,-1.485,29.326,-1.054,3.976,1.341,35.191,-1.294,3.883,-1.007,0.0,17.595,29.326
3.025,2.251,4.263,-1.437,35.191,-0.91,3.976,1.293,35.191,-1.007,3.739,-0.863,0.0,17.595,35.191
3.0300000000000002,2.156,4.503,-1.389,35.191,-0.814,4.072,1.198,35.191,-0.863,3.739,-0.863,-5.865,17.595,35.191
3.035,2.012,4.646,-1.341,41.056,-0.623,4.263,1.198,41.056,-0.719,4.026,-0.863,-11.73,17.595,41.056
3.04,1.916,4.838,-1.293,46.921,-0.527,4.503,1.15,46.921,-0.575,4.602,-0.719,-17.595,17.595,46.921
3.045,1.916,5.173,-1.15,52.786,-0.479,4.934,1.006,52.786,-0.719,5.177,-0.575,-23.46,17.595,52.786
3.0500000000000003,1.964,5.652,-1.054,58.651,-0.527,5.461,0.862,58.651,-0.575,5.752,-0.575,-29.326,11.73,58.651
3.055,1.916,6.083,-1.15,58.651,-0.479,6.035,0.91,64.516,-0.863,13.805,0.863,-29.326,11.73,58.651
3.06,6.514,22.896,8.718,64.516,0.575,23.279,-10.73,64.516,-5.896,31.348,15.099,5.865,23.46,58.651
3.065,5.509,18.01,6.802,35.191,-6.227,19.016,-9.532,41.056,3.739,8.053,2.588,23.46,5.865,23.46
3.0700000000000003,-0.719,12.837,-3.401,-5.865,5.365,9.963,2.203,5.865,6.327,8.197,-4.458,-17.595,-11.73,-35.191
3.075,3.209,15.807,-3.161,-70.381,-0.096,12.885,3.545,-64.516,-3.307,9.922,-1.438,-58.651,-46.921,-82.111
3.08,3.736,12.167,-0.814,-70.381,-3.976,12.215,0.623,-76.246,-6.471,13.086,0.288,-99.707,-58.651,-52.786
3.085,3.784,9.293,-0.527,-11.73,-3.64,11.065,0.192,-17.595,-3.883,11.935,-0.144,-111.437,-41.056,0.0
3.09,3.257,7.904,-0.958,5.865,-2.299,9.293,0.719,11.73,-2.445,10.785,-0.431,-93.842,-23.46,5.865
3.095,2.922,8.909,-0.958,-11.73,-1.724,9.676,0.766,0.0,-1.869,11.216,-0.288,-76.246,-17.595,-17.595
3.1,2.443,9.341,-0.958,-17.595,-1.198,10.203,0.719,-17.595,-1.15,11.792,-0.431,-58.651,-11.73,-17.595
3.105,2.347,9.867,-1.341,-5.865,-0.862,10.73,1.054,-5.865,-0.863,12.223,-1.007,-46.921,-11.73,5.865
3.11,2.395,10.49,-1.82,23.46,-0.91,11.257,1.533,17.595,-1.15,12.223,-1.294,-35.191,-11.73,29.326
3.115,2.826,10.682,-2.06,41.056,-1.245,11.304,1.772,41.056,-1.438,11.792,-1.582,-23.46,-11.73,46.921
3.12,3.066,10.634,-2.347,46.921,-1.581,11.065,2.012,46.921,-2.013,11.504,-1.869,-17.595,-11.73,46.921
3.125,3.257,10.538,-2.778,46.921,-1.916,10.873,2.491,52.786,-2.445,11.073,-2.301,-11.73,-11.73,46.921
3.13,3.209,10.586,-3.257,46.921,-2.06,10.73,2.922,46.921,-2.588,10.785,-2.732,-5.865,-11.73,41.056
3.1350000000000002,3.114,10.299,-3.593,41.056,-2.012,10.49,3.257,41.056,-2.445,10.497,-3.02,-5.865,-5.865,35.191
3.14,3.018,10.107,-3.736,35.191,-1.868,10.299,3.449,35.191,-2.157,10.354,-3.02,-5.865,-5.865,29.326
3.145,2.874,10.059,-3.64,29.326,-1.677,10.155,3.401,29.326,-2.013,10.21,-3.02,0.0,0.0,23.46
3.15,2.778,10.011,-3.449,17.595,-1.485,10.107,3.209,23.46,-1.726,10.21,-2.732,0.0,0.0,17.595
3.1550000000000002,2.73,10.107,-3.066,11.73,-1.389,10.203,2.874,11.73,-1.582,10.497,-2.301,0.0,5.865,5.865
3.16,2.73,10.442,-2.635,5.865,-1.341,10.49,2.443,5.865,-1.438,10.785,-1.869,0.0,5.865,0.0
3.165,2.635,10.634,-2.347,-0.0,-1.198,10.73,2.156,0.0,-1.294,10.929,-1.726,0.0,5.865,0.0
3.17,2.635,10.682,-2.108,-5.865,-1.15,10.825,1.916,-5.865,-1.294,10.929,-1.438,0.0,5.865,-5.865
3.1750000000000003,2.587,10.634,-1.916,-11.73,-1.15,10.778,1.724,-5.865,-1.294,10.929,-1.294,0.0,5.865,-11.73
3.18,2.491,10.49,-1.82,-11.73,-1.102,10.682,1.581,-11.73,-1.294,10.785,-1.15,5.865,5.865,-11.73
3.185,2.395,10.394,-1.724,-11.73,-1.006,10.586,1.485,-11.73,-1.15,10.785,-1.007,5.865,5.865,-11.73
3.19,2.395,10.346,-1.629,-11.73,-0.958,10.49,1.389,-11.73,-1.15,10.641,-1.007,5.865,5.865,-11.73
3.1950000000000003,2.395,10.251,-1.533,-11.73,-0.91,10.394,1.293,-5.865,-1.007,10.497,-0.863,5.865,5.865,-11.73
3.2,2.395,10.203,-1.485,-5.865,-0.91,10.299,1.245,-5.865,-1.007,10.354,-0.863,5.865,5.865,-5.865
3.205,2.395,10.155,-1.389,-0.0,-0.91,10.203,1.15,0.0,-1.007,10.21,-0.863,5.865,5.865,0.0
3.21,2.491,10.107,-1.341,5.865,-0.958,10.155,1.102,5.865,-1.15,10.21,-0.719,5.865,0.0,5.865
3.215,2.539,10.011,-1.341,5.865,-1.054,10.059,1.102,11.73,-1.294,10.066,-0.719,5.865,0.0,5.865
3.22,2.587,9.963,-1.389,11.73,-1.15,9.963,1.15,11.73,-1.294,9.922,-0.863,5.865,0.0,11.73
3.225,2.682,9.772,-1.533,11.73,-1.245,9.82,1.293,11.73,-1.582,9.778,-1.007,0.0,0.0,11.73
3.23,2.682,9.867,-1.581,11.73,-1.245,9.82,1.341,11.73,-1.438,9.778,-1.007,0.0,0.0,11.73
3.235,2.826,9.772,-1.629,11.73,-1.341,9.772,1.389,11.73,-1.582,9.778,-1.007,0.0,0.0,11.73
3.24,2.826,9.772,-1.677,5.865,-1.389,9.724,1.437,11.73,-1.582,9.778,-1.007,0.0,0.0,5.865
3.245,2.826,9.772,-1.677,5.865,-1.389,9.772,1.437,5.865,-1.582,9.778,-1.15,0.0,0.0,5.865
3.25,2.826,9.676,-1.677,-0.0,-1.437,9.676,1.437,5.865,-1.582,9.635,-1.15,-5.865,0.0,0.0
3.255,2.826,9.58,-1.724,-0.0,-1.389,9.58,1.485,0.0,-1.582,9.635,-1.15,-5.865,0.0,0.0
3.2600000000000002,2.826,9.436,-1.724,-5.865,-1.389,9.484,1.485,0.0,-1.582,9.491,-1.15,-5.865,0.0,0.0
3.265,2.778,9.293,-1.724,-5.865,-1.389,9.341,1.485,-5.865,-1.582,9.347,-1.15,-5.865,0.0,-5.865
3.27,2.73,9.101,-1.724,-5.865,-1.341,9.197,1.485,-5.865,-1.582,9.347,-1.15,-5.865,0.0,-5.865
3.275,2.682,9.005,-1.772,-5.865,-1.293,9.149,1.533,0.0,-1.582,9.347,-1.15,-5.865,0.0,-5.865
3.2800000000000002,2.778,9.197,-1.772,-5.865,-1.389,9.197,1.533,0.0,-1.582,9.347,-1.15,-5.865,0.0,-5.865
3.285,2.635,8.862,-1.82,-5.865,-1.293,9.197,1.581,0.0,-1.438,9.491,-1.294,-5.865,0.0,0.0
3.29,2.682,8.909,-1.772,-0.0,-1.245,9.101,1.581,0.0,-1.582,9.347,-1.15,-5.865,0.0,0.0
3.295,2.826,9.197,-1.724,-0.0,-1.437,9.245,1.485,5.865,-1.582,9.491,-1.15,0.0,0.0,0.0
3.3000000000000003,2.73,9.197,-1.772,-0.0,-1.389,9.293,1.485,5.865,-1.582,9.491,-1.15,0.0,0.0,0.0
3.305,2.682,9.197,-1.82,5.865,-1.293,9.293,1.581,5.865,-1.438,9.491,-1.15,0.0,0.0,5.865
3.31,2.778,9.149,-1.772,5.865,-1.341,9.245,1.533,5.865,-1.582,9.347,-1.15,0.0,0.0,5.865
3.315,2.778,9.149,-1.82,5.865,-1.389,9.245,1.533,5.865,-1.582,9.347,-1.15,0.0,0.0,5.865
3.3200000000000003,2.778,9.197,-1.82,5.865,-1.341,9.245,1.581,5.865,-1.582,9.347,-1.15,0.0,0.0,5.865
3.325,2.778,9.149,-1.82,5.865,-1.389,9.245,1.581,5.865,-1.582,9.347,-1.294,0.0,0.0,5.865
3.33,2.73,9.149,-1.868,5.865,-1.341,9.245,1.629,5.865,-1.438,9.347,-1.294,0.0,0.0,5.865
3.335,2.682,9.149,-1.964,5.865,-1.293,9.245,1.724,5.865,-1.438,9.491,-1.294,0.0,0.0,5.865
3.34,2.682,9.245,-2.012,5.865,-1.245,9.341,1.772,5.865,-1.438,9.491,-1.438,0.0,0.0,5.865
3.345,2.635,9.341,-1.964,5.865,-1.245,9.436,1.724,5.865,-1.438,9.635,-1.294,5.865,0.0,5.865
3.35,2.682,9.436,-1.964,5.865,-1.245,9.484,1.724,5.865,-1.438,9.635,-1.438,5.865,0.0,5.865
3.355,2.682,9.484,-2.06,5.865,-1.245,9.58,1.82,11.73,-1.438,9.635,-1.438,5.865,0.0,5.865
3.36,2.635,9.484,-2.108,5.865,-1.245,9.58,1.868,5.865,-1.438,9.635,-1.438,5.865,0.0,5.865
3.365,2.587,9.484,-2.108,5.865,-1.198,9.58,1.868,5.865,-1.438,9.635,-1.582,5.865,0.0,5.865
3.37,2.491,9.484,-2.156,5.865,-1.198,9.58,1.916,5.865,-1.438,9.635,-1.582,5.865,5.865,5.865
3.375,2.635,9.58,-2.203,5.865,-1.245,9.628,1.964,5.865,-1.438,9.635,-1.582,5.865,5.865,5.865
3.38,2.539,9.628,-2.156,5.865,-1.198,9.676,1.916,5.865,-1.438,9.778,-1.438,0.0,5.865,5.865
3.3850000000000002,2.587,9.628,-2.108,5.865,-1.15,9.676,1.82,5.865,-1.438,9.778,-1.438,0.0,5.865,5.865
3.39,2.587,9.676,-2.06,-0.0,-1.15,9.676,1.82,5.865,-1.294,9.778,-1.438,0.0,5.865,0.0
3.395,2.539,9.772,-2.012,-0.0,-1.15,9.772,1.772,5.865,-1.438,9.922,-1.438,0.0,5.865,0.0
3.4,2.491,9.867,-1.964,-0.0,-1.15,9.867,1.724,5.865,-1.294,9.922,-1.294,0.0,5.865,0.0
3.4050000000000002,2.491,9.963,-1.868,-0.0,-1.102,9.915,1.629,5.865,-1.294,9.922,-1.294,0.0,5.865,0.0
3.41,2.443,10.059,-1.82,-0.0,-1.006,10.011,1.581,5.865,-1.15,10.066,-1.15,0.0,5.865,0.0
3.415,2.491,10.155,-1.629,-0.0,-1.006,10.059,1.437,5.865,-1.15,10.066,-1.007,-5.865,5.865,0.0
3.42,2.443,10.251,-1.389,-0.0,-1.006,10.107,1.198,5.865,-1.15,10.066,-0.719,-5.865,5.865,0.0
3.4250000000000003,2.491,10.251,-1.198,5.865,-1.006,10.155,1.006,5.865,-1.15,10.066,-0.575,-5.865,5.865,5.865
3.43,2.539,10.346,-1.15,5.865,-1.054,10.299,0.91,5.865,-1.007,10.21,-0.575,-11.73,5.865,5.865
3.435,2.539,10.49,-1.054,5.865,-0.958,10.346,0.862,5.865,-1.007,10.354,-0.431,-17.595,5.865,5.865
3.44,2.539,10.538,-0.91,5.865,-1.006,10.442,0.719,5.865,-1.294,10.497,-0.288,-17.595,0.0,5.865
3.4450000000000003,2.73,10.682,-0.814,5.865,-1.102,10.49,0.623,5.865,-1.15,10.354,-0.288,-17.595,0.0,5.865
3.45,2.635,10.442,-0.766,5.865,-1.054,10.394,0.527,5.865,-1.007,10.21,-0.144,-23.46,0.0,5.865
3.455,2.73,10.299,-0.623,5.865,-1.054,10.299,0.383,5.865,-1.007,10.354,-0.0,-23.46,-5.865,0.0
3.46,2.73,10.203,-0.144,-0.0,-1.15,10.203,-0.048,5.865,-1.15,10.354,0.431,-29.326,-5.865,0.0
3.465,2.826,10.107,0.0,-5.865,-1.15,10.251,-0.144,0.0,-1.007,10.497,0.719,-29.326,-11.73,-5.865
3.47,2.778,10.011,0.623,-11.73,-1.15,10.346,-0.719,-5.865,-0.575,11.36,1.582,-23.46,-11.73,-11.73
3.475,2.347,9.867,1.916,-11.73,-1.006,10.251,-1.82,-11.73,-0.863,10.785,2.588,-17.595,-17.595,-17.595
3.48,2.491,10.107,1.293,-23.46,-0.814,10.346,-1.677,-17.595,-0.575,10.785,2.013,-11.73,-23.46,-23.46
3.485,2.347,10.203,1.581,-23.46,-0.527,10.442,-1.82,-23.46,-0.288,10.497,2.013,-5.865,-29.326,-23.46
3.49,2.443,10.442,1.485,-23.46,-0.479,10.299,-1.677,-23.46,0.0,10.066,2.013,0.0,-29.326,-23.46
3.495,2.443,10.346,1.15,-23.46,-0.479,10.203,-1.437,-23.46,-0.288,10.066,1.726,-5.865,-41.056,-23.46
3.5,2.443,10.011,1.15,-23.46,-0.719,10.011,-1.341,-23.46,-0.719,10.066,1.726,-5.865,-46.921,-23.46
3.505,2.539,9.772,1.15,-23.46,-0.814,9.915,-1.389,-23.46,-0.719,10.066,1.726,-5.865,-52.786,-23.46
3.5100000000000002,2.395,9.628,1.054,-23.46,-0.719,9.82,-1.341,-23.46,-0.575,10.21,1.582,-5.865,-58.651,-23.46
3.515,2.299,9.436,0.862,-29.326,-0.575,9.724,-1.102,-29.326,-0.431,10.066,1.294,-5.865,-58.651,-23.46
3.52,2.347,9.245,0.623,-29.326,-0.623,9.58,-0.862,-29.326,-0.575,9.922,1.007,0.0,-64.516,-29.326
3.525,2.347,9.245,0.24,-29.326,-0.671,9.484,-0.527,-29.326,-0.575,9.778,0.575,0.0,-70.381,-29.326
3.5300000000000002,2.395,9.149,-0.335,-29.326,-0.766,9.388,0.0,-29.326,-0.719,9.635,-0.144,5.865,-76.246,-29.326
3.535,2.443,9.101,-1.054,-23.46,-0.862,9.245,0.719,-23.46,-1.007,9.347,-0.863,5.865,-76.246,-23.46
3.54,2.539,9.101,-1.916,-23.46,-1.006,9.149,1.533,-23.46,-1.15,9.203,-1.726,5.865,-82.111,-23.46
3.545,2.539,9.101,-2.826,-23.46,-1.15,9.101,2.443,-23.46,-1.438,8.916,-2.588,5.865,-82.111,-23.46
3.5500000000000003,2.682,9.053,-3.88,-17.595,-1.293,9.005,3.449,-23.46,-1.726,8.772,-3.739,5.865,-82.111,-23.46
3.555,2.778,9.053,-5.03,-17.595,-1.533,8.957,4.598,-17.595,-2.013,8.628,-4.889,5.865,-82.111,-17.595
3.56,2.778,8.957,-6.323,-17.595,-1.677,8.814,5.892,-17.595,-2.301,8.484,-6.183,0.0,-76.246,-17.595
3.565,2.874,8.814,-7.712,-11.73,-1.868,8.67,7.281,-11.73,-2.876,8.484,-7.621,-5.865,-70.381,-11.73
3.5700000000000003,3.018,8.622,-9.053,-11.73,-2.251,8.574,8.622,-11.73,-3.307,8.484,-8.772,-5.865,-64.516,-11.73
3.575,2.826,8.43,-10.251,-11.73,-2.299,8.526,9.772,-11.73,-3.451,8.484,-9.922,-11.73,-58.651,-5.865
3.58,2.826,8.43,-11.209,-5.865,-2.251,8.574,10.778,0.0,-3.595,8.628,-10.785,-11.73,-46.921,0.0
3.585,2.97,8.526,-11.927,-0.0,-2.539,8.718,11.592,0.0,-3.883,9.059,-11.36,-17.595,-29.326,5.865
3.59,2.97,8.574,-12.454,5.865,-2.682,8.957,12.119,5.865,-4.17,9.491,-11.792,-11.73,-17.595,5.865
3.595,2.97,8.67,-12.694,5.865,-2.778,9.101,12.406,5.865,-4.17,9.635,-11.935,-11.73,5.865,5.865
3.6,2.874,8.718,-12.55,5.865,-2.635,9.197,12.31,11.73,-4.026,9.491,-11.648,-5.865,23.46,5.865
3.605,2.778,8.622,-12.119,5.865,-2.443,9.053,11.975,11.73,-3.595,9.347,-11.216,0.0,41.056,5.865
3.61,2.539,8.383,-11.496,5.865,-2.156,8.814,11.352,11.73,-3.164,9.059,-10.641,0.0,58.651,5.865
3.615,2.299,8.095,-10.921,5.865,-1.868,8.574,10.778,11.73,-3.02,8.772,-10.066,5.865,70.381,11.73
3.62,2.395,8.047,-10.203,11.73,-1.868,8.43,10.107,11.73,-3.02,8.484,-9.347,5.865,87.977,11.73
3.625,2.443,7.999,-9.245,17.595,-1.82,8.239,9.245,17.595,-2.732,8.197,-8.34,5.865,99.707,23.46
3.63,2.491,7.856,-8.047,23.46,-1.677,7.951,8.095,23.46,-2.301,7.909,-7.046,5.865,111.437,23.46
3.6350000000000002,2.443,7.664,-6.706,23.46,-1.485,7.76,6.802,23.46,-1.869,7.765,-5.752,5.865,123.167,23.46
3.64,2.299,7.52,-5.221,23.46,-1.245,7.616,5.317,23.46,-1.582,7.765,-4.314,5.865,129.032,23.46
3.645,2.203,7.377,-3.688,17.595,-0.958,7.616,3.784,23.46,-1.15,7.909,-2.876,5.865,129.032,23.46
3.65,2.06,7.377,-2.251,17.595,-0.623,7.664,2.347,23.46,-0.431,8.053,-1.438,5.865,134.897,23.46
3.6550000000000002,1.964,7.52,-0.766,17.595,-0.287,7.712,0.91,23.46,0.144,8.053,-0.0,5.865,129.032,23.46
3.66,1.964,7.616,0.575,23.46,-0.096,7.808,-0.479,29.326,0.431,8.197,1.438,17.595,129.032,23.46
3.665,2.012,7.76,1.868,29.326,0.0,7.904,-1.772,29.326,0.719,8.34,2.732,17.595,117.302,29.326
3.67,2.012,7.999,3.066,29.326,0.048,8.095,-3.018,29.326,0.719,8.484,3.883,23.46,111.437,29.326
3.6750000000000003,2.06,8.335,4.072,35.191,0.096,8.383,-4.072,35.191,0.863,8.772,4.745,23.46,99.707,35.191
3.68,2.108,8.862,4.934,35.191,0.144,8.766,-4.982,35.191,0.863,9.059,5.608,23.46,87.977,35.191
3.685,2.203,9.341,5.556,35.191,0.048,9.149,-5.7,41.056,0.863,9.347,6.327,23.46,76.246,35.191
3.69,2.251,9.772,6.035,35.191,0.048,9.532,-6.179,35.191,1.007,9.635,6.759,23.46,58.651,35.191
3.6950000000000003,2.299,10.107,6.514,29.326,0.0,9.82,-6.706,35.191,0.863,9.778,7.19,23.46,46.921,29.326
3.7,2.395,10.442,6.85,23.46,-0.048,10.059,-7.041,29.326,0.863,9.922,7.478,17.595,35.191,23.46
3.705,2.395,10.538,6.898,23.46,-0.048,10.203,-7.185,23.46,0.863,10.066,7.478,5.865,17.595,17.595
3.71,2.395,10.586,6.898,11.73,-0.048,10.251,-7.185,17.595,0.719,9.922,7.334,5.865,0.0,11.73
3.715,2.347,10.538,6.658,5.865,-0.096,10.203,-6.993,11.73,0.719,9.922,7.19,5.865,-11.73,5.865
3.72,2.347,10.49,6.323,-0.0,-0.096,10.107,-6.658,5.865,0.575,9.635,6.759,0.0,-23.46,0.0
3.725,2.347,10.346,5.892,-5.865,-0.144,9.963,-6.227,0.0,0.575,9.491,6.327,-5.865,-35.191,-5.865
3.73,2.299,10.107,5.317,-5.865,-0.192,9.772,-5.7,-5.865,0.431,9.347,5.608,-11.73,-46.921,-11.73
3.735,2.299,9.867,4.694,-11.73,-0.192,9.532,-5.03,-11.73,0.431,9.059,5.033,-17.595,-58.651,-17.595
3.74,2.108,9.58,3.928,-17.595,-0.096,9.341,-4.263,-17.595,0.431,9.203,4.026,-23.46,-70.381,-17.595
3.745,2.06,9.149,2.826,-23.46,-0.192,9.245,-3.209,-17.595,0.0,9.347,3.02,-29.326,-82.111,-23.46
3.75,2.06,9.053,1.772,-23.46,-0.335,9.197,-2.156,-23.46,-0.288,9.347,1.869,-29.326,-87.977,-23.46
3.755,1.964,8.909,0.527,-23.46,-0.431,9.149,-0.958,-23.46,-0.719,9.491,0.575,-29.326,-93.842,-23.46
3.7600000000000002,2.108,8.814,-0.91,-23.46,-0.671,9.101,0.479,-23.46,-1.007,9.491,-0.863,-23.46,-93.842,-23.46
3.765,2.203,8.909,-2.347,-23.46,-0.814,9.197,1.916,-23.46,-1.15,9.635,-2.445,-17.595,-93.842,-23.46
3.77,2.012,9.101,-3.928,-23.46,-0.814,9.436,3.497,-23.46,-1.438,10.066,-3.883,-17.595,-93.842,-23.46
3.775,2.156,9.484,-5.317,-17.595,-1.054,9.772,4.886,-17.595,-1.869,10.21,-5.177,-11.73,-87.977,-17.595
3.7800000000000002,2.347,9.963,-6.514,-11.73,-1.389,10.155,6.131,-11.73,-2.301,10.497,-6.327,-11.73,-82.111,-11.73
3.785,2.491,10.299,-7.568,-5.865,-1.629,10.442,7.185,-5.865,-2.588,10.641,-7.19,-11.73,-76.246,-5.865
3.79,2.682,10.49,-8.383,-5.865,-1.82,10.634,7.999,-5.865,-2.876,10.785,-7.909,-5.865,-64.516,-5.865
3.795,2.874,10.586,-9.005,-5.865,-2.108,10.778,8.67,-5.865,-3.164,10.785,-8.484,-5.865,-58.651,-5.865
3.8000000000000003,2.922,10.682,-9.436,-5.865,-2.203,10.825,9.101,0.0,-3.164,10.785,-8.916,-5.865,-46.921,-5.865
3.805,2.922,10.634,-9.724,-5.865,-2.156,10.778,9.436,-5.865,-3.164,10.641,-9.059,-5.865,-35.191,-5.865
3.81,2.874,10.442,-9.772,-5.865,-2.156,10.586,9.532,-5.865,-3.164,10.497,-9.059,-11.73,-23.46,-5.865
3.815,2.874,10.203,-9.628,-5.865,-2.156,10.394,9.388,-5.865,-3.02,10.354,-8.916,-11.73,-17.595,-5.865
3.8200000000000003,2.874,9.915,-9.293,-5.865,-2.108,10.107,9.101,-5.865,-2.876,10.066,-8.484,-11.73,-5.865,-5.865
3.825,2.778,9.436,-8.957,-5.865,-2.012,9.724,8.766,-5.865,-2.732,9.778,-8.197,-11.73,5.865,-5.865
3.83,2.635,9.245,-8.574,-5.865,-1.82,9.484,8.383,0.0,-2.732,9.491,-7.765,-11.73,17.595,-5.865
3.835,2.922,9.101,-8.047,-5.865,-1.916,9.341,7.904,0.0,-2.732,9.347,-7.19,-5.865,23.46,0.0
3.84,2.874,8.814,-7.377,-5.865,-2.012,9.101,7.281,0.0,-2.588,9.059,-6.471,-5.865,35.191,-5.865
3.845,2.73,8.574,-6.658,-0.0,-1.772,8.814,6.562,0.0,-2.301,8.916,-5.896,-5.865,41.056,0.0
3.85,2.826,8.239,-5.94,-0.0,-1.677,8.526,5.844,0.0,-2.013,8.628,-5.177,-5.865,46.921,0.0
3.855,2.682,7.999,-5.125,-0.0,-1.485,8.287,5.03,5.865,-1.726,8.484,-4.314,-5.865,46.921,0.0
3.86,2.635,7.76,-4.359,-0.0,-1.341,8.047,4.215,5.865,-1.438,8.34,-3.595,0.0,52.786,0.0
3.865,2.539,7.664,-3.64,5.865,-1.198,7.951,3.545,5.865,-1.294,8.197,-2.876,0.0,52.786,5.865
3.87,2.491,7.616,-3.018,5.865,-1.102,7.904,2.922,11.73,-1.294,8.197,-2.301,0.0,52.786,11.73
3.875,2.491,7.712,-2.443,11.73,-1.15,7.904,2.347,11.73,-1.294,8.197,-1.726,5.865,52.786,11.73
3.88,2.587,7.856,-1.964,17.595,-1.102,7.951,1.868,17.595,-1.15,8.197,-1.294,5.865,52.786,17.595
3.8850000000000002,2.587,7.951,-1.629,17.595,-1.054,7.999,1.437,23.46,-1.15,8.197,-1.007,5.865,52.786,17.595
3.89,2.635,8.047,-1.198,17.595,-1.102,8.047,1.054,23.46,-1.15,8.197,-0.431,5.865,52.786,17.595
3.895,2.587,8.143,-0.766,17.595,-1.054,8.143,0.623,23.46,-1.007,8.197,-0.144,5.865,46.921,23.46
3.9,2.539,8.239,-0.431,23.46,-0.958,8.191,0.287,23.46,-0.863,8.34,0.144,5.865,46.921,17.595
3.9050000000000002,2.491,8.335,-0.096,17.595,-0.862,8.287,-0.048,23.46,-0.719,8.34,0.431,5.865,46.921,23.46
3.91,2.443,8.383,0.048,23.46,-0.814,8.335,-0.192,23.46,-0.719,8.484,0.575,5.865,41.056,23.46
3.915,2.395,8.526,0.096,23.46,-0.766,8.478,-0.287,23.46,-0.719,8.628,0.575,5.865,41.056,23.46
3.92,2.395,8.766,0.144,23.46,-0.766,8.718,-0.335,23.46,-0.719,8.916,0.719,5.865,35.191,23.46
3.9250000000000003,2.443,9.005,0.144,23.46,-0.814,8.957,-0.335,23.46,-0.719,9.059,0.719,0.0,29.326,23.46
3.93,2.491,9.101,0.096,23.46,-0.862,9.101,-0.335,23.46,-0.863,9.203,0.575,0.0,29.326,23.46
3.935,2.491,9.101,0.0,23.46,-0.862,9.101,-0.24,23.46,-0.863,9.203,0.575,0.0,23.46,17.595
3.94,2.491,9.053,-0.144,17.595,-0.958,9.053,-0.096,17.595,-1.007,9.203,0.431,0.0,23.46,17.595
3.9450000000000003,2.443,9.005,-0.287,11.73,-0.91,9.053,0.048,17.595,-0.863,9.203,0.288,0.0,17.595,11.73
3.95,2.347,9.436,-0.335,11.73,-0.766,9.245,0.096,11.73,-0.719,9.347,0.288,0.0,17.595,11.73
3.955,2.73,10.873,-0.623,5.865,-0.862,10.011,0.287,11.73,-0.719,9.778,-0.288,0.0,11.73,5.865
3.96,3.305,13.22,-1.245,-0.0,-1.245,11.783,0.91,5.865,-1.007,11.073,-0.863,-11.73,5.865,0.0
3.9650000000000003,3.209,12.885,-1.245,-11.73,-1.533,12.598,1.054,-5.865,-1.582,11.935,-0.431,-29.326,0.0,-11.73
3.97,2.491,10.825,-0.575,-23.46,-1.245,11.496,0.431,-17.595,-1.438,12.511,0.431,-35.191,-5.865,-23.46
3.975,1.677,10.634,0.623,-23.46,-0.814,12.215,-0.719,-23.46,-1.726,13.517,1.438,-29.326,-5.865,-23.46
3.98,2.922,11.113,-0.623,-17.595,-0.862,10.538,-0.048,-17.595,0.431,8.484,-1.007,-17.595,0.0,-11.73
3.985,2.73,9.963,-2.539,-17.595,-0.575,9.532,2.156,-17.595,-0.575,9.635,-2.157,-23.46,-5.865,-23.46
3.99,2.06,9.628,-2.778,-29.326,-1.054,10.011,2.539,-23.46,-2.445,10.929,-2.013,-29.326,-11.73,-23.46
3.995,2.826,10.059,-2.539,-17.595,-1.772,10.442,2.299,-17.595,-2.157,11.073,-1.869,-23.46,-5.865,-11.73
4.0,2.682,9.915,-2.491,-5.865,-1.389,10.394,2.251,-5.865,-1.294,10.785,-1.869,-17.595,0.0,-5.865
4.005,2.491,9.772,-2.539,-0.0,-1.006,10.203,2.299,0.0,-1.15,10.641,-2.013,-17.595,0.0,0.0
4.01,2.682,9.963,-2.73,-0.0,-1.15,10.251,2.491,5.865,-1.438,10.497,-2.157,-11.73,0.0,0.0
4.015,2.826,9.724,-2.97,-0.0,-1.485,10.107,2.682,0.0,-2.013,10.354,-2.445,-5.865,0.0,0.0
4.0200000000000005,2.826,9.436,-3.209,-0.0,-1.581,9.82,2.922,5.865,-1.869,10.21,-2.732,-5.865,0.0,5.865
4.025,2.874,9.436,-3.401,-0.0,-1.581,9.724,3.114,5.865,-1.869,10.066,-2.876,0.0,5.865,5.865
4.03,2.874,9.341,-3.401,-0.0,-1.581,9.58,3.161,0.0,-1.869,9.778,-2.732,5.865,5.865,0.0
4.035,2.826,9.245,-3.401,-5.865,-1.533,9.484,3.114,0.0,-1.726,9.778,-2.732,5.865,5.865,0.0
4.04,2.73,9.245,-3.401,-5.865,-1.437,9.484,3.114,0.0,-1.582,9.635,-2.732,5.865,11.73,-5.865
4.045,2.73,8.909,-3.353,-5.865,-1.389,9.293,3.114,0.0,-1.582,9.491,-2.588,5.865,11.73,-5.865
4.05,2.539,9.101,-3.066,-0.0,-1.245,9.197,2.922,0.0,-1.438,9.347,-2.445,5.865,11.73,0.0
4.055,2.73,9.197,-2.874,-0.0,-1.245,9.293,2.682,0.0,-1.438,9.347,-2.301,5.865,11.73,0.0
4.0600000000000005,2.682,9.101,-2.778,-0.0,-1.245,9.245,2.539,0.0,-1.438,9.347,-2.157,5.865,11.73,0.0
4.065,2.635,9.149,-2.682,-5.865,-1.245,9.245,2.443,0.0,-1.438,9.347,-2.013,5.865,11.73,0.0
4.07,2.587,9.053,-2.491,-5.865,-1.198,9.149,2.299,0.0,-1.438,9.203,-1.869,5.865,11.73,-5.865
4.075,2.539,8.957,-2.347,-5.865,-1.15,9.053,2.108,0.0,-1.294,9.203,-1.726,5.865,11.73,0.0
4.08,2.491,8.957,-2.203,-0.0,-1.054,9.053,2.012,0.0,-1.15,9.059,-1.582,5.865,11.73,0.0
4.085,2.443,8.957,-2.156,-0.0,-1.006,9.005,1.964,0.0,-1.15,9.059,-1.582,5.865,11.73,0.0
4.09,2.539,9.005,-2.108,-0.0,-1.006,9.005,1.868,5.865,-1.15,8.916,-1.438,5.865,11.73,0.0
4.095,2.539,9.053,-2.108,-0.0,-1.054,9.005,1.868,5.865,-1.15,8.916,-1.438,5.865,11.73,0.0
4.1,2.539,9.101,-2.108,-0.0,-1.054,9.053,1.868,5.865,-1.15,9.059,-1.438,5.865,5.865,0.0
4.105,2.539,9.005,-2.108,-0.0,-1.054,9.005,1.868,0.0,-1.15,8.916,-1.438,5.865,5.865,0.0
4.11,2.491,8.909,-2.06,-0.0,-1.006,8.957,1.868,0.0,-1.15,8.916,-1.438,5.865,5.865,0.0
4.115,2.443,8.862,-2.108,-0.0,-0.958,8.909,1.868,5.865,-1.007,8.916,-1.438,5.865,5.865,0.0
4.12,2.491,8.862,-2.108,-0.0,-1.006,8.909,1.868,5.865,-1.15,8.916,-1.582,5.865,0.0,0.0
4.125,2.491,8.909,-2.203,-0.0,-1.054,8.957,1.964,5.865,-1.294,9.059,-1.726,0.0,0.0,0.0
4.13,2.491,8.909,-2.347,-0.0,-1.054,8.957,2.06,5.865,-1.294,9.059,-1.726,0.0,0.0,0.0
4.135,2.491,8.862,-2.347,5.865,-1.102,8.957,2.156,5.865,-1.294,9.059,-1.726,0.0,0.0,5.865
4.14,2.539,8.814,-2.347,5.865,-1.102,8.862,2.108,5.865,-1.294,8.916,-1.726,0.0,0.0,0.0
4.1450000000000005,2.539,8.67,-2.395,-0.0,-1.15,8.766,2.156,5.865,-1.294,8.916,-1.869,0.0,0.0,5.865
4.15,2.539,8.67,-2.491,-0.0,-1.102,8.766,2.251,5.865,-1.294,8.916,-1.869,0.0,0.0,0.0
4.155,2.539,8.718,-2.539,5.865,-1.102,8.814,2.299,5.865,-1.294,8.916,-2.013,0.0,0.0,5.865
4.16,2.587,8.814,-2.539,-0.0,-1.198,8.862,2.251,5.865,-1.438,9.059,-2.013,0.0,0.0,5.865
4.165,2.635,8.909,-2.491,5.865,-1.245,8.957,2.251,5.865,-1.438,9.203,-1.869,0.0,0.0,5.865
4.17,2.682,9.005,-2.491,5.865,-1.245,9.053,2.251,5.865,-1.438,9.203,-1.869,0.0,0.0,5.865
4.175,2.73,9.101,-2.491,5.865,-1.341,9.149,2.251,5.865,-1.438,9.203,-1.869,0.0,0.0,5.865
4.18,2.73,9.101,-2.491,5.865,-1.341,9.149,2.251,5.865,-1.438,9.203,-1.869,0.0,0.0,5.865
4.1850000000000005,2.682,9.053,-2.491,5.865,-1.293,9.101,2.251,5.865,-1.438,9.203,-1.869,0.0,0.0,5.865
4.19,2.682,9.053,-2.491,5.865,-1.293,9.101,2.251,5.865,-1.438,9.203,-1.869,0.0,0.0,5.865
4.195,2.682,9.005,-2.491,5.865,-1.293,9.101,2.251,5.865,-1.438,9.203,-1.869,0.0,0.0,5.865
4.2,2.682,9.053,-2.539,5.865,-1.245,9.149,2.299,5.865,-1.438,9.347,-2.013,0.0,0.0,5.865
4.205,2.682,9.149,-2.539,5.865,-1.245,9.197,2.299,5.865,-1.438,9.347,-1.869,0.0,0.0,5.865
4.21,2.682,9.197,-2.491,5.865,-1.245,9.245,2.299,11.73,-1.438,9.347,-1.869,0.0,0.0,5.865
4.215,2.635,9.245,-2.539,5.865,-1.245,9.293,2.299,11.73,-1.294,9.491,-1.869,0.0,0.0,5.865
4.22,2.587,9.341,-2.539,5.865,-1.15,9.436,2.299,11.73,-1.294,9.635,-2.013,0.0,0.0,5.865
4.225,2.587,9.388,-2.539,5.865,-1.15,9.484,2.299,11.73,-1.438,9.635,-2.013,0.0,0.0,5.865
4.23,2.587,9.341,-2.635,5.865,-1.198,9.484,2.347,11.73,-1.438,9.635,-2.013,0.0,0.0,5.865
4.235,2.587,9.341,-2.682,5.865,-1.198,9.484,2.443,11.73,-1.438,9.635,-2.157,0.0,0.0,11.73
4.24,2.635,9.341,-2.73,11.73,-1.198,9.532,2.491,11.73,-1.438,9.778,-2.157,0.0,0.0,11.73
4.245,2.635,9.436,-2.778,5.865,-1.245,9.58,2.491,11.73,-1.438,9.778,-2.157,0.0,0.0,11.73
4.25,2.682,9.532,-2.778,11.73,-1.245,9.628,2.539,11.73,-1.438,9.778,-2.157,5.865,0.0,11.73
4.255,2.826,9.532,-2.587,5.865,-1.293,9.724,2.443,11.73,-1.582,10.066,-2.013,5.865,0.0,5.865
4.26,2.73,9.772,-2.682,5.865,-1.341,9.867,2.443,5.865,-1.582,10.21,-2.013,5.865,0.0,5.865
4.265,2.778,9.963,-2.587,5.865,-1.389,10.107,2.299,5.865,-1.582,10.641,-1.869,5.865,0.0,5.865
4.2700000000000005,2.73,10.203,-2.347,-0.0,-1.293,10.49,2.156,5.865,-1.582,10.785,-1.726,5.865,0.0,0.0
4.275,2.778,10.346,-2.347,-0.0,-1.389,10.538,2.06,5.865,-1.438,11.216,-1.726,5.865,0.0,0.0
4.28,2.874,10.634,-2.299,-0.0,-1.293,10.73,1.964,0.0,-1.438,10.641,-1.726,17.595,0.0,0.0
4.285,2.778,10.73,-2.491,-5.865,-1.293,10.682,2.251,0.0,-1.294,10.497,-2.013,17.595,0.0,-5.865
4.29,2.778,10.682,-2.826,-5.865,-1.293,10.634,2.491,-5.865,-1.438,10.497,-2.301,5.865,0.0,-5.865
4.295,2.73,10.634,-2.874,-5.865,-1.341,10.586,2.635,-5.865,-1.582,10.497,-2.301,5.865,0.0,-5.865
4.3,2.778,10.586,-2.874,-5.865,-1.341,10.49,2.635,-5.865,-1.582,10.354,-2.301,5.865,0.0,-5.865
4.305,2.826,10.49,-2.778,-5.865,-1.389,10.49,2.539,-5.865,-1.582,10.497,-2.157,5.865,0.0,-5.865
4.3100000000000005,2.826,10.49,-2.682,-5.865,-1.389,10.538,2.443,-5.865,-1.582,10.641,-2.013,5.865,0.0,-5.865
4.315,2.826,10.442,-2.587,-5.865,-1.389,10.538,2.347,-5.865,-1.582,10.641,-2.013,5.865,0.0,-5.865
4.32,2.778,10.346,-2.539,-5.865,-1.341,10.49,2.299,-5.865,-1.582,10.641,-2.013,5.865,0.0,-5.865
4.325,2.778,10.251,-2.491,-5.865,-1.341,10.394,2.251,-5.865,-1.582,10.641,-1.869,5.865,0.0,-11.73
4.33,2.73,10.155,-2.491,-11.73,-1.341,10.346,2.251,-5.865,-1.582,10.497,-1.869,5.865,0.0,-11.73
4.335,2.73,10.011,-2.539,-11.73,-1.341,10.251,2.299,-5.865,-1.582,10.354,-2.013,5.865,0.0,-11.73
4.34,2.778,9.915,-2.539,-11.73,-1.389,10.107,2.299,-11.73,-1.582,10.21,-2.013,5.865,0.0,-11.73
4.345,2.778,9.772,-2.587,-11.73,-1.389,9.915,2.347,-5.865,-1.582,10.066,-2.013,5.865,0.0,-11.73
4.3500000000000005,2.778,9.628,-2.587,-11.73,-1.389,9.772,2.347,-5.865,-1.726,9.922,-2.013,5.865,0.0,-11.73
4.355,2.73,9.436,-2.587,-11.73,-1.437,9.628,2.347,-5.865,-1.726,9.635,-2.013,5.865,0.0,-11.73
4.36,2.682,9.293,-2.491,-11.73,-1.341,9.436,2.299,-11.73,-1.582,9.491,-1.869,5.865,0.0,-11.73
4.365,2.682,9.149,-2.443,-11.73,-1.293,9.293,2.203,-5.865,-1.438,9.491,-1.869,5.865,0.0,-11.73
4.37,2.73,9.149,-2.347,-5.865,-1.341,9.293,2.156,-5.865,-1.582,9.491,-1.726,5.865,0.0,-11.73
4.375,2.73,9.197,-2.299,-11.73,-1.341,9.341,2.06,-5.865,-1.582,9.491,-1.726,17.595,0.0,-11.73
4.38,2.73,9.149,-2.347,-11.73,-1.341,9.293,2.06,-5.865,-1.582,9.347,-1.726,17.595,0.0,-11.73
4.385,2.635,9.053,-2.395,-11.73,-1.293,9.197,2.156,-5.865,-1.438,9.347,-1.869,17.595,0.0,-11.73
4.39,2.635,8.957,-2.443,-11.73,-1.245,9.101,2.203,-5.865,-1.438,9.203,-1.869,17.595,0.0,-11.73
4.3950000000000005,2.635,9.005,-2.443,-11.73,-1.198,9.053,2.203,-5.865,-1.438,9.203,-1.869,17.595,5.865,-11.73
4.4,2.682,9.053,-2.395,-5.865,-1.245,9.101,2.203,-5.865,-1.294,9.059,-1.869,17.595,0.0,-5.865
4.405,2.682,9.005,-2.443,-5.865,-1.198,9.053,2.203,-5.865,-1.438,9.059,-1.869,17.595,0.0,-5.865
4.41,2.682,8.909,-2.491,-5.865,-1.245,8.957,2.251,-5.865,-1.438,8.916,-1.869,17.595,0.0,-5.865
4.415,2.682,8.814,-2.491,-5.865,-1.293,8.862,2.251,-5.865,-1.438,8.916,-1.869,5.865,0.0,-5.865
4.42,2.635,8.718,-2.491,-5.865,-1.245,8.766,2.251,-5.865,-1.438,8.772,-1.869,5.865,0.0,-5.865
4.425,2.635,8.718,-2.491,-5.865,-1.245,8.766,2.299,-5.865,-1.438,8.772,-1.869,5.865,0.0,-5.865
4.43,2.635,8.718,-2.539,-5.865,-1.245,8.766,2.299,-5.865,-1.438,8.772,-2.013,5.865,0.0,-5.865
4.4350000000000005,2.587,8.574,-2.539,-5.865,-1.198,8.67,2.299,-5.865,-1.294,8.628,-2.013,5.865,0.0,-5.865
4.44,2.587,8.526,-2.587,-5.865,-1.198,8.574,2.347,-5.865,-1.294,8.484,-2.013,5.865,0.0,-5.865
4.445,2.539,8.43,-2.635,-5.865,-1.15,8.478,2.395,-5.865,-1.294,8.484,-2.013,5.865,0.0,-5.865
4.45,2.539,8.478,-2.682,-5.865,-1.15,8.478,2.443,-5.865,-1.438,8.484,-2.157,5.865,0.0,-5.865
4.455,2.587,8.43,-2.682,-5.865,-1.198,8.478,2.443,-5.865,-1.438,8.484,-2.157,5.865,0.0,-5.865
4.46,2.587,8.383,-2.682,-5.865,-1.198,8.383,2.491,0.0,-1.438,8.34,-2.013,5.865,0.0,-5.865
4.465,2.587,8.239,-2.587,-5.865,-1.245,8.287,2.395,0.0,-1.438,8.34,-2.013,5.865,0.0,-5.865
4.47,2.587,7.999,-2.587,-5.865,-1.245,8.095,2.395,0.0,-1.438,8.053,-2.013,5.865,0.0,0.0
4.4750000000000005,2.491,7.951,-2.635,-5.865,-1.15,7.999,2.395,0.0,-1.294,8.053,-2.013,5.865,0.0,-5.865
4.48,2.587,7.76,-2.635,-5.865,-1.15,7.904,2.395,0.0,-1.294,7.909,-2.157,5.865,0.0,-5.865
4.485,2.347,7.425,-2.682,-5.865,-1.102,7.568,2.443,0.0,-1.294,7.621,-2.157,5.865,0.0,0.0
4.49,2.347,7.281,-2.778,-0.0,-1.006,7.377,2.587,0.0,-1.15,7.334,-2.301,5.865,0.0,0.0
4.495,2.443,7.041,-2.97,-0.0,-1.102,7.137,2.73,5.865,-1.294,7.046,-2.445,5.865,5.865,0.0
4.5,2.395,6.85,-3.018,5.865,-1.102,6.946,2.826,5.865,-1.438,6.902,-2.445,0.0,5.865,5.865
4.505,2.347,6.658,-3.114,5.865,-1.102,6.754,2.874,5.865,-1.438,6.759,-2.588,0.0,5.865,5.865
4.51,2.347,6.467,-3.161,11.73,-1.102,6.61,2.922,11.73,-1.294,6.759,-2.588,0.0,5.865,11.73
4.515,2.251,6.371,-3.161,11.73,-1.006,6.514,2.97,11.73,-1.294,6.615,-2.588,0.0,11.73,11.73
4.5200000000000005,2.251,6.227,-3.114,17.595,-0.958,6.371,2.922,17.595,-1.294,6.471,-2.588,0.0,11.73,11.73
4.525,2.156,6.083,-3.161,17.595,-0.91,6.227,2.922,17.595,-1.15,6.327,-2.588,5.865,11.73,17.595
4.53,2.06,5.94,-3.209,23.46,-0.766,6.131,3.018,23.46,-1.007,6.183,-2.732,5.865,11.73,23.46
4.535,1.964,5.844,-3.353,23.46,-0.719,6.035,3.114,23.46,-1.007,6.183,-2.876,5.865,17.595,23.46
4.54,1.868,5.892,-3.449,29.326,-0.671,5.988,3.257,29.326,-1.007,6.183,-3.02,5.865,17.595,35.191
4.545,1.82,5.892,-3.593,35.191,-0.623,6.083,3.401,35.191,-1.007,6.327,-3.02,5.865,17.595,35.191
4.55,1.82,6.035,-3.593,41.056,-0.671,6.227,3.401,41.056,-1.15,6.471,-3.02,5.865,23.46,41.056
4.555,1.964,6.275,-3.497,46.921,-0.671,6.371,3.305,46.921,-1.007,6.471,-3.02,5.865,23.46,46.921
4.5600000000000005,1.916,6.467,-3.593,52.786,-0.623,6.467,3.401,52.786,-0.719,6.615,-3.02,5.865,29.326,52.786
4.565,1.868,6.514,-3.64,52.786,-0.575,6.61,3.449,52.786,-0.719,6.615,-3.02,5.865,29.326,52.786
4.57,1.868,6.562,-3.449,52.786,-0.575,6.562,3.305,52.786,-0.863,6.471,-2.876,5.865,29.326,52.786
4.575,1.82,6.61,-3.353,52.786,-0.527,6.61,3.161,52.786,-0.719,6.615,-2.732,0.0,29.326,52.786
4.58,4.886,18.681,-2.874,52.786,-0.431,7.951,3.209,58.651,-4.026,63.847,14.955,0.0,29.326,52.786
4.585,6.993,17.388,9.867,46.921,-6.083,15.472,-12.646,46.921,2.301,9.922,7.19,29.326,35.191,52.786
4.59,0.527,18.633,-2.635,-0.0,5.125,13.891,1.629,17.595,10.354,8.34,-4.889,29.326,23.46,-23.46
4.595,2.635,20.932,-3.497,-70.381,1.198,16.765,4.263,-58.651,-3.739,12.798,-0.719,-29.326,-29.326,-87.977
4.6000000000000005,3.401,14.226,0.623,-87.977,-4.119,15.089,-0.766,-87.977,-6.759,17.544,2.013,-87.977,-46.921,-87.977
4.605,3.784,12.406,0.719,-58.651,-3.353,14.418,-1.198,-64.516,-2.445,15.243,1.007,-87.977,-23.46,-46.921
4.61,2.108,11.879,-0.192,-29.326,-0.766,13.029,-0.144,-29.326,0.144,13.661,0.288,-70.381,-11.73,-17.595
4.615,1.677,10.586,-0.192,-11.73,0.24,11.736,0.048,-11.73,0.431,12.367,0.144,-58.651,-11.73,-11.73
4.62,2.443,9.58,-0.814,-0.0,-0.479,10.538,0.479,0.0,-0.719,11.36,-0.575,-46.921,-17.595,11.73
4.625,3.114,9.341,-1.964,23.46,-1.485,10.107,1.533,17.595,-2.157,10.929,-1.726,-35.191,-23.46,29.326
4.63,3.401,9.101,-3.018,35.191,-2.347,9.867,2.635,35.191,-3.307,10.929,-2.732,-23.46,-23.46,41.056
4.635,3.64,9.005,-3.88,46.921,-2.682,9.82,3.497,46.921,-3.307,10.785,-3.451,-11.73,-17.595,46.921
4.64,3.736,9.149,-4.215,41.056,-2.682,9.772,3.928,41.056,-3.164,10.21,-3.595,0.0,-11.73,41.056
4.6450000000000005,3.64,8.909,-4.311,35.191,-2.635,9.388,3.976,35.191,-3.02,9.491,-3.739,5.865,-5.865,29.326
4.65,3.497,8.43,-4.598,23.46,-2.395,8.718,4.311,29.326,-2.732,8.484,-4.026,5.865,0.0,17.595
4.655,3.257,7.568,-4.694,11.73,-2.203,7.951,4.455,17.595,-2.445,7.909,-4.026,17.595,0.0,11.73
4.66,3.018,6.802,-4.359,5.865,-1.868,7.281,4.119,11.73,-2.013,7.334,-3.883,23.46,5.865,5.865
4.665,2.682,6.562,-4.503,-0.0,-1.437,6.754,4.263,5.865,-1.582,6.759,-3.883,29.326,5.865,0.0
4.67,2.395,6.323,-4.311,-0.0,-1.15,6.514,4.167,5.865,-1.438,6.759,-3.595,29.326,11.73,0.0
4.675,2.395,6.227,-3.832,-0.0,-1.198,6.514,3.736,5.865,-1.582,6.902,-3.02,29.326,11.73,0.0
4.68,2.395,6.419,-3.257,-0.0,-1.198,6.706,3.161,5.865,-1.438,7.334,-2.588,35.191,17.595,0.0
4.6850000000000005,2.299,6.898,-2.778,-0.0,-1.054,7.089,2.682,5.865,-1.294,7.765,-2.013,41.056,17.595,0.0
4.69,2.156,7.52,-2.395,-0.0,-0.814,7.664,2.251,0.0,-0.863,8.053,-1.726,41.056,17.595,0.0
4.695,1.916,8.047,-2.06,-5.865,-0.575,8.095,1.916,0.0,-0.575,8.484,-1.438,41.056,17.595,-5.865
4.7,1.82,8.478,-1.677,-5.865,-0.383,8.478,1.533,-5.865,-0.431,8.628,-1.007,41.056,17.595,-5.865
4.705,1.868,8.814,-1.389,-11.73,-0.287,8.766,1.198,-5.865,-0.288,8.772,-0.719,41.056,17.595,-11.73
4.71,1.916,9.101,-1.15,-11.73,-0.335,8.957,0.958,-5.865,-0.288,8.916,-0.575,41.056,17.595,-11.73
4.715,1.916,9.341,-1.054,-5.865,-0.287,9.149,0.862,-5.865,-0.288,9.059,-0.575,41.056,11.73,-11.73
4.72,1.916,9.58,-1.102,-5.865,-0.287,9.341,0.862,-5.865,-0.288,9.059,-0.575,35.191,11.73,-5.865
4.7250000000000005,2.06,9.82,-1.102,-5.865,-0.431,9.484,0.862,-5.865,-0.431,9.203,-0.431,29.326,5.865,-5.865
4.73,2.156,9.915,-1.102,-5.865,-0.575,9.676,0.862,-5.865,-0.575,9.347,-0.575,23.46,5.865,-5.865
4.735,2.156,9.724,-1.245,-5.865,-0.671,9.532,1.006,-5.865,-0.719,9.347,-0.719,17.595,0.0,0.0
4.74,2.251,10.059,-1.389,-0.0,-0.623,9.724,1.15,0.0,-0.719,9.491,-0.863,5.865,0.0,0.0
4.745,2.395,10.011,-1.533,-0.0,-0.814,9.82,1.245,0.0,-0.863,9.635,-1.007,5.865,-5.865,0.0
4.75,2.443,9.82,-1.724,-0.0,-0.958,9.724,1.437,0.0,-1.15,9.491,-1.15,0.0,-5.865,0.0
4.755,2.443,9.724,-1.916,-0.0,-0.958,9.628,1.629,0.0,-1.15,9.491,-1.438,-5.865,-5.865,0.0
4.76,2.491,9.436,-2.108,-0.0,-1.054,9.436,1.868,0.0,-1.15,9.347,-1.582,-5.865,-5.865,0.0
4.765,2.491,9.341,-2.347,-0.0,-1.102,9.341,2.108,0.0,-1.294,9.203,-1.869,-5.865,-5.865,0.0
4.7700000000000005,2.587,9.245,-2.491,-0.0,-1.15,9.293,2.251,0.0,-1.438,9.347,-2.013,-11.73,-5.865,0.0
4.775,2.587,9.149,-2.635,-0.0,-1.245,9.245,2.395,0.0,-1.582,9.491,-2.013,-11.73,-5.865,0.0
4.78,2.635,9.197,-2.778,-0.0,-1.293,9.341,2.491,0.0,-1.582,9.635,-2.157,-11.73,-5.865,0.0
4.785,2.587,9.149,-2.778,-0.0,-1.293,9.341,2.587,0.0,-1.582,9.635,-2.157,-11.73,-5.865,0.0
4.79,2.539,9.053,-2.778,-0.0,-1.198,9.341,2.539,0.0,-1.438,9.635,-2.157,-5.865,-5.865,0.0
4.795,2.491,9.197,-2.778,-0.0,-1.15,9.436,2.539,0.0,-1.294,9.778,-2.157,-5.865,0.0,0.0
4.8,2.539,9.388,-2.73,-0.0,-1.15,9.58,2.491,0.0,-1.294,10.066,-2.157,0.0,0.0,0.0
4.805,2.443,9.532,-2.682,-0.0,-1.102,9.724,2.491,0.0,-1.294,10.066,-2.157,0.0,0.0,0.0
4.8100000000000005,2.443,9.58,-2.682,-5.865,-1.006,9.772,2.443,0.0,-1.15,10.066,-2.013,0.0,0.0,0.0
4.815,2.443,9.628,-2.635,-0.0,-1.006,9.82,2.395,0.0,-1.15,9.922,-2.013,5.865,0.0,-5.865
4.82,2.443,9.628,-2.539,-5.865,-1.006,9.772,2.347,0.0,-1.15,9.922,-2.013,5.865,0.0,-5.865
4.825,2.395,9.628,-2.539,-5.865,-0.958,9.724,2.299,-5.865,-1.15,9.922,-1.869,5.865,0.0,-5.865
4.83,2.347,9.628,-2.491,-5.865,-0.91,9.724,2.251,-5.865,-1.007,9.778,-1.869,5.865,0.0,-5.865
4.835,2.299,9.628,-2.491,-5.865,-0.862,9.724,2.251,-5.865,-1.007,9.778,-1.869,5.865,0.0,-5.865
4.84,2.299,9.628,-2.491,-5.865,-0.862,9.676,2.251,-5.865,-1.007,9.778,-1.869,5.865,0.0,-5.865
4.845,2.251,9.58,-2.443,-5.865,-0.814,9.628,2.203,-5.865,-1.007,9.635,-1.869,5.865,0.0,-5.865
4.8500000000000005,2.251,9.532,-2.395,-11.73,-0.814,9.58,2.156,-5.865,-0.863,9.491,-1.726,5.865,0.0,-11.73
4.855,2.251,9.388,-2.395,-11.73,-0.766,9.436,2.156,-5.865,-1.007,9.347,-1.869,5.865,0.0,-5.865
4.86,2.251,9.293,-2.395,-11.73,-0.814,9.341,2.203,-5.865,-1.007,9.203,-1.869,5.865,0.0,-11.73
4.865,2.156,9.149,-2.395,-5.865,-0.766,9.197,2.156,-5.865,-0.863,9.203,-1.869,5.865,0.0,-5.865
4.87,2.251,9.053,-2.395,-5.865,-0.766,9.101,2.203,-5.865,-0.863,9.059,-1.869,0.0,0.0,-5.865
4.875,2.251,9.005,-2.395,-5.865,-0.814,9.053,2.156,-5.865,-1.007,9.059,-1.869,0.0,-5.865,-5.865
4.88,2.251,8.957,-2.395,-5.865,-0.814,9.053,2.156,-5.865,-0.863,9.059,-1.869,0.0,-5.865,-5.865
4.885,2.203,8.957,-2.491,-5.865,-0.766,9.005,2.251,-5.865,-0.863,9.059,-1.869,0.0,-5.865,-5.865
4.89,2.108,8.909,-2.587,-5.865,-0.671,8.957,2.347,-5.865,-0.863,9.059,-2.013,0.0,-5.865,-5.865
4.8950000000000005,2.06,8.909,-2.635,-5.865,-0.623,8.957,2.395,-5.865,-0.719,9.059,-2.013,0.0,-5.865,-5.865
4.9,2.06,8.909,-2.682,-5.865,-0.623,8.957,2.443,-5.865,-0.719,9.059,-2.157,0.0,-5.865,0.0
4.905,2.012,8.862,-2.73,-5.865,-0.575,8.957,2.491,0.0,-0.719,9.059,-2.157,-5.865,-5.865,0.0
4.91,1.964,8.909,-2.73,-0.0,-0.575,9.005,2.491,0.0,-0.719,9.059,-2.157,-5.865,-5.865,0.0
4.915,1.964,8.957,-2.73,-0.0,-0.527,9.053,2.491,0.0,-0.719,9.203,-2.157,-5.865,-5.865,0.0
4.92,1.868,9.005,-2.73,-0.0,-0.479,9.101,2.491,0.0,-0.719,9.203,-2.157,-5.865,-5.865,0.0
4.925,1.868,9.053,-2.73,-0.0,-0.431,9.149,2.491,0.0,-0.575,9.347,-2.157,-5.865,-5.865,0.0
4.93,1.82,9.101,-2.73,-0.0,-0.383,9.245,2.491,0.0,-0.575,9.347,-2.157,-5.865,-5.865,0.0
4.9350000000000005,1.772,9.197,-2.682,-5.865,-0.335,9.293,2.443,0.0,-0.431,9.347,-2.013,-5.865,-5.865,-5.865
4.94,1.724,9.245,-2.682,-5.865,-0.24,9.341,2.443,0.0,-0.431,9.491,-2.013,-5.865,-5.865,-5.865
4.945,1.629,9.245,-2.682,-5.865,-0.192,9.341,2.443,-5.865,-0.288,9.491,-2.157,-5.865,-5.865,-5.865
4.95,1.533,9.245,-2.73,-5.865,-0.144,9.388,2.491,0.0,-0.288,9.491,-2.157,-5.865,-5.865,-5.865
4.955,1.581,9.245,-2.826,-5.865,-0.144,9.388,2.539,-5.865,-0.288,9.491,-2.157,-5.865,-5.865,-5.865
4.96,1.533,9.341,-2.778,-5.865,-0.144,9.484,2.539,0.0,-0.288,9.635,-2.013,-5.865,-5.865,-5.865
4.965,1.581,9.388,-2.443,-5.865,-0.096,9.532,2.251,0.0,-0.144,9.635,-1.726,-5.865,-5.865,-5.865
4.97,1.581,9.388,-2.203,-5.865,-0.096,9.532,2.012,-5.865,0.0,9.635,-1.582,0.0,-5.865,-5.865
4.9750000000000005,1.485,9.293,-2.012,-5.865,0.048,9.436,1.82,-5.865,0.144,9.635,-1.438,0.0,-11.73,-5.865
4.98,1.293,9.436,-2.108,-11.73,0.192,9.484,1.82,-5.865,0.288,9.491,-1.582,0.0,-11.73,-11.73
4.985,1.389,9.293,-2.108,-11.73,0.24,9.436,1.868,-5.865,0.288,9.635,-1.438,0.0,-11.73,-11.73
4.99,1.341,9.341,-2.012,-11.73,0.24,9.484,1.82,-5.865,0.144,9.635,-1.438,0.0,-17.595,-11.73
4.995,1.341,9.341,-1.916,-11.73,0.192,9.484,1.724,-11.73,0.144,9.635,-1.438,0.0,-17.595,-11.73
5.0,1.341,9.436,-1.964,-11.73,0.24,9.532,1.724,-11.73,0.431,9.922,-1.438,0.0,-17.595,-11.73
5.005,1.198,9.58,-1.916,-11.73,0.431,9.82,1.724,-11.73,0.431,9.778,-1.294,0.0,-23.46,-11.73
5.01,1.245,9.532,-1.964,-11.73,0.431,9.676,1.677,-11.73,0.719,9.922,-1.438,-5.865,-23.46,-11.73
5.015,1.054,9.388,-1.677,-5.865,0.575,9.58,1.533,-11.73,0.575,9.491,-1.007,0.0,-29.326,-11.73
5.0200000000000005,1.437,9.197,-1.389,-5.865,0.383,9.341,1.245,-5.865,0.575,9.347,-0.863,0.0,-29.326,-11.73
5.025,1.341,9.053,-1.198,-11.73,0.335,9.245,1.006,-11.73,0.575,9.347,-0.575,0.0,-35.191,-11.73
5.03,1.198,9.053,-1.054,-17.595,0.479,9.245,0.862,-17.595,0.719,9.491,-0.431,0.0,-41.056,-17.595
5.035,1.102,9.197,-0.958,-17.595,0.623,9.341,0.766,-17.595,1.007,9.491,-0.431,0.0,-41.056,-17.595
5.04,0.958,9.388,-0.862,-17.595,0.814,9.484,0.671,-17.595,1.15,9.635,-0.288,0.0,-46.921,-17.595
5.045,0.862,9.532,-0.719,-17.595,0.91,9.628,0.527,-17.595,1.15,9.778,-0.144,0.0,-52.786,-17.595
5.05,0.91,9.676,-0.527,-17.595,0.91,9.724,0.335,-17.595,1.15,9.778,-0.0,0.0,-58.651,-17.595
5.055,0.91,9.772,-0.287,-17.595,0.91,9.82,0.144,-17.595,1.294,9.778,0.288,0.0,-64.516,-17.595
5.0600000000000005,0.862,9.82,-0.096,-17.595,1.006,9.867,-0.048,-17.595,1.294,9.922,0.431,0.0,-70.381,-23.46
5.065,0.719,9.772,0.144,-23.46,1.102,9.915,-0.287,-23.46,1.438,10.066,0.719,0.0,-76.246,-23.46
5.07,0.623,9.772,0.335,-23.46,1.245,9.915,-0.479,-23.46,1.726,10.066,0.863,0.0,-82.111,-23.46
5.075,0.479,9.772,0.527,-23.46,1.389,9.963,-0.671,-29.326,1.869,10.066,1.007,0.0,-87.977,-29.326
5.08,0.383,9.82,0.623,-29.326,1.533,9.963,-0.766,-29.326,2.013,10.21,1.15,0.0,-93.842,-29.326
5.085,0.24,9.82,0.671,-29.326,1.677,10.011,-0.814,-29.326,2.157,10.21,1.15,0.0,-99.707,-35.191
5.09,0.144,9.915,0.671,-29.326,1.82,10.107,-0.814,-29.326,2.445,10.354,1.15,0.0,-111.437,-35.191
5.095,0.048,10.011,0.623,-29.326,1.964,10.203,-0.766,-29.326,2.588,10.497,1.007,0.0,-117.302,-35.191
5.1000000000000005,0.0,10.107,0.575,-29.326,2.012,10.299,-0.719,-35.191,2.588,10.497,0.863,5.865,-129.032,-35.191
5.105,-0.096,10.203,0.383,-35.191,2.108,10.394,-0.527,-35.191,2.732,10.641,0.575,5.865,-134.897,-35.191
5.11,-0.144,10.394,0.144,-35.191,2.156,10.538,-0.287,-35.191,2.732,10.497,0.288,5.865,-146.628,-35.191
5.115,-0.144,10.538,-0.048,-35.191,2.203,10.586,-0.048,-35.191,2.876,10.497,0.144,5.865,-152.493,-41.056
5.12,-0.192,10.586,-0.24,-35.191,2.299,10.634,0.144,-41.056,3.02,10.497,-0.144,5.865,-164.223,-41.056
5.125,-0.335,10.538,-0.479,-41.056,2.395,10.586,0.383,-41.056,3.02,10.497,-0.431,0.0,-170.088,-46.921
5.13,-0.431,10.442,-0.958,-46.921,2.443,10.538,0.862,-46.921,3.02,10.354,-1.007,0.0,-181.818,-46.921
5.135,-0.527,10.394,-1.533,-46.921,2.491,10.442,1.389,-46.921,3.02,10.21,-1.582,0.0,-187.683,-46.921
5.14,-0.575,10.203,-2.108,-46.921,2.491,10.251,1.964,-46.921,2.876,9.922,-2.301,-5.865,-199.413,-52.786
5.1450000000000005,-0.527,9.963,-2.826,-46.921,2.395,10.011,2.682,-52.786,2.588,9.778,-3.02,-5.865,-205.279,-52.786
5.15,-0.527,9.628,-3.688,-46.921,2.251,9.772,3.545,-52.786,2.301,9.635,-4.026,-5.865,-211.144,-52.786
5.155,-0.527,9.388,-4.694,-46.921,2.06,9.58,4.503,-52.786,1.869,9.491,-5.033,-11.73,-217.009,-52.786
5.16,-0.527,9.293,-5.748,-46.921,1.916,9.484,5.604,-52.786,1.726,9.635,-6.04,-11.73,-217.009,-52.786
5.165,-0.527,9.293,-6.85,-46.921,1.82,9.58,6.658,-46.921,1.294,9.635,-7.046,-11.73,-217.009,-46.921
5.17,-0.383,9.245,-7.951,-41.056,1.533,9.628,7.76,-46.921,0.719,9.778,-8.053,-11.73,-211.144,-46.921
5.175,-0.144,9.197,-8.957,-41.056,1.102,9.58,8.766,-46.921,0.144,9.635,-9.059,-5.865,-205.279,-41.056
5.18,0.0,9.101,-9.772,-41.056,0.862,9.484,9.58,-41.056,-0.144,9.635,-9.778,-5.865,-199.413,-41.056
5.1850000000000005,0.096,8.909,-10.49,-41.056,0.671,9.388,10.299,-41.056,-0.431,9.635,-10.354,-5.865,-187.683,-46.921
5.19,0.096,8.622,-11.017,-41.056,0.527,9.245,10.825,-41.056,-0.575,9.635,-10.641,-5.865,-181.818,-46.921
5.195,0.144,8.383,-11.304,-41.056,0.431,9.101,11.161,-41.056,-0.719,9.491,-10.929,0.0,-164.223,-41.056
5.2,0.192,8.191,-11.448,-35.191,0.383,8.909,11.304,-41.056,-0.719,9.347,-10.929,5.865,-152.493,-41.056
5.205,0.24,7.999,-11.4,-35.191,0.335,8.718,11.257,-35.191,-0.719,9.203,-10.785,5.865,-140.762,-35.191
5.21,0.287,7.856,-11.304,-29.326,0.335,8.574,11.161,-29.326,-0.719,9.203,-10.641,23.46,-123.167,-29.326
5.215,0.335,7.904,-11.017,-23.46,0.335,8.574,10.873,-29.326,-0.719,9.059,-10.354,29.326,-111.437,-23.46
5.22,0.383,8.047,-10.634,-17.595,0.335,8.574,10.538,-23.46,-0.575,8.916,-9.922,35.191,-99.707,-17.595
5.2250000000000005,0.623,8.287,-10.346,-11.73,0.24,8.67,10.155,-11.73,-0.431,8.916,-9.635,41.056,-87.977,-11.73
5.23,0.479,8.67,-10.107,-11.73,0.24,8.909,9.915,-11.73,-0.719,9.059,-9.347,41.056,-76.246,-11.73
5.235,0.623,8.909,-9.963,-5.865,0.144,9.053,9.724,-5.865,-0.863,8.916,-9.203,41.056,-70.381,-5.865
5.24,0.862,9.053,-9.58,-5.865,-0.048,9.101,9.436,-5.865,-1.007,8.916,-8.772,35.191,-58.651,-5.865
5.245,0.91,9.053,-9.293,-5.865,-0.048,9.053,9.101,0.0,-0.863,8.772,-8.484,35.191,-46.921,-5.865
5.25,0.958,9.053,-8.862,-5.865,-0.048,9.005,8.67,-5.865,-0.719,8.628,-8.053,29.326,-35.191,-5.865
5.255,0.766,9.005,-8.478,-5.865,0.096,8.909,8.335,-5.865,-0.575,8.628,-7.765,23.46,-29.326,-5.865
5.26,0.719,9.005,-8.287,-5.865,0.192,8.957,8.095,-5.865,-0.719,8.772,-7.621,17.595,-23.46,-5.865
5.265,0.719,8.957,-8.287,-5.865,0.096,9.005,8.047,0.0,-1.007,8.772,-7.621,5.865,-11.73,0.0
5.2700000000000005,0.862,8.957,-8.335,-0.0,-0.096,8.957,8.095,0.0,-1.15,8.772,-7.621,5.865,0.0,0.0
5.275,1.054,8.909,-8.335,-0.0,-0.335,8.909,8.095,5.865,-1.438,8.484,-7.621,5.865,11.73,0.0
5.28,1.198,8.766,-8.047,-0.0,-0.431,8.766,7.856,0.0,-1.582,8.34,-7.19,5.865,23.46,0.0
5.285,1.245,8.526,-7.377,-5.865,-0.479,8.526,7.281,0.0,-1.294,8.197,-6.471,0.0,35.191,-5.865
5.29,1.341,8.287,-6.371,-11.73,-0.383,8.335,6.371,-5.865,-0.719,8.053,-5.321,-5.865,46.921,-11.73
5.295,1.389,7.808,-4.551,-17.595,0.048,7.951,4.742,-11.73,0.863,7.621,-3.307,-5.865,46.921,-17.595
5.3,1.198,6.946,-2.156,-17.595,0.814,7.329,2.443,-17.595,2.013,7.334,-1.007,-5.865,46.921,-17.595
5.305,0.862,5.988,0.0,-23.46,1.485,6.658,0.24,-17.595,3.02,7.334,1.007,-5.865,35.191,-23.46
5.3100000000000005,0.671,5.269,1.868,-23.46,1.916,6.323,-1.677,-23.46,3.451,7.765,2.876,0.0,23.46,-23.46
5.315,0.575,5.125,3.545,-17.595,2.156,6.419,-3.401,-17.595,3.739,8.484,4.314,17.595,0.0,-17.595
5.32,0.287,5.556,4.455,-5.865,2.347,6.85,-4.455,-11.73,3.739,8.916,5.033,35.191,-23.46,-5.865
5.325,0.192,6.419,4.742,5.865,2.347,7.52,-4.838,5.865,3.164,9.491,5.177,52.786,-41.056,11.73
5.33,0.479,7.52,4.646,23.46,1.916,8.239,-4.838,23.46,2.588,9.635,5.033,70.381,-58.651,29.326
5.335,0.719,8.622,4.263,35.191,1.533,8.957,-4.503,35.191,2.013,9.635,4.458,82.111,-70.381,35.191
5.34,0.91,9.58,3.784,41.056,1.198,9.532,-4.024,41.056,1.582,9.635,4.026,93.842,-87.977,41.056
5.345,1.245,10.49,3.593,41.056,0.862,10.011,-3.784,41.056,1.438,9.635,4.026,87.977,-93.842,35.191
5.3500000000000005,1.341,11.209,3.545,29.326,0.766,10.442,-3.688,29.326,1.438,9.635,3.883,82.111,-105.572,23.46
5.355,1.15,11.592,3.64,17.595,1.006,10.682,-3.736,17.595,1.869,9.635,4.026,70.381,-117.302,11.73
5.36,1.102,11.831,3.88,5.865,1.245,10.825,-4.024,5.865,2.445,9.635,4.314,58.651,-129.032,0.0
5.365,0.671,11.879,4.263,-5.865,1.724,10.921,-4.311,-5.865,2.876,9.778,4.602,41.056,-140.762,-11.73
5.37,0.479,11.831,4.455,-11.73,2.012,10.969,-4.551,-11.73,3.164,9.922,4.745,23.46,-158.358,-11.73
5.375,0.575,11.831,4.598,-17.595,2.012,10.969,-4.646,-17.595,3.164,10.066,4.745,5.865,-175.953,-23.46
5.38,0.383,11.736,4.455,-23.46,2.108,11.065,-4.551,-23.46,3.164,10.354,4.458,-5.865,-187.683,-35.191
5.385,0.192,11.64,4.024,-35.191,2.156,11.161,-4.167,-35.191,3.02,10.497,3.883,-17.595,-205.279,-41.056
5.39,0.048,11.783,3.449,-46.921,2.203,11.209,-3.593,-46.921,2.876,10.497,3.307,-23.46,-217.009,-52.786
5.3950000000000005,-0.096,11.927,2.73,-52.786,2.251,11.257,-2.874,-58.651,2.876,10.354,2.445,-35.191,-234.604,-64.516
5.4,-0.335,11.879,1.916,-64.516,2.347,11.209,-1.964,-70.381,2.732,10.21,1.582,-41.056,-240.469,-70.381
5.405,-0.575,11.544,1.15,-70.381,2.443,11.065,-1.198,-76.246,2.732,10.21,0.719,-52.786,-252.199,-82.111
5.41,-0.766,11.017,0.527,-82.111,2.539,10.778,-0.479,-82.111,2.732,10.21,-0.0,-64.516,-258.064,-87.977
5.415,-0.958,10.394,-0.096,-82.111,2.587,10.49,0.144,-87.977,2.732,10.354,-0.575,-70.381,-263.93,-87.977
5.42,-1.15,9.82,-0.623,-82.111,2.682,10.203,0.719,-87.977,2.588,10.497,-1.15,-70.381,-269.795,-87.977
5.425,-1.245,9.341,-1.293,-87.977,2.73,10.059,1.341,-87.977,2.588,10.641,-1.726,-64.516,-269.795,-87.977
5.43,-1.389,9.053,-2.012,-82.111,2.778,9.915,2.06,-87.977,2.588,10.785,-2.588,-58.651,-269.795,-87.977
5.4350000000000005,-1.341,8.909,-2.97,-82.111,2.73,9.82,2.922,-87.977,2.445,10.641,-3.595,-46.921,-269.795,-87.977
5.44,-1.293,8.862,-4.119,-82.111,2.635,9.772,4.024,-82.111,2.301,10.497,-4.745,-41.056,-269.795,-82.111
5.445,-1.15,8.957,-5.365,-76.246,2.395,9.724,5.269,-82.111,1.869,10.497,-6.04,-29.326,-269.795,-82.111
5.45,-1.054,9.053,-6.754,-70.381,2.156,9.82,6.658,-76.246,1.438,10.354,-7.19,-17.595,-263.93,-70.381
5.455,-0.958,9.149,-7.999,-64.516,1.916,9.772,7.904,-70.381,1.007,10.066,-8.34,-5.865,-258.064,-70.381
5.46,-0.527,9.101,-9.149,-64.516,1.485,9.58,9.053,-64.516,0.431,9.635,-9.491,0.0,-246.334,-64.516
5.465,-0.192,8.957,-10.251,-58.651,1.054,9.293,10.155,-64.516,0.0,9.059,-10.497,0.0,-240.469,-64.516
5.47,0.0,8.67,-11.257,-58.651,0.814,8.957,11.113,-64.516,-0.288,8.628,-11.36,0.0,-228.739,-58.651
5.4750000000000005,0.192,8.191,-12.119,-58.651,0.575,8.478,11.975,-58.651,-0.575,8.197,-12.223,0.0,-222.874,-58.651
5.48,0.096,7.568,-12.933,-52.786,0.431,7.999,12.789,-58.651,-1.007,8.053,-12.942,0.0,-211.144,-52.786
5.485,0.431,7.137,-13.699,-46.921,-0.048,7.664,13.556,-52.786,-1.869,7.765,-13.517,0.0,-193.548,-46.921
5.49,1.15,6.993,-14.083,-41.056,-0.766,7.52,13.939,-46.921,-2.445,7.765,-13.661,5.865,-181.818,-46.921
5.495,1.245,6.802,-14.37,-41.056,-1.102,7.472,14.131,-46.921,-2.732,8.053,-13.949,5.865,-164.223,-46.921
5.5,1.341,6.658,-14.61,-41.056,-1.15,7.472,14.418,-41.056,-2.876,8.197,-13.949,5.865,-140.762,-46.921
5.505,1.916,6.802,-14.514,-46.921,-1.677,7.52,14.37,-46.921,-3.451,8.053,-13.661,23.46,-123.167,-46.921
5.51,1.916,6.898,-14.274,-52.786,-1.868,7.472,14.083,-52.786,-3.451,7.765,-13.517,29.326,-105.572,-52.786
5.515,1.629,6.946,-14.274,-46.921,-1.581,7.425,14.035,-52.786,-3.307,7.478,-13.517,41.056,-82.111,-52.786
5.5200000000000005,2.012,7.041,-13.939,-41.056,-1.724,7.185,13.747,-46.921,-3.164,6.759,-12.942,41.056,-58.651,-46.921
5.525,2.108,6.946,-13.412,-35.191,-1.772,6.898,13.22,-41.056,-3.164,6.615,-12.511,35.191,-41.056,-35.191
5.53,2.203,6.658,-12.837,-29.326,-1.868,6.706,12.694,-29.326,-3.307,6.471,-11.792,35.191,-29.326,-23.46
5.535,2.491,6.706,-12.071,-23.46,-2.108,6.706,11.975,-23.46,-3.451,6.615,-11.073,29.326,-11.73,-23.46
5.54,2.587,6.802,-11.304,-17.595,-2.156,6.85,11.209,-17.595,-3.307,6.902,-10.354,29.326,5.865,-17.595
5.545,2.587,6.946,-10.394,-17.595,-2.108,7.041,10.346,-17.595,-3.164,7.19,-9.347,23.46,23.46,-17.595
5.55,2.635,7.089,-9.341,-11.73,-1.964,7.185,9.293,-11.73,-2.588,7.19,-8.34,23.46,35.191,-17.595
5.555,2.491,7.041,-8.191,-11.73,-1.581,7.185,8.191,-11.73,-2.013,7.334,-7.046,23.46,46.921,-11.73
5.5600000000000005,2.395,7.185,-6.61,-11.73,-1.245,7.377,6.658,-11.73,-1.294,7.621,-5.608,23.46,52.786,-11.73
5.565,2.299,7.233,-5.221,-11.73,-0.862,7.377,5.269,-5.865,-0.575,7.334,-4.314,23.46,58.651,-11.73
5.57,2.156,7.089,-3.593,-11.73,-0.527,7.281,3.736,-11.73,0.0,7.478,-2.588,23.46,52.786,-11.73
5.575,2.012,6.85,-1.916,-5.865,-0.192,7.185,2.06,-5.865,0.431,7.765,-0.863,23.46,46.921,-5.865
5.58,1.964,6.562,-0.287,-0.0,0.048,7.137,0.383,0.0,0.719,7.909,0.719,29.326,41.056,0.0
5.585,1.772,6.61,1.245,5.865,0.24,7.233,-1.102,5.865,1.15,8.197,2.157,35.191,29.326,5.865
5.59,1.677,6.898,2.443,5.865,0.479,7.472,-2.443,11.73,1.438,8.484,3.307,46.921,17.595,11.73
5.595,1.533,7.377,3.401,11.73,0.671,7.904,-3.449,11.73,1.582,8.916,4.17,52.786,5.865,11.73
5.6000000000000005,1.389,7.951,4.215,17.595,0.814,8.43,-4.311,17.595,1.726,9.491,4.889,64.516,-5.865,23.46
5.605,1.293,8.622,4.742,23.46,0.91,8.862,-4.886,23.46,1.726,9.635,5.321,70.381,-23.46,23.46
5.61,1.437,9.245,5.03,29.326,0.91,9.484,-5.173,29.326,1.582,10.066,5.608,76.246,-35.191,29.326
5.615,1.677,10.155,5.509,29.326,0.623,9.963,-5.652,29.326,1.438,10.066,6.04,76.246,-46.921,23.46
5.62,1.389,10.778,5.556,23.46,0.814,10.442,-5.844,23.46,1.726,10.354,6.04,76.246,-58.651,23.46
5.625,1.485,11.352,5.556,17.595,0.91,10.778,-5.748,17.595,1.726,10.21,6.04,76.246,-70.381,11.73
5.63,1.293,11.831,5.509,5.865,1.006,11.065,-5.748,5.865,1.869,10.21,6.04,64.516,-82.111,0.0
5.635,1.15,12.119,5.413,-5.865,1.15,11.209,-5.7,-5.865,2.157,10.21,5.752,52.786,-99.707,-11.73
5.64,1.006,12.31,5.221,-17.595,1.389,11.304,-5.509,-17.595,2.445,10.066,5.608,41.056,-111.437,-17.595
5.6450000000000005,0.766,12.502,5.077,-23.46,1.629,11.352,-5.269,-23.46,2.588,10.066,5.321,23.46,-129.032,-29.326
5.65,0.623,12.694,4.79,-35.191,1.772,11.544,-5.03,-35.191,2.732,10.066,5.033,5.865,-140.762,-41.056
5.655,0.431,12.646,4.455,-41.056,1.964,11.64,-4.646,-46.921,2.876,10.354,4.602,-11.73,-158.358,-52.786
5.66,0.096,12.454,4.167,-52.786,2.156,11.592,-4.311,-58.651,3.02,10.497,4.314,-29.326,-170.088,-64.516
5.665,-0.192,12.262,3.928,-64.516,2.347,11.496,-4.024,-64.516,3.164,10.21,4.026,-41.056,-181.818,-70.381
5.67,-0.431,11.879,3.593,-76.246,2.587,11.209,-3.688,-76.246,3.451,10.21,3.595,-58.651,-193.548,-82.111
5.675,-0.766,11.352,3.209,-82.111,2.826,10.921,-3.257,-87.977,3.595,10.066,3.02,-70.381,-205.279,-87.977
5.68,-1.102,10.778,2.682,-93.842,3.066,10.634,-2.73,-93.842,3.595,10.21,2.445,-76.246,-217.009,-99.707
5.6850000000000005,-1.389,10.251,2.156,-99.707,3.257,10.394,-2.156,-99.707,3.595,10.354,1.869,-82.111,-228.739,-105.572
5.69,-1.629,9.724,1.629,-105.572,3.401,10.203,-1.629,-105.572,3.595,10.497,1.294,-82.111,-234.604,-105.572
5.695,-1.868,9.245,1.054,-105.572,3.497,10.011,-1.054,-111.437,3.595,10.785,0.863,-76.246,-240.469,-111.437
5.7,-2.108,8.67,0.431,-105.572,3.593,9.82,-0.431,-111.437,3.451,10.929,0.144,-64.516,-240.469,-111.437
5.705,-2.251,8.239,-0.287,-105.572,3.593,9.628,0.287,-111.437,3.307,10.929,-0.575,-52.786,-246.334,-111.437
5.71,-2.299,7.951,-1.054,-105.572,3.593,9.388,1.006,-111.437,3.307,10.785,-1.294,-29.326,-240.469,-111.437
5.715,-2.347,7.904,-1.82,-99.707,3.64,9.197,1.772,-105.572,3.164,10.497,-2.013,-11.73,-240.469,-105.572
5.72,-2.395,7.904,-2.587,-93.842,3.593,9.101,2.539,-105.572,3.164,10.21,-2.732,5.865,-234.604,-99.707
5.7250000000000005,-2.108,8.143,-3.209,-87.977,3.353,9.149,3.161,-93.842,2.876,10.066,-3.307,23.46,-234.604,-93.842
5.73,-1.964,8.67,-3.88,-82.111,3.257,9.293,3.784,-87.977,2.876,9.778,-4.026,35.191,-228.739,-87.977
5.735,-1.82,9.149,-4.551,-76.246,3.161,9.484,4.455,-82.111,2.876,9.635,-4.745,41.056,-222.874,-76.246
5.74,-1.437,9.628,-5.125,-70.381,2.922,9.676,5.077,-76.246,2.588,9.491,-5.321,46.921,-222.874,-70.381
5.745,-1.293,10.107,-5.748,-64.516,2.682,9.915,5.652,-76.246,2.445,9.491,-5.896,41.056,-222.874,-70.381
5.75,-1.102,10.394,-6.419,-70.381,2.491,10.107,6.323,-70.381,2.157,9.491,-6.615,35.191,-222.874,-70.381
5.755,-0.91,10.442,-7.041,-70.381,2.251,10.107,6.946,-76.246,1.726,9.347,-7.19,29.326,-217.009,-76.246
5.76,-0.719,10.251,-7.616,-76.246,1.964,9.963,7.472,-76.246,1.294,9.059,-7.621,23.46,-217.009,-82.111
5.765,-0.575,9.963,-8.191,-82.111,1.677,9.676,8.047,-82.111,1.007,8.772,-8.197,5.865,-211.144,-87.977
5.7700000000000005,-0.431,9.484,-8.814,-87.977,1.485,9.341,8.67,-87.977,0.719,8.628,-8.772,5.865,-205.279,-87.977
5.775,-0.383,8.957,-9.436,-87.977,1.341,8.957,9.293,-93.842,0.575,8.34,-9.347,-5.865,-199.413,-93.842
5.78,-0.335,8.383,-9.963,-93.842,1.198,8.526,9.82,-93.842,0.288,8.197,-9.778,-5.865,-193.548,-93.842
5.785,-0.383,7.76,-10.442,-87.977,1.102,8.095,10.299,-93.842,-0.144,8.053,-10.21,-11.73,-181.818,-93.842
5.79,-0.335,7.041,-10.873,-82.111,0.91,7.664,10.73,-87.977,-0.431,7.909,-10.497,-11.73,-170.088,-82.111
5.795,-0.096,6.467,-11.161,-76.246,0.575,7.233,10.969,-82.111,-1.007,7.765,-10.641,-5.865,-152.493,-76.246
5.8,0.192,6.035,-11.4,-64.516,0.192,6.946,11.209,-70.381,-1.438,7.621,-10.929,0.0,-140.762,-64.516
5.805,0.479,5.892,-11.544,-58.651,-0.144,6.754,11.352,-64.516,-1.726,7.621,-10.929,5.865,-123.167,-58.651
5.8100000000000005,0.862,6.035,-11.544,-52.786,-0.479,6.802,11.4,-52.786,-2.013,7.478,-10.785,17.595,-105.572,-52.786
5.815,1.006,6.371,-11.304,-46.921,-0.623,6.946,11.161,-46.921,-1.869,7.478,-10.497,29.326,-87.977,-46.921
5.82,1.006,6.802,-10.969,-41.056,-0.575,7.185,10.825,-41.056,-1.869,7.765,-10.21,35.191,-76.246,-41.056
5.825,1.341,7.137,-10.586,-35.191,-0.766,7.472,10.442,-35.191,-2.013,7.909,-9.778,41.056,-58.651,-35.191
5.83,1.533,7.472,-10.011,-29.326,-0.91,7.712,9.867,-29.326,-2.013,8.053,-9.059,41.056,-46.921,-23.46
5.835,1.677,7.76,-9.388,-23.46,-1.006,7.951,9.245,-23.46,-2.013,8.197,-8.628,41.056,-29.326,-23.46
5.84,1.916,8.095,-8.957,-23.46,-1.15,8.239,8.814,-17.595,-2.013,8.34,-8.197,41.056,-17.595,-23.46
5.845,2.012,8.526,-8.526,-23.46,-1.198,8.526,8.383,-23.46,-1.869,8.916,-7.765,41.056,-11.73,-23.46
5.8500000000000005,2.251,9.005,-7.951,-23.46,-1.437,8.67,7.808,-23.46,-1.869,8.34,-7.19,41.056,0.0,-23.46
5.855,2.299,8.909,-7.377,-29.326,-1.15,8.814,7.233,-29.326,-1.438,8.484,-6.615,35.191,5.865,-23.46
5.86,2.012,8.622,-6.802,-29.326,-0.958,8.67,6.706,-29.326,-1.582,8.484,-6.04,29.326,11.73,-29.326
5.865,2.395,8.335,-6.083,-29.326,-1.102,8.383,5.988,-29.326,-1.294,8.053,-5.177,29.326,17.595,-35.191
5.87,2.012,8.047,-5.317,-29.326,-0.862,8.047,5.173,-29.326,-0.863,7.909,-4.458,23.46,23.46,-23.46
5.875,1.964,7.712,-4.694,-23.46,-0.527,7.808,4.598,-23.46,-0.719,7.765,-3.883,23.46,23.46,-23.46
5.88,2.108,7.568,-4.024,-17.595,-0.671,7.712,3.928,-17.595,-0.863,7.909,-3.164,23.46,23.46,-17.595
5.885,2.156,7.616,-3.209,-17.595,-0.766,7.808,3.114,-17.595,-0.863,8.197,-2.445,23.46,23.46,-17.595
5.89,2.203,7.616,-2.347,-17.595,-0.719,7.808,2.251,-11.73,-0.575,8.197,-1.438,23.46,23.46,-17.595
5.8950000000000005,1.964,7.425,-1.341,-11.73,-0.431,7.76,1.293,-11.73,-0.144,8.197,-0.575,23.46,17.595,-11.73
5.9,1.868,7.472,-0.527,-5.865,-0.192,7.856,0.479,-5.865,0.144,8.484,0.288,29.326,17.595,-5.865
5.905,2.012,7.856,0.335,-0.0,-0.192,8.095,-0.383,0.0,0.0,8.772,1.15,29.326,11.73,0.0
5.91,2.012,8.239,1.054,-0.0,-0.24,8.478,-1.15,0.0,0.0,8.916,1.869,35.191,5.865,0.0
5.915,2.012,8.478,1.82,-0.0,-0.192,8.67,-1.916,5.865,0.431,9.203,2.588,41.056,0.0,0.0
5.92,1.868,8.67,2.587,-0.0,0.048,8.909,-2.682,5.865,0.575,9.347,3.451,41.056,-11.73,5.865
5.925,1.916,9.053,3.449,5.865,0.096,9.149,-3.497,5.865,0.863,9.635,4.314,46.921,-17.595,5.865
5.93,1.916,9.532,4.359,5.865,0.24,9.532,-4.407,5.865,1.15,9.778,5.177,46.921,-29.326,5.865
5.9350000000000005,1.868,9.915,5.173,5.865,0.479,9.867,-5.269,5.865,1.582,10.21,5.896,46.921,-41.056,5.865
5.94,1.724,10.299,5.844,5.865,0.719,10.203,-5.94,5.865,2.013,10.641,6.327,46.921,-52.786,5.865
5.945,1.581,10.73,6.131,-0.0,0.91,10.73,-6.323,5.865,2.157,11.073,6.615,46.921,-70.381,0.0
5.95,1.485,11.352,6.179,-0.0,1.006,11.209,-6.419,0.0,2.157,11.36,6.615,46.921,-87.977,0.0
5.955,1.485,11.927,6.035,-5.865,1.006,11.592,-6.275,0.0,2.157,11.36,6.327,46.921,-105.572,-5.865
5.96,1.437,12.454,5.556,-5.865,1.054,11.879,-5.844,-5.865,2.013,11.216,5.752,41.056,-117.302,-11.73
5.965,1.389,12.885,4.934,-17.595,1.054,12.071,-5.221,-17.595,2.013,10.929,5.033,35.191,-134.897,-17.595
5.97,1.245,13.268,4.311,-23.46,1.15,12.215,-4.551,-29.326,2.013,10.785,4.314,23.46,-152.493,-35.191
5.9750000000000005,1.15,13.412,3.64,-35.191,1.198,12.215,-3.928,-35.191,2.157,10.641,3.739,5.865,-164.223,-41.056
5.98,1.054,13.316,3.209,-46.921,1.293,12.119,-3.353,-46.921,2.157,10.497,3.307,-17.595,-175.953,-52.786
5.985,0.91,13.077,2.874,-58.651,1.389,11.927,-3.018,-58.651,2.301,10.497,2.876,-35.191,-193.548,-64.516
5.99,0.623,12.837,2.587,-64.516,1.581,11.831,-2.682,-70.381,2.445,10.497,2.445,-52.786,-205.279,-76.246
5.995,0.335,12.454,2.251,-76.246,1.868,11.688,-2.299,-82.111,2.732,10.641,2.013,-70.381,-217.009,-82.111
6.0,0.0,11.879,1.82,-82.111,2.108,11.448,-1.82,-87.977,2.732,10.785,1.438,-82.111,-228.739,-93.842
6.005,-0.192,11.304,1.389,-93.842,2.203,11.257,-1.341,-93.842,2.732,11.073,1.007,-87.977,-240.469,-99.707
6.01,-0.575,10.634,0.766,-99.707,2.347,10.969,-0.719,-105.572,2.588,11.073,0.144,-93.842,-252.199,-105.572
6.015000000000001,-0.719,9.963,-0.048,-105.572,2.395,10.586,0.096,-105.572,2.445,10.929,-0.575,-87.977,-258.064,-105.572
6.0200000000000005,-0.814,9.245,-0.814,-105.572,2.347,10.059,0.814,-111.437,2.157,10.497,-1.294,-87.977,-258.064,-111.437
6.025,-0.958,8.526,-1.629,-105.572,2.347,9.436,1.677,-111.437,1.869,9.922,-2.157,-70.381,-263.93,-111.437
6.03,-0.862,7.76,-2.635,-105.572,2.156,8.718,2.587,-111.437,1.582,9.203,-3.164,-58.651,-263.93,-111.437
6.035,-0.671,7.185,-3.545,-105.572,1.868,8.047,3.545,-105.572,1.294,8.484,-4.026,-46.921,-258.064,-105.572
6.04,-0.431,6.754,-4.407,-99.707,1.581,7.52,4.359,-105.572,0.863,8.053,-4.745,-41.056,-258.064,-99.707
6.045,-0.144,6.514,-5.269,-93.842,1.245,7.185,5.221,-99.707,0.575,7.621,-5.608,-29.326,-252.199,-93.842
6.05,0.096,6.275,-6.083,-87.977,0.958,6.85,6.083,-93.842,0.144,7.046,-6.327,-23.46,-246.334,-87.977
6.055,0.335,6.035,-6.946,-82.111,0.623,6.514,6.898,-87.977,-0.288,6.615,-7.334,-17.595,-240.469,-82.111
6.0600000000000005,0.671,5.796,-7.951,-76.246,0.24,6.227,7.856,-82.111,-0.719,6.327,-8.34,-11.73,-234.604,-76.246
6.065,0.91,5.652,-9.101,-64.516,-0.096,5.988,8.957,-70.381,-1.15,6.04,-9.347,-5.865,-222.874,-70.381
6.07,1.198,5.652,-10.155,-64.516,-0.431,5.844,10.011,-64.516,-1.582,5.896,-10.21,-5.865,-217.009,-64.516
6.075,1.581,5.7,-11.017,-58.651,-0.91,5.796,10.873,-64.516,-2.301,5.752,-10.929,-5.865,-205.279,-58.651
6.08,1.916,5.652,-11.783,-52.786,-1.389,5.748,11.592,-58.651,-2.732,5.752,-11.648,-5.865,-193.548,-58.651
6.085,2.251,5.604,-12.358,-46.921,-1.724,5.748,12.215,-52.786,-3.02,5.896,-12.079,-5.865,-181.818,-52.786
6.09,2.347,5.652,-12.789,-46.921,-1.916,5.892,12.646,-46.921,-3.307,6.183,-12.511,-5.865,-170.088,-46.921
6.095,2.491,5.748,-13.125,-41.056,-2.108,6.035,12.981,-46.921,-3.595,6.327,-12.654,-5.865,-152.493,-46.921
6.1000000000000005,2.539,5.748,-13.316,-41.056,-2.251,6.131,13.125,-41.056,-3.739,6.471,-12.798,-5.865,-140.762,-41.056
6.105,2.635,5.748,-13.412,-35.191,-2.347,6.227,13.22,-41.056,-3.739,6.759,-12.798,0.0,-123.167,-41.056
6.11,2.635,5.892,-13.556,-35.191,-2.395,6.419,13.316,-35.191,-3.739,7.046,-12.942,5.865,-105.572,-35.191
6.115,2.682,6.275,-13.556,-29.326,-2.395,6.658,13.364,-29.326,-3.739,7.046,-12.798,5.865,-87.977,-23.46
6.12,2.778,6.514,-13.412,-23.46,-2.443,6.85,13.173,-23.46,-3.883,7.19,-12.654,5.865,-70.381,-23.46
6.125,2.922,6.61,-13.268,-17.595,-2.635,6.898,13.029,-17.595,-4.026,7.334,-12.511,5.865,-52.786,-17.595
6.13,2.97,6.85,-12.933,-17.595,-2.587,7.137,12.789,-11.73,-3.883,7.334,-12.079,17.595,-35.191,-11.73
6.135,3.018,6.946,-12.358,-11.73,-2.587,7.185,12.215,-11.73,-3.739,7.19,-11.504,17.595,-23.46,-11.73
6.140000000000001,3.209,6.993,-11.592,-5.865,-2.539,7.233,11.544,-5.865,-3.595,6.615,-10.785,17.595,-5.865,-5.865
6.1450000000000005,2.682,6.562,-11.209,-5.865,-2.108,6.61,11.065,0.0,-2.588,6.759,-10.21,17.595,5.865,0.0
6.15,2.682,6.275,-10.059,5.865,-1.964,6.467,9.915,5.865,-3.883,6.183,-8.916,5.865,17.595,5.865
6.155,3.114,6.658,-9.436,5.865,-2.539,6.658,9.532,5.865,-3.451,6.471,-8.484,5.865,29.326,0.0
