time_aligned_sec,L_Acc_X_aligned,L_Acc_Y_aligned,L_Acc_Z_aligned,L_Gyro_Z_aligned,R_Acc_X_aligned,R_Acc_Y_aligned,R_Acc_Z_aligned,R_Gyro_Z_aligned,T_Acc_X_aligned,T_Acc_Y_aligned,T_Acc_Z_aligned,T_Gyro_X_aligned,T_Gyro_Y_aligned,T_Gyro_Z_aligned
0.0,-1.006,8.047,5.844,-29.326,-1.054,7.951,5.7,35.191,1.15,8.053,5.752,-35.191,70.381,-29.326
0.005,-1.006,8.143,5.604,-29.326,-1.006,8.095,5.461,29.326,1.15,8.197,5.464,-35.191,70.381,-29.326
0.01,-0.958,8.239,5.365,-29.326,-1.006,8.239,5.221,29.326,1.007,8.197,5.321,-35.191,70.381,-29.326
0.015,-1.006,8.287,5.125,-29.326,-0.862,8.335,4.982,29.326,1.15,8.34,5.033,-35.191,70.381,-29.326
0.02,-0.91,8.287,4.934,-29.326,-0.719,8.43,4.79,29.326,1.007,8.484,4.889,-29.326,70.381,-29.326
0.025,-0.814,8.335,4.694,-29.326,-0.671,8.574,4.598,29.326,0.863,8.484,4.602,-29.326,70.381,-23.46
0.03,-0.91,8.335,4.503,-29.326,-0.671,8.574,4.359,29.326,0.863,8.484,4.458,-35.191,70.381,-23.46
0.035,-0.958,8.287,4.263,-29.326,-0.719,8.574,4.119,35.191,0.863,8.484,4.17,-35.191,70.381,-23.46
0.04,-0.958,8.239,4.072,-29.326,-0.671,8.574,3.976,29.326,0.863,8.484,3.883,-35.191,64.516,-23.46
0.045,-0.91,8.191,3.928,-29.326,-0.719,8.574,3.928,29.326,0.863,8.484,3.739,-41.056,64.516,-23.46
0.05,-0.862,8.191,3.928,-29.326,-0.671,8.622,3.928,35.191,0.863,8.484,3.739,-41.056,64.516,-29.326
0.055,-0.862,8.478,3.976,-29.326,-0.623,8.718,3.976,35.191,0.863,8.628,3.739,-41.056,64.516,-29.326
0.06,-0.814,8.862,4.024,-29.326,-0.623,8.862,4.024,35.191,0.863,8.772,3.883,-46.921,58.651,-29.326
0.065,-0.862,9.245,4.072,-29.326,-0.575,9.005,4.072,35.191,0.863,9.059,3.883,-46.921,58.651,-23.46
0.07,-0.862,9.436,4.119,-29.326,-0.671,9.101,3.976,29.326,0.719,9.203,4.026,-41.056,58.651,-29.326
0.075,-1.006,9.724,3.88,-23.46,-0.766,9.197,3.688,29.326,0.863,9.491,3.739,-41.056,58.651,-23.46
0.08,-0.958,9.676,3.64,-23.46,-0.431,9.005,3.593,23.46,0.863,9.491,3.595,-41.056,52.786,-23.46
0.085,-0.671,8.862,3.64,-23.46,-0.575,9.149,3.497,23.46,0.575,9.059,3.451,-35.191,52.786,-23.46
0.09,-1.293,9.628,3.353,-11.73,-0.719,8.909,3.257,11.73,1.007,9.347,3.307,-35.191,46.921,-17.595
0.095,-0.814,9.245,3.449,-11.73,-0.335,8.622,3.449,11.73,0.863,9.203,3.164,-35.191,46.921,-11.73
0.1,-0.719,8.814,3.593,-11.73,-0.24,8.526,3.64,17.595,0.431,8.772,3.307,-29.326,46.921,-11.73
0.105,-0.766,8.814,3.736,-11.73,-0.383,8.574,3.784,11.73,0.575,8.772,3.595,-29.326,41.056,-11.73
0.11,-0.766,8.622,3.88,-11.73,-0.766,8.67,3.88,11.73,0.719,8.628,3.739,-23.46,41.056,-11.73
0.115,-0.719,8.526,4.072,-5.865,-0.671,8.718,4.072,11.73,0.863,8.772,3.739,-23.46,35.191,-11.73
0.12,-0.479,8.478,4.215,-11.73,-0.575,8.718,4.215,11.73,0.719,8.628,4.026,-23.46,35.191,-11.73
0.125,-0.479,8.526,4.359,-11.73,-0.623,8.718,4.311,17.595,0.575,8.628,4.17,-23.46,41.056,-11.73
0.13,-0.479,8.574,4.455,-11.73,-0.719,8.718,4.311,17.595,0.575,8.772,4.314,-23.46,41.056,-11.73
0.135,-0.575,8.67,4.407,-11.73,-0.766,8.814,4.263,11.73,0.719,8.772,4.17,-23.46,41.056,-11.73
0.14,-0.623,8.766,4.359,-5.865,-0.527,8.814,4.215,11.73,0.863,8.916,4.17,-29.326,41.056,-11.73
0.145,-0.479,8.718,4.263,-11.73,-0.335,8.766,4.119,11.73,0.575,8.772,4.026,-29.326,41.056,-5.865
0.15,-0.479,8.718,4.072,-11.73,-0.287,8.622,3.928,11.73,0.431,8.772,3.883,-29.326,41.056,-11.73
0.155,-0.527,8.67,3.928,-11.73,-0.479,8.574,3.784,11.73,0.431,8.772,3.739,-29.326,41.056,-11.73
0.16,-0.623,8.574,3.832,-11.73,-0.479,8.43,3.736,11.73,0.575,8.628,3.595,-29.326,41.056,-11.73
0.165,-0.431,8.478,3.88,-11.73,-0.24,8.239,3.88,11.73,0.575,8.484,3.739,-29.326,41.056,-11.73
0.17,-0.479,8.43,3.928,-11.73,-0.431,8.095,3.832,17.595,0.431,8.34,3.739,-29.326,41.056,-11.73
0.17500000000000002,-0.575,8.574,3.88,-11.73,-0.575,8.095,3.736,17.595,0.575,8.34,3.739,-23.46,35.191,-11.73
0.18,-0.527,8.67,3.784,-11.73,-0.431,8.143,3.688,17.595,0.575,8.484,3.595,-23.46,35.191,-11.73
0.185,-0.479,8.718,3.736,-17.595,-0.287,8.143,3.64,17.595,0.575,8.484,3.595,-17.595,35.191,-17.595
0.19,-0.479,8.814,3.64,-11.73,-0.335,8.239,3.545,17.595,0.431,8.484,3.451,-17.595,35.191,-17.595
0.195,-0.479,8.814,3.593,-11.73,-0.335,8.335,3.497,11.73,0.575,8.484,3.451,-11.73,35.191,-11.73
0.2,-0.383,8.957,3.449,-11.73,-0.383,9.963,2.826,11.73,0.431,8.772,3.307,-5.865,35.191,-11.73
0.20500000000000002,-0.575,9.963,2.635,-11.73,-0.527,9.388,2.682,11.73,0.575,10.066,2.588,-5.865,35.191,-11.73
0.21,-0.958,10.155,2.97,-5.865,-0.192,9.676,2.874,5.865,0.719,9.635,2.588,-5.865,35.191,-5.865
0.215,-0.575,10.538,2.778,-0.0,-0.431,9.963,2.682,0.0,0.431,10.066,2.732,-5.865,29.326,0.0
0.22,-0.91,10.825,2.778,5.865,-0.383,9.532,2.826,-5.865,0.575,10.354,2.588,0.0,29.326,5.865
0.225,-0.958,10.682,2.97,11.73,-0.287,9.149,2.97,-11.73,0.719,10.066,2.732,5.865,29.326,11.73
0.23,-0.862,10.299,3.066,11.73,-0.287,8.957,3.018,-11.73,0.575,9.635,2.876,5.865,23.46,11.73
0.23500000000000001,-0.862,9.915,3.018,17.595,-0.527,8.957,2.97,-11.73,0.575,9.491,2.876,23.46,17.595,17.595
0.24,-1.006,9.532,3.018,17.595,-0.671,8.909,2.922,-11.73,0.863,9.347,2.876,29.326,17.595,11.73
0.245,-1.054,9.293,2.97,11.73,-0.671,9.005,2.922,-11.73,0.863,9.203,2.876,41.056,11.73,11.73
0.25,-1.102,9.197,2.97,11.73,-0.766,9.149,2.922,-11.73,0.863,9.203,2.732,41.056,11.73,11.73
0.255,-1.054,9.245,3.018,11.73,-0.862,9.197,3.018,-11.73,1.007,9.203,2.876,46.921,5.865,11.73
0.26,-1.15,9.484,3.209,11.73,-0.766,9.197,3.209,-5.865,1.007,9.347,2.876,46.921,5.865,11.73
0.265,-1.102,9.628,3.353,11.73,-0.766,9.293,3.401,-11.73,1.007,9.491,3.164,46.921,0.0,11.73
0.27,-1.15,9.772,3.497,11.73,-0.862,9.341,3.497,-11.73,1.007,9.635,3.307,52.786,0.0,11.73
0.275,-1.198,9.772,3.593,11.73,-0.91,9.293,3.64,-11.73,1.15,9.635,3.451,52.786,0.0,11.73
0.28,-1.198,9.772,3.736,17.595,-0.814,9.341,3.784,-11.73,1.15,9.635,3.595,52.786,-5.865,17.595
0.28500000000000003,-1.006,9.628,3.928,17.595,-0.766,9.293,4.024,-11.73,1.007,9.635,3.739,58.651,-5.865,17.595
0.29,-1.006,9.293,4.119,17.595,-0.958,9.341,4.072,-11.73,1.007,9.491,3.883,64.516,-5.865,17.595
0.295,-1.054,9.005,4.167,17.595,-1.102,9.484,4.119,-11.73,1.15,9.347,4.026,64.516,-11.73,17.595
0.3,-0.958,8.622,4.215,23.46,-1.341,9.628,4.119,-17.595,1.15,9.347,4.026,64.516,-11.73,17.595
0.305,-0.958,8.239,4.311,23.46,-1.341,9.58,4.263,-17.595,1.294,9.203,4.026,58.651,-11.73,23.46
0.31,-0.862,7.951,4.455,23.46,-1.198,9.293,4.359,-17.595,1.15,9.059,4.17,52.786,-5.865,23.46
0.315,-1.006,7.951,4.503,23.46,-1.198,9.005,4.503,-17.595,1.15,8.772,4.314,41.056,-5.865,23.46
0.32,-0.91,8.095,4.742,23.46,-1.102,8.718,4.742,-17.595,1.15,8.628,4.458,29.326,-5.865,23.46
0.325,-0.91,8.047,4.982,17.595,-1.15,8.574,4.886,-11.73,1.15,8.484,4.745,23.46,0.0,17.595
0.33,-1.102,8.095,4.982,11.73,-1.437,8.574,4.838,-11.73,1.15,8.484,4.745,23.46,0.0,11.73
0.335,-1.245,8.191,4.982,11.73,-1.581,8.574,4.886,-5.865,1.438,8.484,4.745,17.595,0.0,11.73
0.34,-1.245,8.287,4.982,11.73,-1.533,8.574,4.982,-5.865,1.582,8.484,4.745,5.865,0.0,11.73
0.34500000000000003,-1.341,8.335,5.077,11.73,-1.341,8.43,4.982,-5.865,1.582,8.628,4.889,5.865,5.865,11.73
0.35000000000000003,-1.245,8.478,5.077,5.865,-1.293,8.383,4.934,-5.865,1.294,8.484,4.889,5.865,5.865,5.865
0.355,-1.341,8.574,5.03,5.865,-1.533,8.478,4.934,-5.865,1.438,8.628,4.889,5.865,5.865,5.865
0.36,-1.389,8.622,5.125,5.865,-1.581,8.43,5.03,-5.865,1.582,8.628,4.889,5.865,5.865,5.865
0.365,-1.437,8.622,5.173,11.73,-1.533,8.335,5.077,-5.865,1.582,8.628,4.889,5.865,5.865,5.865
0.37,-1.485,8.574,5.173,5.865,-1.485,8.239,5.077,-5.865,1.582,8.484,5.033,5.865,11.73,5.865
0.375,-1.533,8.574,5.173,11.73,-1.533,8.143,5.077,-5.865,1.582,8.484,5.033,5.865,11.73,11.73
0.38,-1.533,8.478,5.221,11.73,-1.533,8.095,5.125,-11.73,1.582,8.34,5.033,17.595,11.73,11.73
0.385,-1.437,8.43,5.221,11.73,-1.485,8.047,5.173,-11.73,1.582,8.34,5.033,17.595,11.73,11.73
0.39,-1.485,8.335,5.269,11.73,-1.533,7.999,5.221,-11.73,1.582,8.34,5.033,23.46,11.73,11.73
0.395,-1.485,8.143,5.365,11.73,-1.533,7.904,5.269,-11.73,1.582,8.197,5.177,23.46,11.73,11.73
0.4,-1.485,7.999,5.317,11.73,-1.533,7.856,5.221,-11.73,1.582,8.053,5.177,29.326,11.73,11.73
0.405,-1.485,7.712,5.269,11.73,-1.533,7.904,5.173,-11.73,1.582,7.909,5.033,29.326,11.73,11.73
0.41000000000000003,-1.437,7.472,5.269,11.73,-1.581,7.856,5.173,-11.73,1.582,7.909,5.033,29.326,11.73,11.73
0.41500000000000004,-1.533,7.329,5.317,11.73,-1.629,7.904,5.269,-5.865,1.582,7.765,5.033,29.326,11.73,11.73
0.42,-1.293,7.281,5.413,5.865,-1.533,7.951,5.365,-5.865,1.582,7.765,5.177,23.46,11.73,11.73
0.425,-1.341,7.329,5.509,5.865,-1.581,8.047,5.461,0.0,1.582,7.765,5.321,23.46,17.595,5.865
0.43,-1.389,7.472,5.604,5.865,-1.677,8.143,5.556,0.0,1.582,7.909,5.321,17.595,17.595,5.865
0.435,-1.341,7.52,5.7,5.865,-1.724,8.143,5.604,0.0,1.582,7.909,5.464,5.865,17.595,5.865
0.44,-1.341,7.568,5.748,-0.0,-1.677,8.095,5.652,5.865,1.582,8.053,5.464,5.865,17.595,0.0
0.445,-1.341,7.664,5.748,-0.0,-1.677,8.095,5.652,5.865,1.582,8.053,5.608,0.0,23.46,0.0
0.45,-1.389,7.76,5.748,-5.865,-1.724,8.047,5.604,5.865,1.582,8.053,5.608,0.0,23.46,0.0
0.455,-1.437,7.904,5.652,-5.865,-1.677,8.095,5.556,5.865,1.726,8.053,5.464,0.0,29.326,-5.865
0.46,-1.389,7.999,5.652,-5.865,-1.677,8.095,5.509,5.865,1.582,8.197,5.464,-5.865,29.326,-5.865
0.465,-1.389,8.143,5.604,-5.865,-1.581,8.239,5.509,11.73,1.582,8.197,5.464,-5.865,29.326,-5.865
0.47000000000000003,-1.437,8.335,5.556,-5.865,-1.581,8.287,5.365,11.73,1.582,8.34,5.464,-5.865,35.191,-5.865
0.47500000000000003,-1.485,8.335,5.365,-5.865,-1.581,8.383,5.173,11.73,1.582,8.484,5.177,-5.865,35.191,-5.865
0.48,-1.485,8.239,5.173,-5.865,-1.485,8.43,5.03,11.73,1.582,8.484,5.033,-5.865,35.191,-5.865
0.485,-1.437,8.191,5.03,-5.865,-1.437,8.383,4.934,11.73,1.582,8.484,4.889,-5.865,35.191,-5.865
0.49,-1.533,8.287,4.934,-5.865,-1.437,8.335,4.886,11.73,1.582,8.484,4.745,-5.865,35.191,-5.865
0.495,-1.533,8.43,4.934,-5.865,-1.437,8.383,4.886,11.73,1.582,8.484,4.745,-5.865,35.191,-5.865
0.5,-1.485,8.574,5.03,-5.865,-1.437,8.478,4.982,11.73,1.582,8.484,4.745,-5.865,35.191,-5.865
0.505,-1.485,8.766,5.077,-5.865,-1.533,8.622,4.982,11.73,1.582,8.772,4.889,-5.865,35.191,-5.865
0.51,-1.581,8.909,5.03,-5.865,-1.581,8.67,4.886,11.73,1.582,8.916,4.889,-5.865,35.191,-5.865
0.515,-1.581,8.909,4.886,-5.865,-1.533,8.766,4.694,11.73,1.726,8.916,4.745,-5.865,35.191,-5.865
0.52,-1.485,8.814,4.742,-5.865,-1.389,8.814,4.551,5.865,1.582,8.916,4.602,0.0,35.191,-5.865
0.525,-1.533,8.67,4.551,-5.865,-1.341,8.814,4.407,5.865,1.582,8.916,4.458,0.0,35.191,-5.865
0.53,-1.533,8.478,4.455,-5.865,-1.341,8.718,4.359,5.865,1.582,8.772,4.314,0.0,35.191,-5.865
0.535,-1.485,8.239,4.407,-5.865,-1.341,8.67,4.263,5.865,1.438,8.628,4.17,0.0,29.326,-5.865
0.54,-1.437,8.143,4.359,-5.865,-1.341,8.526,4.311,5.865,1.438,8.484,4.17,-5.865,29.326,-5.865
0.545,-1.389,8.047,4.455,-5.865,-1.485,8.478,4.407,11.73,1.438,8.484,4.314,-5.865,29.326,-5.865
0.55,-1.437,8.143,4.551,-5.865,-1.581,8.383,4.455,11.73,1.582,8.34,4.314,-11.73,29.326,-5.865
0.555,-1.485,8.143,4.551,-5.865,-1.629,8.335,4.407,11.73,1.582,8.34,4.314,-11.73,29.326,-5.865
0.56,-1.437,8.143,4.503,-11.73,-1.485,8.287,4.407,11.73,1.582,8.34,4.314,-11.73,29.326,-11.73
0.5650000000000001,-1.389,8.095,4.407,-11.73,-1.437,8.335,4.359,11.73,1.582,8.34,4.17,-17.595,35.191,-11.73
0.5700000000000001,-1.341,7.999,4.407,-11.73,-1.485,8.239,4.215,11.73,1.438,8.34,4.17,-17.595,35.191,-11.73
0.5750000000000001,-1.389,7.951,4.263,-11.73,-1.533,8.239,4.167,17.595,1.582,8.34,4.17,-17.595,35.191,-11.73
0.58,-1.389,7.856,4.215,-11.73,-1.533,8.191,4.119,17.595,1.582,8.197,4.026,-17.595,35.191,-11.73
0.585,-1.341,7.76,4.215,-17.595,-1.485,8.095,4.119,17.595,1.582,8.197,4.026,-17.595,35.191,-17.595
0.59,-1.389,7.808,4.167,-17.595,-1.485,8.047,4.072,17.595,1.582,8.053,4.026,-23.46,35.191,-17.595
0.595,-1.341,7.856,4.167,-17.595,-1.437,7.951,4.024,23.46,1.438,8.053,3.883,-23.46,41.056,-17.595
0.6,-1.389,7.951,4.072,-17.595,-1.341,7.999,4.024,23.46,1.582,8.053,3.883,-29.326,41.056,-17.595
0.605,-1.389,7.904,4.119,-17.595,-1.341,8.047,4.072,23.46,1.438,8.053,3.883,-29.326,41.056,-17.595
0.61,-1.341,8.047,4.167,-23.46,-1.389,8.143,4.072,23.46,1.438,8.197,4.026,-29.326,41.056,-23.46
0.615,-1.389,8.239,4.119,-23.46,-1.198,8.287,3.976,29.326,1.438,8.34,4.026,-29.326,41.056,-23.46
0.62,-1.437,8.526,3.976,-23.46,-1.198,8.43,3.832,29.326,1.438,8.484,3.883,-29.326,41.056,-23.46
0.625,-1.389,8.574,3.88,-23.46,-1.198,8.67,3.832,23.46,1.438,8.628,3.739,-29.326,35.191,-23.46
0.63,-1.389,8.622,3.88,-23.46,-1.15,8.909,3.736,29.326,1.438,8.772,3.739,-29.326,35.191,-23.46
0.635,-1.437,8.478,3.688,-23.46,-1.245,9.053,3.593,29.326,1.438,8.916,3.595,-29.326,35.191,-23.46
0.64,-1.437,8.287,3.64,-23.46,-1.389,9.053,3.593,23.46,1.438,8.916,3.451,-29.326,35.191,-23.46
0.645,-1.533,8.335,3.688,-23.46,-1.437,8.814,3.688,23.46,1.582,8.916,3.451,-35.191,29.326,-23.46
0.65,-1.533,8.478,3.88,-23.46,-1.389,8.526,3.88,23.46,1.582,8.772,3.595,-41.056,29.326,-23.46
0.655,-1.485,8.67,4.024,-17.595,-1.341,8.43,4.072,23.46,1.438,8.628,3.739,-41.056,29.326,-17.595
0.66,-1.437,8.766,4.215,-17.595,-1.341,8.526,4.119,23.46,1.438,8.628,4.026,-41.056,29.326,-17.595
0.665,-1.485,8.957,4.167,-23.46,-1.485,8.67,4.024,29.326,1.438,8.772,4.026,-41.056,29.326,-23.46
0.67,-1.485,9.101,4.072,-23.46,-1.581,8.909,3.928,29.326,1.582,9.059,3.883,-35.191,29.326,-23.46
0.675,-1.533,9.245,3.976,-23.46,-1.533,9.053,3.832,29.326,1.582,9.203,3.883,-35.191,23.46,-23.46
0.68,-1.629,9.436,3.832,-23.46,-1.437,9.101,3.688,23.46,1.582,9.347,3.739,-29.326,29.326,-23.46
0.685,-1.677,9.58,3.64,-23.46,-1.341,9.245,3.449,23.46,1.582,9.491,3.595,-29.326,29.326,-23.46
0.6900000000000001,-1.581,9.58,3.449,-23.46,-1.341,9.388,3.353,23.46,1.582,9.491,3.307,-29.326,23.46,-23.46
0.6950000000000001,-1.677,9.628,3.449,-17.595,-1.437,9.436,3.353,17.595,1.582,9.635,3.307,-23.46,23.46,-17.595
0.7000000000000001,-1.772,9.772,3.401,-11.73,-1.485,9.388,3.353,17.595,1.726,9.635,3.164,-23.46,23.46,-11.73
0.705,-1.724,9.772,3.497,-11.73,-1.341,9.388,3.449,17.595,1.582,9.635,3.307,-23.46,17.595,-11.73
0.71,-1.629,9.676,3.593,-11.73,-1.437,9.293,3.545,17.595,1.582,9.635,3.307,-17.595,17.595,-11.73
0.715,-1.677,9.58,3.688,-11.73,-1.581,9.293,3.593,11.73,1.582,9.491,3.451,-17.595,17.595,-11.73
0.72,-1.677,9.628,3.736,-11.73,-1.581,9.245,3.688,11.73,1.726,9.635,3.595,-17.595,11.73,-11.73
0.725,-1.581,9.58,3.784,-11.73,-1.485,9.197,3.688,11.73,1.582,9.491,3.595,-11.73,11.73,-11.73
0.73,-1.533,9.388,3.832,-11.73,-1.485,9.149,3.688,11.73,1.582,9.491,3.595,-11.73,11.73,-11.73
0.735,-1.581,9.197,3.736,-11.73,-1.581,9.101,3.593,11.73,1.582,9.347,3.595,-5.865,11.73,-11.73
0.74,-1.629,9.149,3.688,-11.73,-1.581,9.149,3.593,11.73,1.726,9.347,3.451,-5.865,11.73,-11.73
0.745,-1.485,9.005,3.688,-11.73,-1.485,9.197,3.593,17.595,1.582,9.203,3.451,-5.865,11.73,-11.73
0.75,-1.437,8.862,3.736,-11.73,-1.485,9.245,3.593,17.595,1.582,9.203,3.595,-5.865,11.73,-11.73
0.755,-1.533,8.766,3.688,-11.73,-1.581,9.197,3.545,17.595,1.582,9.203,3.451,-5.865,11.73,-11.73
0.76,-1.533,8.766,3.593,-11.73,-1.724,9.245,3.497,11.73,1.726,9.203,3.451,-11.73,11.73,-11.73
0.765,-1.533,8.862,3.64,-11.73,-1.677,9.245,3.545,11.73,1.726,9.203,3.451,-11.73,11.73,-11.73
0.77,-1.533,9.005,3.736,-5.865,-1.581,9.245,3.64,11.73,1.726,9.203,3.451,-17.595,11.73,-11.73
0.775,-1.437,9.197,3.784,-5.865,-1.533,9.149,3.688,11.73,1.582,9.347,3.595,-17.595,11.73,-5.865
0.78,-1.677,9.341,3.784,-11.73,-1.581,9.149,3.736,11.73,1.582,9.347,3.595,-17.595,11.73,-11.73
0.785,-1.533,9.388,3.832,-5.865,-1.581,9.149,3.736,11.73,1.726,9.347,3.595,-17.595,17.595,-5.865
0.79,-1.581,9.484,3.832,-11.73,-1.629,9.245,3.688,11.73,1.582,9.491,3.595,-17.595,11.73,-11.73
0.795,-1.724,9.58,3.736,-11.73,-1.677,9.293,3.545,11.73,1.726,9.491,3.595,-17.595,17.595,-11.73
0.8,-1.772,9.724,3.593,-5.865,-1.533,9.341,3.449,5.865,1.726,9.635,3.451,-11.73,17.595,-5.865
0.805,-1.772,9.772,3.497,-5.865,-1.437,9.341,3.401,5.865,1.726,9.635,3.307,-11.73,11.73,-5.865
0.81,-1.772,9.82,3.449,-5.865,-1.437,9.341,3.353,5.865,1.726,9.635,3.307,-5.865,11.73,0.0
0.8150000000000001,-1.82,9.82,3.449,-0.0,-1.533,9.341,3.401,5.865,1.726,9.635,3.307,-5.865,11.73,0.0
0.8200000000000001,-1.868,9.867,3.497,-0.0,-1.533,9.341,3.449,0.0,1.726,9.635,3.307,0.0,5.865,0.0
0.8250000000000001,-1.772,9.867,3.545,-0.0,-1.533,9.388,3.449,0.0,1.726,9.778,3.307,0.0,5.865,0.0
0.8300000000000001,-1.868,9.867,3.593,-0.0,-1.581,9.436,3.497,0.0,1.726,9.778,3.451,5.865,5.865,0.0
0.835,-1.772,9.867,3.64,5.865,-1.581,9.388,3.593,-5.865,1.726,9.778,3.451,5.865,0.0,5.865
0.84,-1.772,9.58,3.688,5.865,-1.629,9.293,3.688,-5.865,1.726,9.635,3.451,5.865,0.0,5.865
0.845,-1.772,9.388,3.832,5.865,-1.677,9.101,3.784,-5.865,1.726,9.491,3.595,5.865,0.0,5.865
0.85,-1.677,9.293,3.976,11.73,-1.677,9.053,3.928,-5.865,1.726,9.347,3.739,17.595,-5.865,5.865
0.855,-1.772,9.245,4.072,11.73,-1.772,8.957,4.024,-5.865,1.726,9.203,3.883,17.595,-5.865,11.73
0.86,-1.772,9.341,4.167,11.73,-1.82,9.005,4.072,-5.865,1.869,9.203,3.883,17.595,-5.865,11.73
0.865,-1.724,9.484,4.263,11.73,-1.772,9.053,4.119,-5.865,1.869,9.347,4.026,23.46,-5.865,11.73
0.87,-1.772,9.724,4.215,11.73,-1.772,9.149,4.119,-11.73,1.869,9.491,4.026,23.46,-5.865,11.73
0.875,-1.772,9.867,4.167,11.73,-1.82,9.293,4.072,-11.73,1.869,9.635,4.026,29.326,0.0,11.73
0.88,-1.772,10.011,4.167,11.73,-1.629,9.436,4.072,-11.73,1.869,9.778,4.026,35.191,0.0,11.73
0.885,-1.772,10.251,4.119,17.595,-1.677,9.58,4.072,-11.73,1.726,9.922,4.026,41.056,0.0,11.73
0.89,-1.772,10.442,4.072,17.595,-1.533,9.963,4.024,-17.595,1.869,10.066,3.883,41.056,0.0,17.595
0.895,-1.677,10.299,4.024,23.46,-1.724,10.346,3.832,-17.595,1.726,10.354,3.883,46.921,-5.865,17.595
0.9,-1.677,9.915,3.784,23.46,-1.82,9.724,3.593,-17.595,1.726,10.354,3.595,52.786,-5.865,23.46
0.905,-1.916,8.957,3.593,23.46,-1.82,8.957,3.497,-17.595,1.869,9.635,3.451,52.786,-5.865,23.46
0.91,-1.964,7.856,3.64,23.46,-1.677,8.526,3.545,-17.595,2.013,8.628,3.451,46.921,-5.865,23.46
0.915,-1.533,7.185,3.688,23.46,-1.629,8.383,3.64,-17.595,1.726,8.197,3.451,46.921,-5.865,23.46
0.92,-1.437,7.137,3.784,23.46,-1.485,8.335,3.784,-11.73,1.582,7.909,3.595,41.056,-5.865,17.595
0.925,-1.485,7.425,4.024,17.595,-1.581,8.478,3.928,-5.865,1.582,8.053,3.739,29.326,-5.865,17.595
0.93,-1.485,7.664,3.976,5.865,-1.724,8.478,3.976,-5.865,1.726,8.197,3.883,23.46,-5.865,11.73
0.935,-1.629,7.76,4.072,5.865,-1.82,8.383,3.928,-5.865,1.726,8.34,3.883,17.595,-5.865,5.865
0.9400000000000001,-1.724,7.951,4.072,5.865,-1.724,8.287,3.928,-5.865,1.869,8.34,3.883,5.865,-5.865,11.73
0.9450000000000001,-1.629,8.143,4.072,11.73,-1.629,8.095,3.976,-5.865,1.726,8.34,3.883,5.865,-5.865,11.73
0.9500000000000001,-1.677,8.383,4.072,11.73,-1.485,7.951,3.976,-11.73,1.726,8.34,3.883,5.865,-5.865,11.73
0.9550000000000001,-1.724,8.67,4.072,11.73,-1.485,7.76,3.976,-11.73,1.726,8.34,3.883,5.865,-5.865,11.73
0.96,-1.724,8.909,4.072,11.73,-1.389,7.76,4.024,-5.865,1.582,8.34,3.883,5.865,-5.865,11.73
0.965,-1.772,9.149,4.024,11.73,-1.485,7.808,3.976,-11.73,1.726,8.484,3.883,17.595,-5.865,11.73
0.97,-1.82,9.436,4.024,11.73,-1.533,7.856,4.024,-11.73,1.726,8.484,3.883,23.46,-5.865,11.73
0.975,-1.868,9.676,4.072,17.595,-1.533,8.047,4.024,-17.595,1.726,8.772,3.883,35.191,-11.73,17.595
0.98,-1.772,9.867,4.024,23.46,-1.437,8.287,3.928,-17.595,1.726,8.916,3.883,46.921,-11.73,17.595
0.985,-1.724,10.059,3.928,23.46,-1.389,8.383,3.784,-23.46,1.582,9.203,3.739,58.651,-11.73,23.46
0.99,-1.677,10.155,3.64,29.326,-1.245,8.574,3.593,-29.326,1.582,9.203,3.595,70.381,-17.595,29.326
0.995,-1.677,10.155,3.449,35.191,-1.054,8.862,3.305,-35.191,1.438,9.347,3.451,76.246,-17.595,29.326
1.0,-1.437,10.011,3.066,35.191,-0.862,9.005,2.97,-35.191,1.294,9.491,3.02,87.977,-23.46,35.191
1.0050000000000001,-1.389,9.772,2.73,41.056,-0.671,9.197,2.635,-41.056,1.15,9.491,2.732,99.707,-23.46,35.191
1.01,-1.437,9.676,2.395,46.921,-0.575,9.388,2.347,-46.921,1.007,9.491,2.445,105.572,-29.326,41.056
1.0150000000000001,-1.245,9.532,2.06,46.921,-0.479,9.58,2.06,-46.921,1.007,9.635,2.013,111.437,-35.191,46.921
1.02,-1.245,9.341,1.868,46.921,-0.431,9.676,1.868,-46.921,0.863,9.635,1.869,111.437,-41.056,46.921
1.025,-1.341,9.101,1.677,46.921,-0.527,9.82,1.724,-46.921,0.863,9.635,1.582,111.437,-46.921,46.921
1.03,-1.341,8.862,1.581,52.786,-0.527,9.82,1.581,-46.921,1.007,9.635,1.438,105.572,-52.786,46.921
1.035,-1.341,8.718,1.389,52.786,-0.287,9.82,1.437,-46.921,0.863,9.491,1.294,99.707,-58.651,46.921
1.04,-1.293,8.526,1.293,52.786,-0.24,9.915,1.389,-46.921,0.863,9.491,1.15,99.707,-64.516,46.921
1.045,-1.15,8.143,1.341,52.786,-0.192,9.963,1.533,-46.921,0.719,9.347,1.15,87.977,-70.381,46.921
1.05,-1.102,7.76,1.581,46.921,-0.287,9.963,1.772,-46.921,0.575,9.203,1.294,82.111,-76.246,46.921
1.055,-0.91,7.425,1.964,46.921,-0.671,9.915,2.203,-41.056,0.719,9.059,1.726,70.381,-82.111,41.056
1.06,-0.958,7.281,2.491,41.056,-0.91,9.58,2.778,-41.056,0.863,8.916,2.157,52.786,-87.977,41.056
1.065,-1.054,7.281,3.114,41.056,-1.15,9.101,3.497,-41.056,1.15,8.628,2.732,35.191,-93.842,41.056
1.07,-1.102,7.425,3.832,41.056,-1.198,8.622,4.215,-35.191,1.15,8.484,3.451,23.46,-93.842,35.191
1.075,-1.245,7.664,4.646,35.191,-1.245,8.143,5.03,-35.191,1.294,8.197,4.17,5.865,-93.842,35.191
1.08,-1.437,7.904,5.413,35.191,-1.341,7.616,5.844,-29.326,1.438,8.053,5.033,0.0,-93.842,35.191
1.085,-1.724,8.095,6.179,29.326,-1.389,7.233,6.706,-29.326,1.582,7.909,5.896,-5.865,-93.842,29.326
1.09,-1.868,8.287,7.089,29.326,-1.581,6.898,7.664,-23.46,1.726,7.621,6.759,0.0,-93.842,23.46
1.095,-2.012,8.335,8.095,29.326,-1.82,6.562,8.718,-23.46,1.869,7.621,7.765,5.865,-99.707,23.46
1.1,-1.916,8.191,9.245,29.326,-2.108,6.179,9.963,-29.326,2.013,7.334,8.916,5.865,-99.707,23.46
1.105,-1.868,7.904,10.538,29.326,-2.443,5.652,11.304,-29.326,2.157,6.902,10.066,23.46,-99.707,29.326
1.11,-1.677,7.472,11.879,35.191,-2.922,5.173,12.598,-35.191,2.301,6.471,11.504,35.191,-99.707,29.326
1.115,-1.533,6.802,13.173,35.191,-3.305,4.694,13.795,-35.191,2.445,5.896,12.798,52.786,-93.842,35.191
1.12,-1.341,5.988,14.274,35.191,-3.832,4.359,14.657,-35.191,2.732,5.321,13.949,64.516,-87.977,35.191
1.125,-1.198,4.934,15.041,35.191,-3.976,4.024,15.28,-29.326,2.876,4.745,14.811,76.246,-76.246,35.191
1.1300000000000001,-1.054,3.832,15.568,35.191,-4.072,3.688,15.568,-29.326,2.876,4.17,15.387,82.111,-58.651,35.191
1.135,-0.862,2.826,15.759,29.326,-4.072,3.353,15.615,-23.46,2.876,3.451,15.674,82.111,-41.056,29.326
1.1400000000000001,-0.575,1.82,15.711,23.46,-3.88,3.353,15.376,-11.73,2.732,2.876,15.53,82.111,-23.46,23.46
1.145,-0.527,1.102,15.376,11.73,-3.449,3.353,14.897,0.0,2.445,2.588,15.387,76.246,0.0,11.73
1.1500000000000001,-0.431,0.862,14.705,-0.0,-3.209,3.545,14.131,11.73,2.157,2.445,14.811,64.516,23.46,5.865
1.155,-0.192,1.054,13.987,-11.73,-2.826,3.88,13.508,23.46,2.013,2.588,13.949,46.921,41.056,-11.73
1.16,-0.24,1.772,13.268,-29.326,-2.73,4.263,12.694,41.056,1.726,3.02,13.373,29.326,64.516,-23.46
1.165,-0.287,2.587,12.31,-46.921,-2.347,4.742,11.783,52.786,1.726,3.595,12.511,5.865,82.111,-41.056
1.17,-0.479,3.449,11.352,-52.786,-2.012,5.125,10.778,58.651,1.582,4.17,11.504,0.0,99.707,-52.786
1.175,-0.575,4.407,9.963,-58.651,-1.677,5.509,9.388,64.516,1.438,4.745,10.354,-17.595,111.437,-58.651
1.18,-0.527,5.221,8.622,-64.516,-1.054,6.179,7.951,70.381,1.294,5.464,8.916,-23.46,117.302,-64.516
1.185,-0.527,6.035,7.041,-64.516,-0.527,6.946,6.419,70.381,0.863,6.183,7.478,-29.326,129.032,-70.381
1.19,-0.575,6.754,5.509,-70.381,-0.144,7.712,4.934,76.246,0.575,6.902,5.896,-35.191,134.897,-70.381
1.195,-0.623,7.568,4.119,-70.381,0.144,8.287,3.64,70.381,0.431,7.621,4.458,-41.056,134.897,-70.381
1.2,-0.623,8.335,2.922,-64.516,0.479,8.67,2.539,70.381,0.144,8.34,3.164,-41.056,129.032,-70.381
1.205,-0.91,8.909,1.868,-64.516,0.527,9.101,1.533,70.381,0.0,8.772,2.157,-46.921,129.032,-70.381
1.21,-1.006,9.484,0.958,-64.516,0.527,9.628,0.623,64.516,0.144,9.347,1.15,-46.921,117.302,-64.516
1.215,-1.006,9.963,0.096,-58.651,0.479,10.251,-0.192,58.651,0.144,9.922,0.288,-46.921,105.572,-64.516
1.22,-1.245,10.538,-0.671,-52.786,0.431,10.682,-0.91,52.786,0.288,10.497,-0.575,-46.921,99.707,-58.651
1.225,-1.341,11.257,-1.293,-46.921,0.719,11.161,-1.533,46.921,0.288,11.073,-1.294,-46.921,87.977,-52.786
1.23,-1.293,12.358,-2.06,-41.056,0.814,12.31,-2.587,41.056,0.144,11.648,-1.869,-46.921,76.246,-46.921
1.235,-1.293,13.652,-3.161,-35.191,0.91,13.604,-3.545,41.056,0.0,12.942,-3.02,-41.056,64.516,-41.056
1.24,-1.724,14.418,-3.88,-35.191,0.958,14.131,-4.072,41.056,0.288,14.092,-3.883,-35.191,46.921,-41.056
1.245,-1.964,14.801,-4.311,-35.191,0.766,13.652,-4.311,29.326,0.288,14.524,-4.458,-29.326,35.191,-35.191
1.25,-2.299,14.897,-4.311,-17.595,0.287,12.885,-4.119,11.73,0.575,14.236,-4.602,-29.326,17.595,-23.46
1.2550000000000001,-2.251,14.61,-3.832,-0.0,-0.144,12.262,-3.353,-5.865,1.007,13.805,-4.17,-23.46,-5.865,-5.865
1.26,-2.203,14.274,-2.826,17.595,-0.048,11.448,-2.108,-23.46,1.15,13.23,-3.307,-11.73,-23.46,11.73
1.2650000000000001,-2.203,14.274,-1.533,35.191,0.096,10.921,-1.006,-35.191,1.15,12.654,-2.013,5.865,-35.191,29.326
1.27,-1.102,12.885,-1.293,41.056,-0.431,11.257,-1.485,-41.056,0.719,12.079,-1.294,23.46,-52.786,41.056
1.2750000000000001,-1.629,11.209,-1.629,46.921,-0.431,11.257,-1.629,-46.921,0.863,11.504,-1.726,41.056,-64.516,46.921
1.28,-1.629,10.538,-1.581,52.786,-0.24,11.161,-1.245,-52.786,1.15,11.073,-1.869,46.921,-70.381,46.921
1.285,-1.437,10.442,-0.862,58.651,-0.048,10.921,-0.192,-58.651,0.863,10.929,-1.294,46.921,-82.111,52.786
1.29,-1.102,9.867,0.383,64.516,0.096,10.394,1.054,-64.516,0.575,10.641,-0.144,41.056,-87.977,58.651
1.295,-1.054,9.341,1.389,64.516,-0.287,9.915,1.964,-64.516,0.431,10.066,1.007,35.191,-99.707,64.516
1.3,-1.15,9.005,2.491,64.516,-0.766,9.388,3.209,-64.516,0.863,9.635,2.013,29.326,-105.572,64.516
1.305,-1.054,8.383,3.832,64.516,-1.054,8.814,4.551,-58.651,1.007,9.059,3.307,29.326,-111.437,58.651
1.31,-0.958,7.568,5.221,58.651,-1.293,8.095,5.94,-58.651,1.15,8.34,4.745,23.46,-111.437,58.651
1.315,-1.102,6.898,6.514,58.651,-1.772,7.329,7.233,-58.651,1.294,7.621,6.04,17.595,-111.437,58.651
1.32,-1.006,6.371,7.856,58.651,-2.108,6.61,8.526,-58.651,1.582,7.046,7.334,5.865,-111.437,58.651
1.325,-1.006,5.94,9.101,52.786,-2.443,5.844,9.724,-52.786,1.726,6.327,8.772,5.865,-105.572,52.786
1.33,-1.006,5.556,10.251,46.921,-2.682,5.125,10.682,-46.921,1.869,5.752,9.922,0.0,-99.707,46.921
1.335,-1.054,5.221,11.065,41.056,-2.874,4.551,11.257,-35.191,2.157,5.177,10.785,0.0,-93.842,41.056
1.34,-1.437,4.934,11.592,35.191,-3.305,4.215,11.64,-29.326,2.301,4.745,11.36,0.0,-82.111,35.191
1.345,-1.389,4.742,11.927,29.326,-3.497,4.119,11.879,-23.46,2.588,4.602,11.648,5.865,-70.381,29.326
1.35,-1.437,4.598,12.071,23.46,-3.257,4.167,11.975,-17.595,2.732,4.458,11.935,5.865,-58.651,23.46
1.355,-1.533,4.503,12.071,17.595,-3.018,4.072,11.879,-11.73,2.588,4.458,11.935,5.865,-41.056,17.595
1.36,-1.389,4.407,11.879,11.73,-2.682,3.976,11.592,-5.865,2.301,4.314,11.792,5.865,-29.326,11.73
1.365,-1.437,4.263,11.544,5.865,-2.635,3.976,11.352,0.0,2.157,4.17,11.504,17.595,-23.46,5.865
1.37,-1.485,4.167,11.352,-0.0,-2.73,4.072,11.161,5.865,2.301,4.17,11.216,17.595,-11.73,0.0
1.375,-1.485,4.167,11.161,-5.865,-2.635,4.359,10.969,11.73,2.301,4.17,11.073,17.595,-5.865,-5.865
1.3800000000000001,-1.245,4.503,11.017,-11.73,-2.491,4.646,10.778,17.595,2.157,4.458,10.929,23.46,5.865,-11.73
1.385,-1.293,4.742,10.634,-17.595,-2.299,4.934,10.346,17.595,2.013,4.889,10.641,23.46,11.73,-11.73
1.3900000000000001,-1.198,4.934,10.251,-17.595,-2.203,5.077,9.963,23.46,1.869,5.033,10.21,23.46,23.46,-17.595
1.395,-1.102,5.03,9.82,-17.595,-2.06,5.173,9.532,23.46,1.726,5.177,9.778,23.46,29.326,-23.46
1.4000000000000001,-1.198,5.077,9.341,-23.46,-1.916,5.365,9.005,23.46,1.726,5.177,9.347,23.46,35.191,-23.46
1.405,-1.102,5.03,8.814,-23.46,-1.724,5.461,8.478,29.326,1.726,5.321,8.772,17.595,46.921,-23.46
1.41,-1.054,4.838,8.287,-29.326,-1.581,5.509,7.951,29.326,1.438,5.321,8.34,17.595,46.921,-23.46
1.415,-1.054,4.79,7.664,-29.326,-1.533,5.556,7.329,35.191,1.438,5.321,7.765,5.865,52.786,-35.191
1.42,-1.15,5.03,7.041,-35.191,-1.389,5.796,6.706,41.056,1.438,5.464,7.046,5.865,58.651,-35.191
1.425,-1.198,5.317,6.467,-35.191,-1.245,6.131,6.131,46.921,1.294,5.608,6.471,5.865,58.651,-41.056
1.43,-1.245,5.413,5.892,-41.056,-1.245,6.467,5.604,46.921,1.294,5.896,5.896,0.0,64.516,-41.056
1.435,-1.245,5.652,5.365,-46.921,-1.15,6.706,5.125,46.921,1.294,6.183,5.321,-5.865,64.516,-46.921
1.44,-1.198,5.892,5.03,-41.056,-1.102,7.041,4.79,46.921,1.294,6.471,4.889,-11.73,64.516,-46.921
1.445,-1.245,6.275,4.694,-41.056,-0.958,7.137,4.551,46.921,1.15,6.759,4.602,-17.595,64.516,-46.921
1.45,-1.15,6.754,4.455,-41.056,-0.671,7.185,4.407,46.921,1.15,7.046,4.314,-23.46,58.651,-46.921
1.455,-1.389,9.005,3.784,-46.921,-1.102,9.676,2.97,52.786,1.007,7.765,4.026,-29.326,58.651,-46.921
1.46,-1.772,12.31,2.156,-46.921,-1.054,13.412,1.341,52.786,1.438,10.929,2.445,-29.326,58.651,-46.921
1.465,-1.772,14.514,1.102,-46.921,0.192,13.795,1.054,46.921,1.294,14.092,1.007,-23.46,52.786,-46.921
1.47,-1.916,14.897,0.91,-35.191,0.144,12.598,0.814,35.191,0.575,14.092,0.863,-23.46,46.921,-41.056
1.475,-2.395,15.089,0.719,-17.595,-0.91,11.688,0.671,11.73,1.15,13.661,0.719,-11.73,35.191,-23.46
1.48,-2.539,13.891,0.766,-0.0,-1.341,11.065,0.814,0.0,1.726,12.798,0.575,0.0,23.46,-5.865
1.485,-2.299,12.215,1.006,11.73,-1.15,10.442,1.054,-11.73,1.869,11.792,0.719,17.595,5.865,5.865
1.49,-1.916,10.73,1.198,23.46,-0.91,9.772,1.389,-17.595,1.582,10.785,1.007,35.191,0.0,17.595
1.495,-1.629,9.628,1.724,23.46,-0.91,9.245,2.06,-23.46,1.294,9.922,1.294,41.056,-5.865,23.46
1.5,-1.629,9.436,2.682,23.46,-1.102,8.766,3.449,-17.595,1.294,9.347,2.157,41.056,-11.73,23.46
1.5050000000000001,-1.677,9.676,4.215,17.595,-1.485,8.622,4.838,-11.73,1.438,9.203,3.595,46.921,-17.595,23.46
1.51,-1.581,9.245,5.365,17.595,-2.06,8.814,5.652,-11.73,1.726,9.059,4.889,52.786,-23.46,11.73
1.5150000000000001,-1.724,8.478,5.988,11.73,-2.299,8.67,6.179,-5.865,2.013,8.916,5.752,58.651,-23.46,11.73
1.52,-1.724,7.76,6.562,11.73,-2.108,8.478,6.754,-5.865,2.157,8.484,6.183,58.651,-17.595,11.73
1.5250000000000001,-1.533,7.233,7.089,11.73,-2.012,8.191,7.185,-5.865,2.013,8.053,6.759,52.786,-17.595,11.73
1.53,-1.533,6.898,7.425,11.73,-2.012,7.999,7.472,-5.865,1.869,7.765,7.19,52.786,-17.595,11.73
1.5350000000000001,-1.437,6.754,7.52,5.865,-1.916,7.999,7.425,0.0,1.869,7.621,7.334,41.056,-11.73,5.865
1.54,-1.629,6.514,7.616,-0.0,-2.251,7.999,7.377,0.0,1.869,7.478,7.334,35.191,-5.865,0.0
1.545,-1.82,6.562,7.281,-0.0,-2.203,7.904,7.041,5.865,2.157,7.478,7.19,29.326,-5.865,0.0
1.55,-1.629,6.802,7.089,-5.865,-1.485,7.568,6.85,11.73,2.013,7.478,7.046,17.595,0.0,0.0
1.555,-1.581,7.329,6.85,-5.865,-1.724,7.904,6.61,11.73,1.438,7.621,6.759,5.865,0.0,-5.865
1.56,-1.724,7.281,6.514,-11.73,-2.06,7.999,6.227,17.595,1.869,7.765,6.471,5.865,0.0,-11.73
1.565,-1.772,7.616,6.179,-11.73,-1.82,8.095,5.94,17.595,2.013,7.909,6.04,0.0,0.0,-11.73
1.57,-1.772,8.095,5.988,-17.595,-1.724,8.335,5.844,17.595,1.869,8.197,5.896,0.0,5.865,-17.595
1.575,-1.677,8.43,5.844,-11.73,-1.677,8.526,5.7,17.595,1.726,8.484,5.752,-5.865,5.865,-17.595
1.58,-1.677,8.766,5.7,-11.73,-1.629,8.622,5.556,11.73,1.726,8.772,5.608,-5.865,5.865,-11.73
1.585,-1.629,8.814,5.652,-5.865,-1.581,8.622,5.556,11.73,1.726,8.772,5.464,-5.865,0.0,-11.73
1.59,-1.629,8.718,5.7,-5.865,-1.581,8.574,5.604,5.865,1.726,8.772,5.464,-5.865,0.0,-5.865
1.595,-1.581,8.67,5.7,-0.0,-1.533,8.383,5.652,0.0,1.582,8.628,5.464,-5.865,0.0,0.0
1.6,-1.677,8.718,5.748,-0.0,-1.533,8.287,5.7,0.0,1.726,8.628,5.608,0.0,5.865,0.0
1.605,-1.533,8.67,5.844,-0.0,-1.437,8.383,5.748,0.0,1.582,8.628,5.608,0.0,0.0,0.0
1.61,-1.581,8.766,5.844,-0.0,-1.533,8.574,5.748,0.0,1.582,8.628,5.608,0.0,0.0,0.0
1.615,-1.724,8.957,5.844,-0.0,-1.533,8.814,5.796,0.0,1.726,8.916,5.608,5.865,0.0,0.0
1.62,-1.581,9.101,5.94,-0.0,-1.389,9.149,5.988,0.0,1.582,9.059,5.752,5.865,0.0,0.0
1.625,-1.581,9.293,6.131,-0.0,-1.389,9.436,6.083,0.0,1.582,9.347,5.896,5.865,0.0,0.0
1.6300000000000001,-1.485,9.484,6.179,5.865,-1.341,9.724,6.179,0.0,1.438,9.635,6.04,5.865,0.0,5.865
1.635,-1.485,9.532,6.323,5.865,-1.293,10.059,6.323,0.0,1.438,9.778,6.183,5.865,-5.865,5.865
1.6400000000000001,-1.341,9.58,6.467,5.865,-1.341,10.394,6.419,0.0,1.438,10.066,6.327,5.865,-5.865,5.865
1.645,-1.341,9.676,6.61,5.865,-1.437,10.73,6.61,0.0,1.438,10.21,6.327,5.865,-5.865,5.865
1.6500000000000001,-1.293,9.82,6.754,5.865,-1.485,11.065,6.706,0.0,1.438,10.497,6.615,0.0,-5.865,5.865
1.655,-1.293,10.155,6.85,-0.0,-1.293,11.257,7.137,0.0,1.438,10.785,6.615,-5.865,-5.865,0.0
1.6600000000000001,-1.198,11.161,7.329,-0.0,-1.245,11.496,7.472,5.865,1.294,11.36,7.19,-11.73,-5.865,0.0
1.665,-1.341,11.592,7.616,-5.865,-1.389,11.975,7.568,11.73,1.007,11.648,7.478,-17.595,0.0,0.0
1.67,-1.677,12.215,7.52,-11.73,-2.06,12.55,7.233,11.73,1.726,12.223,7.478,-17.595,0.0,-11.73
1.675,-1.677,12.358,7.185,-5.865,-2.299,12.885,6.946,5.865,2.013,12.654,7.19,-17.595,0.0,-11.73
1.68,-1.868,12.646,6.946,5.865,-2.06,12.885,6.706,-5.865,2.157,12.942,6.902,-17.595,0.0,0.0
1.685,-1.677,12.694,6.706,17.595,-1.533,12.55,6.514,-17.595,1.869,12.942,6.615,-23.46,0.0,11.73
1.69,-1.629,12.502,6.467,23.46,-1.198,12.071,6.275,-23.46,1.582,12.654,6.471,-23.46,5.865,23.46
1.695,-1.533,12.215,6.179,29.326,-1.198,11.592,5.94,-29.326,1.438,12.223,6.183,-23.46,5.865,23.46
1.7,-1.677,11.64,5.892,35.191,-1.341,11.161,5.652,-35.191,1.438,11.792,5.752,-23.46,0.0,29.326
1.705,-1.677,11.113,5.652,35.191,-1.437,10.634,5.556,-35.191,1.582,11.216,5.608,-17.595,0.0,35.191
1.71,-1.724,10.586,5.556,41.056,-1.389,10.107,5.461,-41.056,1.582,10.641,5.464,-17.595,0.0,35.191
1.715,-1.677,9.963,5.461,41.056,-1.341,9.532,5.317,-46.921,1.582,10.21,5.321,-17.595,-5.865,41.056
1.72,-1.533,9.293,5.365,46.921,-1.245,9.053,5.221,-46.921,1.438,9.635,5.177,-17.595,-5.865,46.921
1.725,-1.437,8.718,5.317,52.786,-1.15,8.574,5.173,-52.786,1.438,9.059,5.177,-11.73,-5.865,46.921
1.73,-1.437,8.239,5.221,52.786,-1.006,8.095,5.173,-52.786,1.294,8.484,5.033,-11.73,-11.73,52.786
1.735,-1.293,7.808,5.269,52.786,-0.862,7.664,5.269,-52.786,1.15,8.053,5.033,-17.595,-11.73,52.786
1.74,-1.198,7.329,5.317,52.786,-0.814,7.185,5.269,-52.786,1.15,7.621,5.177,-17.595,-11.73,52.786
1.745,-1.102,6.898,5.365,52.786,-1.006,6.706,5.317,-52.786,1.007,7.19,5.177,-17.595,-17.595,52.786
1.75,-1.15,6.467,5.413,58.651,-0.958,6.227,5.413,-58.651,1.15,6.615,5.177,-17.595,-17.595,52.786
1.7550000000000001,-0.958,5.988,5.556,58.651,-0.91,5.892,5.556,-52.786,1.007,6.183,5.321,-17.595,-17.595,52.786
1.76,-1.006,5.413,5.652,58.651,-0.91,5.413,5.604,-58.651,1.007,5.752,5.464,-17.595,-17.595,58.651
1.7650000000000001,-0.958,4.838,5.748,58.651,-0.862,4.79,5.7,-58.651,1.007,5.177,5.464,-17.595,-17.595,58.651
1.77,-0.766,4.215,5.844,58.651,-0.719,4.263,5.844,-52.786,0.863,4.602,5.608,-17.595,-17.595,58.651
1.7750000000000001,-0.814,3.784,5.94,52.786,-0.814,3.784,5.94,-46.921,0.863,4.17,5.752,-23.46,-17.595,52.786
1.78,-0.766,3.449,6.035,52.786,-0.862,3.305,6.035,-46.921,0.863,3.739,5.752,-23.46,-17.595,52.786
1.7850000000000001,-0.814,3.018,6.179,46.921,-0.958,2.874,6.179,-41.056,0.863,3.164,5.896,-23.46,-17.595,46.921
1.79,-0.766,2.635,6.275,41.056,-1.006,2.443,6.227,-35.191,1.007,2.876,6.04,-23.46,-17.595,41.056
1.795,-0.862,2.395,6.275,35.191,-1.15,1.964,6.227,-29.326,1.007,2.445,6.04,-23.46,-17.595,35.191
1.8,-0.91,1.964,6.275,29.326,-1.245,1.581,6.179,-23.46,1.15,2.013,6.04,-23.46,-17.595,29.326
1.805,-0.862,1.485,6.275,23.46,-1.198,1.102,6.227,-17.595,1.15,1.582,6.04,-23.46,-11.73,29.326
1.81,-0.91,1.054,6.275,17.595,-1.054,0.623,6.179,-11.73,1.15,1.15,6.04,-23.46,-11.73,23.46
1.815,-0.862,0.719,6.227,11.73,-0.958,0.383,6.131,-5.865,1.007,0.719,6.04,-17.595,-11.73,11.73
1.82,-0.766,0.335,6.179,-0.0,-0.958,0.335,6.035,5.865,1.007,0.431,5.896,-17.595,-5.865,5.865
1.825,-0.719,0.048,6.035,-5.865,-1.006,0.623,5.844,17.595,1.007,0.288,5.896,-17.595,-5.865,-5.865
1.83,-0.479,-0.048,5.796,-17.595,-0.91,0.814,5.604,23.46,0.863,0.431,5.608,-17.595,-5.865,-17.595
1.835,-0.527,0.096,5.7,-23.46,-0.623,1.102,5.652,29.326,0.863,0.575,5.464,-17.595,0.0,-23.46
1.84,-0.24,0.479,5.748,-35.191,-0.335,1.533,5.7,41.056,0.575,0.863,5.464,-23.46,0.0,-35.191
1.845,0.0,1.006,5.7,-41.056,-0.096,1.82,5.556,46.921,0.288,1.294,5.464,-29.326,0.0,-41.056
1.85,-0.048,1.581,5.509,-46.921,0.096,2.012,5.365,52.786,0.0,1.726,5.321,-35.191,5.865,-46.921
1.855,-0.048,2.012,5.269,-52.786,-0.096,2.251,5.173,58.651,0.0,2.013,5.177,-41.056,5.865,-52.786
1.86,-0.096,2.347,5.125,-58.651,-0.144,2.443,5.03,64.516,0.144,2.301,4.889,-41.056,5.865,-58.651
1.865,-0.144,2.874,5.03,-58.651,-0.048,2.682,4.934,64.516,0.288,2.588,4.889,-41.056,5.865,-64.516
1.87,-0.144,3.449,4.934,-64.516,0.144,2.874,4.934,70.381,0.144,3.02,4.745,-41.056,5.865,-64.516
1.875,-0.192,3.88,4.886,-64.516,0.24,3.161,4.838,70.381,0.0,3.307,4.745,-35.191,5.865,-64.516
1.8800000000000001,-0.048,4.359,4.838,-64.516,0.192,3.688,4.79,70.381,0.0,3.739,4.745,-29.326,0.0,-64.516
1.885,-0.144,4.934,4.838,-64.516,0.144,4.311,4.79,76.246,0.0,4.17,4.602,-29.326,0.0,-70.381
1.8900000000000001,-0.096,5.556,4.886,-70.381,0.192,5.077,4.886,76.246,0.0,4.889,4.745,-17.595,0.0,-70.381
1.895,-0.048,6.083,5.03,-70.381,0.192,5.844,4.982,76.246,0.0,5.608,4.745,-11.73,0.0,-70.381
1.9000000000000001,-0.096,6.562,5.077,-70.381,0.144,6.706,5.03,76.246,0.0,6.183,4.889,-5.865,-5.865,-76.246
1.905,0.144,7.137,5.269,-70.381,-0.048,8.239,5.317,76.246,-0.144,6.902,5.033,-5.865,-5.865,-70.381
1.9100000000000001,-4.359,23.663,6.323,-64.516,-3.257,24.142,5.221,64.516,2.013,17.687,5.608,-5.865,-5.865,-70.381
1.915,1.245,24.19,2.73,-46.921,4.119,24.381,-0.287,35.191,1.007,41.558,4.026,41.056,-5.865,-58.651
1.92,-2.203,24.19,-3.88,-11.73,2.06,24.381,-4.886,-17.595,-2.013,32.211,-2.157,93.842,-17.595,-23.46
1.925,-3.497,23.711,-5.269,64.516,-1.533,17.675,-3.832,-105.572,1.15,25.74,-5.321,105.572,-35.191,41.056
1.93,-2.778,14.418,-2.012,140.762,-2.874,11.065,0.287,-158.358,2.301,16.681,-3.307,117.302,-70.381,117.302
1.935,-2.587,8.766,2.203,170.088,-2.874,6.562,4.598,-175.953,3.164,10.354,1.007,123.167,-87.977,164.223
1.94,-1.198,4.072,6.514,170.088,-2.874,4.503,8.239,-164.223,2.301,5.608,5.321,123.167,-87.977,170.088
1.945,-0.575,2.587,9.388,152.493,-4.167,6.467,9.963,-129.032,2.157,4.026,8.628,123.167,-87.977,158.358
1.95,-1.102,3.928,10.251,111.437,-4.742,9.676,10.011,-87.977,2.876,5.752,10.066,111.437,-76.246,117.302
1.955,-1.868,5.03,10.059,76.246,-4.503,11.304,9.58,-58.651,3.595,8.197,9.922,93.842,-58.651,82.111
1.96,-1.916,6.514,9.772,52.786,-3.257,11.688,9.58,-41.056,3.307,9.491,9.635,64.516,-35.191,52.786
1.965,-2.156,8.574,9.676,35.191,-2.395,11.688,9.484,-23.46,2.588,10.21,9.635,29.326,-17.595,35.191
1.97,-2.491,9.915,9.293,17.595,-2.491,11.4,8.957,-5.865,2.445,10.929,9.347,0.0,-11.73,23.46
1.975,-2.73,10.203,8.622,5.865,-2.443,10.251,8.383,0.0,2.588,10.929,8.772,-17.595,-11.73,11.73
1.98,-3.257,10.299,8.239,-0.0,-2.299,9.293,8.095,5.865,2.876,10.21,8.197,-23.46,-11.73,0.0
1.985,-2.682,9.772,7.951,-5.865,-1.868,8.862,7.568,11.73,2.588,9.635,7.909,-23.46,-11.73,-5.865
1.99,-2.108,9.197,7.281,-11.73,-1.677,8.574,6.85,17.595,2.013,9.203,7.334,-23.46,-17.595,-11.73
1.995,-1.677,8.67,6.562,-11.73,-1.677,8.287,6.371,11.73,1.726,8.772,6.615,-17.595,-23.46,-11.73
2.0,-1.533,8.478,6.323,-11.73,-1.533,8.095,6.035,11.73,1.726,8.484,6.183,-17.595,-23.46,-11.73
2.005,-1.006,8.143,5.94,-11.73,-0.958,7.951,5.604,11.73,1.438,8.197,5.896,-11.73,-23.46,-11.73
2.0100000000000002,-0.766,7.856,5.461,-5.865,-0.671,7.856,5.173,11.73,0.863,8.053,5.321,-11.73,-23.46,-5.865
2.015,-0.575,7.999,5.125,-5.865,-0.527,7.856,4.934,5.865,0.719,7.909,5.033,-11.73,-23.46,-5.865
2.02,-0.671,8.287,4.982,-5.865,-0.527,7.999,4.838,5.865,0.575,8.053,4.745,-11.73,-23.46,-5.865
2.025,-0.623,8.67,4.886,-0.0,-0.575,8.239,4.838,0.0,0.719,8.34,4.745,-5.865,-23.46,0.0
2.0300000000000002,-0.623,8.862,4.982,-0.0,-0.623,8.239,4.982,-5.865,0.719,8.484,4.745,-5.865,-23.46,0.0
2.035,-0.719,8.766,5.173,11.73,-0.719,8.191,5.173,-11.73,0.719,8.484,4.889,0.0,-23.46,5.865
2.04,-0.671,8.622,5.365,17.595,-0.91,8.191,5.317,-23.46,0.719,8.484,5.033,0.0,-23.46,17.595
2.045,-0.671,8.43,5.461,29.326,-0.958,8.143,5.365,-29.326,0.863,8.34,5.321,5.865,-23.46,23.46
2.05,-0.766,8.287,5.509,35.191,-0.91,8.095,5.365,-35.191,1.007,8.34,5.321,5.865,-23.46,29.326
2.055,-0.766,8.191,5.461,41.056,-0.766,8.047,5.365,-41.056,0.863,8.197,5.321,5.865,-17.595,41.056
2.06,-0.814,8.143,5.413,46.921,-0.671,8.143,5.365,-46.921,0.863,8.197,5.321,5.865,-17.595,41.056
2.065,-0.862,8.239,5.413,46.921,-0.814,8.383,5.317,-46.921,0.863,8.34,5.177,5.865,-17.595,46.921
2.07,-0.958,8.335,5.413,46.921,-0.91,8.574,5.365,-46.921,0.863,8.484,5.177,5.865,-17.595,46.921
2.075,-0.862,8.335,5.461,46.921,-0.91,8.622,5.413,-46.921,1.007,8.484,5.321,5.865,-17.595,46.921
2.08,-0.862,8.239,5.509,46.921,-0.862,8.478,5.461,-46.921,1.007,8.484,5.321,5.865,-17.595,46.921
2.085,-0.862,8.239,5.556,46.921,-0.766,8.43,5.461,-46.921,0.863,8.484,5.321,5.865,-17.595,46.921
2.09,-0.814,8.191,5.556,46.921,-0.671,8.478,5.509,-41.056,0.863,8.34,5.464,5.865,-17.595,41.056
2.095,-0.766,8.335,5.604,41.056,-0.623,8.526,5.509,-35.191,0.719,8.484,5.464,0.0,-17.595,41.056
2.1,-0.814,8.478,5.604,35.191,-0.671,8.526,5.556,-35.191,0.719,8.484,5.464,0.0,-23.46,35.191
2.105,-0.766,8.526,5.604,35.191,-0.719,8.526,5.556,-29.326,0.719,8.628,5.464,0.0,-23.46,35.191
2.11,-0.862,8.574,5.7,29.326,-0.766,8.478,5.652,-29.326,0.863,8.628,5.464,0.0,-23.46,29.326
2.115,-0.814,8.622,5.796,29.326,-0.719,8.526,5.748,-23.46,0.863,8.628,5.608,0.0,-23.46,29.326
2.12,-0.862,8.766,5.844,29.326,-0.719,8.478,5.796,-23.46,0.863,8.628,5.608,0.0,-23.46,23.46
2.125,-0.814,8.862,5.892,23.46,-0.719,8.478,5.796,-23.46,0.863,8.628,5.752,0.0,-23.46,23.46
2.13,-0.862,8.862,5.892,23.46,-0.719,8.43,5.796,-23.46,0.863,8.628,5.752,5.865,-23.46,23.46
2.1350000000000002,-0.814,8.862,5.892,23.46,-0.671,8.383,5.892,-17.595,0.863,8.628,5.752,5.865,-23.46,23.46
2.14,-0.719,8.909,5.988,23.46,-0.623,8.43,5.94,-17.595,0.719,8.628,5.896,5.865,-29.326,23.46
2.145,-0.719,9.005,5.988,23.46,-0.671,8.43,5.892,-23.46,0.719,8.628,5.896,5.865,-29.326,23.46
2.15,-0.719,9.053,5.988,23.46,-0.719,8.526,5.892,-17.595,0.719,8.772,5.752,17.595,-29.326,23.46
2.1550000000000002,-0.671,9.149,5.94,23.46,-0.671,8.574,5.844,-23.46,0.719,8.916,5.752,23.46,-29.326,23.46
2.16,-0.719,9.293,5.844,29.326,-0.575,8.574,5.7,-23.46,0.719,8.916,5.752,29.326,-29.326,23.46
2.165,-0.766,9.388,5.652,29.326,-0.527,8.67,5.365,-29.326,0.719,8.916,5.608,29.326,-29.326,29.326
2.17,-0.623,9.676,5.556,35.191,-0.287,8.622,5.509,-35.191,0.575,9.059,5.321,35.191,-29.326,29.326
2.1750000000000003,-0.575,9.82,5.509,35.191,-0.144,8.67,5.365,-35.191,0.431,9.203,5.464,41.056,-29.326,35.191
2.18,-0.623,9.82,5.269,41.056,-0.144,8.718,5.221,-41.056,0.431,9.203,5.177,46.921,-29.326,35.191
2.185,-0.719,9.628,5.173,46.921,-0.192,8.766,5.221,-46.921,0.431,9.203,5.033,52.786,-35.191,41.056
2.19,-0.671,9.724,5.221,52.786,-0.192,8.862,5.221,-46.921,0.431,9.203,5.033,64.516,-35.191,46.921
2.195,-0.671,9.82,5.125,52.786,-0.192,9.053,5.125,-52.786,0.431,9.347,5.033,70.381,-41.056,46.921
2.2,-0.719,9.724,4.934,58.651,-0.24,9.436,4.694,-58.651,0.431,9.491,4.889,76.246,-46.921,52.786
2.205,-0.479,9.293,3.88,58.651,0.048,9.867,3.832,-58.651,0.431,9.778,4.026,76.246,-46.921,58.651
2.21,-0.623,8.622,2.682,64.516,0.24,10.346,2.443,-64.516,0.288,9.778,3.164,76.246,-52.786,58.651
2.215,-0.671,8.909,2.156,70.381,0.671,10.49,2.156,-70.381,0.144,9.778,2.157,76.246,-52.786,64.516
2.22,-0.335,9.149,2.108,76.246,0.862,10.73,2.156,-70.381,-0.288,9.922,2.013,64.516,-58.651,70.381
2.225,-0.24,9.436,2.156,76.246,0.766,10.873,2.156,-70.381,-0.431,10.21,2.013,52.786,-70.381,76.246
2.23,-0.287,9.724,2.108,76.246,0.527,11.017,2.156,-70.381,-0.288,10.497,2.013,46.921,-76.246,70.381
2.235,-0.383,9.915,2.108,76.246,0.335,11.257,2.108,-76.246,-0.144,10.641,2.013,35.191,-82.111,70.381
2.24,-0.383,10.011,2.012,76.246,0.431,11.352,2.012,-76.246,0.0,10.785,1.869,29.326,-87.977,76.246
2.245,-0.431,10.107,1.82,82.111,0.479,11.4,1.82,-82.111,0.0,10.929,1.726,17.595,-93.842,76.246
2.25,-0.527,10.251,1.724,82.111,0.623,11.209,1.868,-87.977,-0.144,10.929,1.582,5.865,-99.707,82.111
2.255,-0.431,10.346,1.772,87.977,1.006,10.969,2.012,-87.977,-0.288,10.929,1.726,0.0,-105.572,82.111
2.2600000000000002,-0.335,10.49,1.964,93.842,1.198,10.634,2.299,-93.842,-0.431,10.785,1.869,-5.865,-111.437,87.977
2.265,-0.24,10.634,2.299,93.842,1.341,10.251,2.778,-93.842,-0.575,10.641,2.157,-11.73,-123.167,93.842
2.27,-0.24,10.586,2.778,99.707,1.198,9.82,3.305,-99.707,-0.719,10.354,2.732,-11.73,-129.032,93.842
2.275,-0.048,10.538,3.257,105.572,1.006,9.436,3.784,-105.572,-0.575,10.066,3.164,-11.73,-140.762,99.707
2.2800000000000002,-0.096,10.346,3.784,105.572,1.006,9.053,4.359,-105.572,-0.575,9.778,3.595,-5.865,-152.493,99.707
2.285,0.0,10.059,4.359,111.437,1.054,8.622,5.03,-111.437,-0.575,9.491,4.314,-5.865,-158.358,105.572
2.29,0.192,9.58,5.03,111.437,1.054,8.143,5.748,-117.302,-0.719,8.916,4.889,5.865,-164.223,111.437
2.295,0.383,8.957,5.796,117.302,1.15,7.52,6.658,-123.167,-0.719,8.484,5.608,5.865,-170.088,117.302
2.3000000000000003,0.623,8.239,6.754,123.167,1.245,6.802,7.664,-123.167,-0.863,7.765,6.615,17.595,-175.953,117.302
2.305,0.766,7.52,7.808,123.167,1.245,5.988,8.862,-123.167,-1.007,7.046,7.621,23.46,-181.818,123.167
2.31,1.198,6.658,9.053,129.032,1.006,5.173,10.107,-129.032,-1.15,6.183,8.772,29.326,-181.818,123.167
2.315,1.389,5.556,10.394,129.032,0.671,4.503,11.496,-123.167,-1.15,5.321,10.21,35.191,-187.683,123.167
2.32,1.581,4.551,11.783,123.167,0.287,3.928,12.837,-123.167,-1.007,4.458,11.504,41.056,-187.683,123.167
2.325,1.581,3.497,13.268,123.167,-0.096,3.401,14.178,-117.302,-0.863,3.739,12.942,41.056,-181.818,117.302
2.33,1.868,2.395,14.657,111.437,-0.431,2.922,15.52,-105.572,-0.719,2.876,14.38,41.056,-170.088,111.437
2.335,1.964,1.437,15.951,105.572,-0.91,2.443,16.573,-99.707,-0.575,2.157,15.674,35.191,-164.223,105.572
2.34,1.916,0.719,17.052,93.842,-1.389,2.06,17.531,-93.842,-0.288,1.582,16.825,29.326,-146.628,93.842
2.345,1.868,0.096,18.01,87.977,-1.581,1.772,18.298,-76.246,0.0,1.15,17.687,17.595,-129.032,87.977
2.35,2.012,-0.287,18.729,70.381,-1.82,1.772,18.825,-64.516,0.144,0.863,18.55,5.865,-105.572,76.246
2.355,1.629,-0.24,19.16,58.651,-2.06,1.724,19.064,-46.921,0.431,0.719,18.982,-5.865,-82.111,58.651
2.36,1.629,0.287,19.304,46.921,-1.964,1.916,19.112,-35.191,0.575,1.007,19.269,-17.595,-58.651,46.921
2.365,1.341,1.006,19.16,29.326,-1.581,2.395,18.825,-17.595,0.575,1.438,19.269,-29.326,-35.191,35.191
2.37,1.293,1.82,18.681,11.73,-1.772,3.114,18.346,-5.865,0.431,2.013,18.838,-41.056,-11.73,17.595
2.375,1.006,2.778,18.25,-0.0,-2.108,3.688,17.915,5.865,0.575,2.876,18.263,-46.921,11.73,5.865
2.38,0.623,3.976,17.675,-5.865,-2.156,3.928,17.244,11.73,1.007,3.595,17.831,-52.786,29.326,-5.865
2.3850000000000002,0.287,4.79,16.861,-11.73,-2.012,3.928,16.43,17.595,1.15,4.17,17.112,-58.651,52.786,-11.73
2.39,0.144,5.125,15.999,-11.73,-1.772,4.167,15.472,17.595,1.15,4.458,16.249,-52.786,70.381,-11.73
2.395,0.192,5.365,14.897,-17.595,-1.772,4.551,14.37,23.46,1.007,4.602,15.243,-46.921,82.111,-17.595
2.4,-0.048,5.7,13.795,-17.595,-1.868,5.03,13.316,23.46,1.15,5.033,14.092,-41.056,93.842,-17.595
2.4050000000000002,-0.096,6.131,12.694,-23.46,-1.724,5.556,12.119,29.326,1.15,5.464,12.942,-35.191,111.437,-23.46
2.41,-0.144,6.371,11.304,-29.326,-1.245,6.275,10.586,29.326,1.007,6.04,11.792,-29.326,123.167,-23.46
2.415,-0.287,6.467,9.436,-29.326,-0.814,6.993,8.622,29.326,0.863,6.471,10.066,-23.46,129.032,-23.46
2.42,-0.383,6.323,7.472,-23.46,-0.24,7.568,6.514,29.326,0.719,6.759,8.053,-23.46,140.762,-23.46
2.4250000000000003,-0.527,6.179,5.173,-23.46,0.383,8.287,4.407,29.326,0.288,7.19,5.752,-29.326,140.762,-23.46
2.43,-0.862,6.61,3.305,-23.46,0.479,9.101,2.73,29.326,0.288,7.765,3.739,-35.191,140.762,-23.46
2.435,-1.245,7.52,1.629,-23.46,0.527,9.963,1.198,29.326,0.288,8.484,2.013,-46.921,134.897,-23.46
2.44,-2.395,9.532,0.719,-23.46,0.623,10.778,-0.144,29.326,0.431,9.491,0.719,-64.516,129.032,-23.46
2.445,-1.437,8.957,-0.144,-23.46,0.91,11.161,-0.814,23.46,-0.288,9.922,-0.288,-70.381,111.437,-23.46
2.45,-1.437,10.49,-1.389,-17.595,0.862,11.544,-1.485,23.46,0.719,11.073,-1.15,-87.977,99.707,-17.595
2.455,-1.677,11.544,-1.82,-23.46,1.054,11.831,-1.868,23.46,0.0,11.504,-1.869,-93.842,82.111,-23.46
2.46,-1.868,12.454,-2.347,-23.46,0.814,12.215,-2.347,23.46,0.288,12.079,-2.301,-99.707,70.381,-23.46
2.465,-2.012,13.46,-2.682,-17.595,0.527,12.646,-2.73,17.595,0.575,12.942,-2.732,-93.842,46.921,-23.46
2.47,-2.06,14.131,-2.97,-11.73,0.623,12.454,-2.874,5.865,0.719,13.373,-3.02,-93.842,29.326,-11.73
2.475,-2.012,14.322,-3.066,-0.0,0.335,12.694,-3.066,-5.865,0.575,13.517,-3.164,-87.977,11.73,0.0
2.48,-1.868,14.562,-3.161,11.73,0.766,12.694,-3.066,-23.46,0.575,13.517,-3.307,-76.246,-5.865,11.73
2.485,-1.677,15.089,-3.018,35.191,0.671,12.598,-2.778,-41.056,0.288,13.805,-3.307,-64.516,-23.46,29.326
2.49,-1.82,15.328,-2.778,52.786,0.766,12.262,-2.539,-64.516,0.431,13.805,-3.02,-46.921,-35.191,46.921
2.495,-1.533,15.136,-2.299,70.381,1.15,11.975,-2.012,-76.246,0.288,13.517,-2.588,-35.191,-52.786,64.516
2.5,-0.862,14.466,-2.012,87.977,1.245,11.879,-1.724,-93.842,-0.288,13.086,-2.157,-17.595,-70.381,82.111
2.505,-1.293,13.939,-1.772,99.707,1.054,11.688,-1.533,-105.572,-0.144,12.942,-1.869,0.0,-82.111,93.842
2.5100000000000002,-0.479,13.46,-1.629,111.437,1.293,11.64,-1.102,-117.302,-0.288,12.654,-1.869,17.595,-99.707,105.572
2.515,-0.431,12.646,-0.91,123.167,1.437,11.304,-0.383,-129.032,-0.575,12.223,-1.15,29.326,-111.437,117.302
2.52,0.24,11.783,-0.335,134.897,1.724,10.73,0.383,-140.762,-0.863,11.504,-0.575,41.056,-123.167,129.032
2.525,0.623,10.586,0.479,140.762,1.677,10.299,1.102,-140.762,-1.15,10.785,0.288,46.921,-134.897,140.762
2.5300000000000002,0.862,9.532,1.198,146.628,1.485,9.867,1.82,-146.628,-1.15,10.066,1.007,46.921,-146.628,140.762
2.535,1.102,8.718,2.012,146.628,1.437,9.436,2.539,-140.762,-1.294,9.491,1.726,46.921,-152.493,140.762
2.54,1.198,7.999,2.778,140.762,1.198,9.388,3.497,-140.762,-1.438,8.916,2.445,41.056,-158.358,140.762
2.545,1.198,7.568,3.593,140.762,1.054,9.149,4.024,-140.762,-1.15,8.628,3.307,29.326,-158.358,140.762
2.5500000000000003,1.533,7.089,4.215,134.897,1.198,9.005,4.694,-134.897,-1.294,8.34,3.883,23.46,-158.358,134.897
2.555,1.341,6.802,4.886,129.032,1.054,8.67,5.365,-129.032,-1.294,8.053,4.602,5.865,-158.358,129.032
2.56,1.629,6.658,5.509,129.032,1.006,8.287,5.892,-129.032,-1.294,7.765,5.321,-11.73,-158.358,129.032
2.565,1.341,6.514,6.083,123.167,0.862,7.904,6.467,-123.167,-1.294,7.478,5.896,-23.46,-152.493,123.167
2.57,1.245,6.562,6.658,123.167,0.814,7.472,7.041,-117.302,-1.15,7.19,6.327,-41.056,-152.493,117.302
2.575,1.485,6.514,6.946,117.302,0.862,7.185,7.377,-111.437,-1.15,6.902,6.902,-46.921,-146.628,117.302
2.58,1.389,6.514,7.185,105.572,0.623,6.993,7.472,-105.572,-1.007,6.759,7.19,-52.786,-140.762,105.572
2.585,1.245,6.467,7.281,105.572,0.527,6.898,7.568,-105.572,-0.863,6.615,7.19,-64.516,-140.762,105.572
2.59,1.054,6.419,7.472,99.707,0.575,6.946,7.664,-99.707,-0.719,6.615,7.478,-64.516,-134.897,99.707
2.595,1.006,6.323,7.616,99.707,0.671,6.898,7.664,-93.842,-0.719,6.615,7.478,-70.381,-129.032,93.842
2.6,0.958,6.131,7.472,93.842,0.766,6.85,7.712,-87.977,-1.007,6.471,7.478,-76.246,-123.167,93.842
2.605,0.862,6.083,7.472,93.842,0.766,6.898,7.664,-87.977,-0.863,6.471,7.478,-76.246,-123.167,87.977
2.61,1.102,6.179,7.568,87.977,0.958,7.185,7.808,-82.111,-1.007,6.615,7.478,-87.977,-117.302,87.977
2.615,1.102,6.514,7.664,76.246,0.766,7.425,7.76,-76.246,-1.007,6.759,7.621,-93.842,-117.302,76.246
2.62,0.766,6.562,7.568,70.381,0.527,7.472,7.76,-70.381,-0.863,7.046,7.621,-99.707,-117.302,70.381
2.625,0.814,6.562,7.52,70.381,0.383,7.425,7.664,-64.516,-0.575,7.046,7.478,-99.707,-111.437,70.381
2.63,0.958,6.61,7.472,64.516,0.383,7.472,7.712,-64.516,-0.575,7.046,7.478,-111.437,-111.437,64.516
2.6350000000000002,0.431,7.041,7.425,58.651,0.335,7.377,7.52,-58.651,-0.431,7.19,7.478,-117.302,-105.572,58.651
2.64,0.671,7.281,7.281,58.651,0.479,7.425,7.52,-58.651,-0.431,7.334,7.334,-123.167,-105.572,58.651
2.645,0.575,7.281,7.281,58.651,0.431,7.52,7.425,-52.786,-0.575,7.334,7.334,-123.167,-99.707,52.786
2.65,0.575,7.425,7.089,52.786,0.24,7.616,7.233,-52.786,-0.431,7.478,7.19,-123.167,-99.707,52.786
2.6550000000000002,0.527,7.568,6.946,52.786,0.24,7.664,7.089,-46.921,-0.431,7.621,7.046,-123.167,-99.707,52.786
2.66,0.431,7.76,6.754,46.921,0.24,7.616,6.898,-46.921,-0.288,7.621,6.759,-123.167,-93.842,46.921
2.665,0.335,7.808,6.562,41.056,0.24,7.76,6.754,-41.056,-0.288,7.765,6.615,-123.167,-93.842,41.056
2.67,0.335,7.856,6.467,41.056,0.096,7.951,6.61,-41.056,-0.288,7.765,6.471,-123.167,-93.842,41.056
2.6750000000000003,0.192,8.047,6.371,41.056,0.048,8.095,6.562,-41.056,-0.144,8.053,6.327,-123.167,-87.977,41.056
2.68,0.096,8.383,6.323,41.056,0.0,8.047,6.514,-35.191,0.0,8.197,6.327,-123.167,-87.977,41.056
2.685,-0.048,8.526,6.275,41.056,-0.096,8.047,6.419,-35.191,0.0,8.197,6.327,-123.167,-87.977,35.191
2.69,-0.096,8.478,6.179,41.056,-0.192,7.999,6.371,-41.056,0.144,8.197,6.183,-123.167,-87.977,41.056
2.695,-0.192,8.335,6.131,41.056,-0.287,7.856,6.275,-41.056,0.288,8.197,6.183,-117.302,-82.111,41.056
2.7,-0.287,8.143,6.035,46.921,-0.335,7.664,6.131,-41.056,0.288,7.909,6.04,-117.302,-82.111,41.056
2.705,-0.383,8.047,5.94,41.056,-0.383,7.472,6.131,-41.056,0.431,7.909,5.896,-111.437,-82.111,41.056
2.71,-0.431,7.904,5.988,41.056,-0.479,7.52,6.179,-41.056,0.575,7.765,5.896,-111.437,-82.111,41.056
2.715,-0.335,7.664,6.083,41.056,-0.527,7.568,6.179,-41.056,0.431,7.621,6.04,-111.437,-82.111,41.056
2.72,-0.335,7.472,6.083,41.056,-0.719,7.52,6.227,-41.056,0.575,7.621,6.04,-105.572,-82.111,41.056
2.725,-0.527,7.377,6.131,41.056,-0.814,7.425,6.275,-41.056,0.719,7.478,6.04,-105.572,-76.246,41.056
2.73,-0.623,7.425,6.227,35.191,-0.814,7.472,6.371,-35.191,0.719,7.478,6.04,-105.572,-76.246,35.191
2.735,-0.671,7.52,6.227,35.191,-1.006,7.52,6.371,-29.326,0.863,7.478,6.183,-105.572,-76.246,35.191
2.74,-0.814,7.616,6.275,29.326,-1.102,7.472,6.323,-29.326,1.007,7.621,6.183,-111.437,-70.381,29.326
2.745,-0.671,7.808,6.275,29.326,-1.198,7.568,6.371,-23.46,1.007,7.621,6.183,-105.572,-70.381,29.326
2.75,-1.006,7.856,6.275,23.46,-1.15,7.856,6.514,-23.46,1.15,7.765,6.183,-105.572,-70.381,23.46
2.755,-0.766,8.047,6.467,23.46,-1.102,8.239,6.467,-23.46,1.007,8.053,6.327,-105.572,-64.516,23.46
2.7600000000000002,-0.671,8.43,6.371,23.46,-1.102,8.574,6.419,-17.595,1.007,8.34,6.327,-105.572,-64.516,23.46
2.765,-0.91,8.335,6.275,17.595,-1.198,8.814,6.275,-17.595,1.15,8.628,6.183,-105.572,-58.651,17.595
2.77,-0.958,8.239,6.083,17.595,-1.485,8.957,6.083,-17.595,1.15,8.628,6.04,-105.572,-58.651,17.595
2.775,-0.91,9.245,5.748,23.46,-1.245,8.957,5.988,-17.595,1.294,8.772,5.896,-105.572,-58.651,17.595
2.7800000000000002,-1.006,8.862,6.083,17.595,-0.958,9.388,6.275,-17.595,1.15,8.772,5.896,-111.437,-52.786,17.595
2.785,-0.862,9.58,5.988,11.73,-1.102,9.341,6.083,-11.73,1.007,9.491,6.04,-111.437,-52.786,17.595
2.79,-1.15,10.203,5.796,11.73,-1.293,9.532,5.748,-11.73,1.15,9.778,5.896,-111.437,-46.921,11.73
2.795,-1.198,10.442,5.509,11.73,-1.389,9.82,5.461,-5.865,1.294,10.066,5.608,-111.437,-46.921,11.73
2.8000000000000003,-1.437,10.778,5.221,11.73,-1.15,10.73,4.934,-11.73,1.438,10.354,5.321,-105.572,-46.921,5.865
2.805,-1.198,11.592,4.503,11.73,-1.198,10.73,4.407,-11.73,1.15,11.36,4.602,-99.707,-46.921,11.73
2.81,-1.677,10.969,4.359,11.73,-1.054,10.059,4.407,-11.73,1.438,10.929,4.17,-93.842,-52.786,11.73
2.815,-1.389,11.017,4.263,23.46,-1.102,10.059,4.215,-29.326,1.294,10.497,4.17,-93.842,-46.921,17.595
2.82,-1.581,11.161,4.119,35.191,-1.245,10.442,4.072,-41.056,1.438,10.641,4.026,-87.977,-52.786,29.326
2.825,-1.533,10.538,4.024,41.056,-1.485,9.963,4.024,-41.056,1.582,10.785,3.883,-82.111,-52.786,41.056
2.83,-1.245,9.436,3.88,41.056,-1.198,9.293,3.736,-41.056,1.438,9.778,3.883,-76.246,-52.786,41.056
2.835,-1.437,9.388,3.545,41.056,-1.102,9.101,3.449,-41.056,1.294,9.347,3.595,-76.246,-52.786,41.056
2.84,-1.533,9.293,3.305,41.056,-1.293,9.341,3.257,-41.056,1.438,9.347,3.307,-76.246,-58.651,41.056
2.845,-1.533,8.957,3.114,46.921,-1.485,9.293,3.018,-41.056,1.582,9.347,3.02,-76.246,-58.651,41.056
2.85,-1.485,8.574,2.922,46.921,-1.485,8.957,2.874,-41.056,1.582,9.203,2.876,-76.246,-58.651,41.056
2.855,-1.533,8.383,2.874,41.056,-1.437,8.574,2.874,-41.056,1.582,8.772,2.732,-76.246,-58.651,41.056
2.86,-1.629,8.287,2.778,41.056,-1.389,8.287,2.874,-35.191,1.582,8.484,2.732,-82.111,-58.651,35.191
2.865,-1.581,8.143,2.73,35.191,-1.581,8.095,2.826,-35.191,1.582,8.34,2.732,-87.977,-58.651,35.191
2.87,-1.677,8.143,2.826,35.191,-1.724,8.143,2.874,-35.191,1.726,8.197,2.588,-87.977,-58.651,35.191
2.875,-1.677,8.287,2.826,29.326,-1.724,8.239,2.874,-29.326,1.869,8.34,2.732,-87.977,-58.651,29.326
2.88,-1.82,8.526,2.826,29.326,-1.82,8.43,2.778,-29.326,1.869,8.484,2.732,-87.977,-58.651,29.326
2.8850000000000002,-1.868,8.67,2.73,29.326,-1.868,8.526,2.682,-29.326,2.013,8.628,2.588,-82.111,-58.651,29.326
2.89,-1.868,8.526,2.635,29.326,-1.868,8.526,2.682,-29.326,2.013,8.772,2.588,-82.111,-58.651,29.326
2.895,-1.964,8.143,2.539,29.326,-1.868,8.335,2.443,-29.326,2.013,8.484,2.445,-82.111,-58.651,29.326
2.9,-1.868,7.329,2.299,29.326,-1.82,8.047,2.203,-29.326,2.013,8.197,2.301,-82.111,-58.651,29.326
2.9050000000000002,-1.916,7.137,2.108,29.326,-1.82,7.904,2.156,-29.326,2.013,7.765,2.013,-87.977,-58.651,29.326
2.91,-2.06,7.904,2.108,29.326,-1.868,7.999,2.251,-29.326,2.013,8.053,1.869,-87.977,-58.651,29.326
2.915,-2.108,8.67,2.299,29.326,-1.772,8.239,2.395,-23.46,2.013,8.484,2.157,-93.842,-58.651,29.326
2.92,-2.06,8.909,2.347,23.46,-1.82,8.43,2.299,-23.46,2.013,8.772,2.157,-93.842,-58.651,23.46
2.9250000000000003,-2.108,8.909,2.156,23.46,-2.06,8.478,1.964,-23.46,2.013,8.772,2.013,-87.977,-64.516,23.46
2.93,-2.299,8.957,1.772,23.46,-2.108,8.478,1.677,-23.46,2.301,8.916,1.726,-87.977,-64.516,23.46
2.935,-2.299,8.766,1.437,29.326,-1.916,8.478,1.533,-29.326,2.301,8.772,1.438,-87.977,-64.516,29.326
2.94,-2.251,8.67,1.389,29.326,-1.868,8.526,1.437,-29.326,2.157,8.772,1.294,-82.111,-70.381,29.326
2.945,-2.203,8.957,1.245,35.191,-1.772,8.526,1.15,-29.326,2.157,8.916,1.15,-82.111,-70.381,29.326
2.95,-2.251,8.957,0.958,35.191,-1.677,8.622,1.006,-29.326,2.013,8.916,0.863,-76.246,-70.381,29.326
2.955,-2.251,8.909,0.91,29.326,-1.724,8.622,0.958,-29.326,2.013,8.916,0.863,-76.246,-76.246,29.326
2.96,-2.251,8.909,0.862,29.326,-1.82,8.574,0.814,-29.326,2.013,8.916,0.719,-70.381,-82.111,29.326
2.965,-2.299,8.862,0.814,29.326,-1.868,8.478,0.91,-29.326,2.157,8.916,0.575,-70.381,-82.111,29.326
2.97,-2.251,8.909,0.862,29.326,-1.916,8.383,1.006,-23.46,2.157,8.916,0.719,-70.381,-87.977,29.326
2.975,-2.299,9.005,1.102,29.326,-1.868,8.287,1.245,-23.46,2.157,8.772,0.863,-64.516,-87.977,23.46
2.98,-2.251,9.005,1.341,29.326,-2.06,8.383,1.533,-23.46,2.157,8.772,1.15,-64.516,-87.977,23.46
2.985,-2.299,8.862,1.629,23.46,-2.299,8.526,1.724,-23.46,2.301,8.772,1.438,-58.651,-93.842,23.46
2.99,-2.347,8.766,1.772,23.46,-2.347,8.622,1.964,-17.595,2.445,8.916,1.582,-52.786,-93.842,23.46
2.995,-2.395,8.718,2.06,23.46,-2.347,8.574,2.203,-17.595,2.445,8.772,1.869,-52.786,-93.842,17.595
3.0,-2.443,8.766,2.251,17.595,-2.443,8.526,2.347,-17.595,2.445,8.772,2.013,-52.786,-93.842,17.595
3.005,-2.491,8.814,2.443,17.595,-2.587,8.622,2.587,-17.595,2.588,8.916,2.301,-46.921,-93.842,17.595
3.0100000000000002,-2.587,8.814,2.635,17.595,-2.73,8.718,2.778,-17.595,2.732,8.916,2.445,-46.921,-99.707,17.595
3.015,-2.682,8.957,2.874,17.595,-2.874,8.814,3.018,-17.595,2.876,9.059,2.732,-46.921,-99.707,17.595
3.02,-2.73,9.149,3.066,23.46,-2.874,8.909,3.209,-17.595,3.02,9.203,2.876,-46.921,-93.842,17.595
3.025,-2.826,9.341,3.114,23.46,-2.874,8.766,3.066,-17.595,2.876,9.347,3.02,-46.921,-93.842,23.46
3.0300000000000002,-2.826,9.293,2.97,23.46,-3.066,8.718,2.922,-23.46,3.02,9.203,2.876,-41.056,-93.842,23.46
3.035,-3.018,9.293,2.826,23.46,-3.066,8.574,2.635,-23.46,3.02,9.203,2.732,-41.056,-93.842,23.46
3.04,-3.018,9.101,2.587,29.326,-3.114,8.622,2.635,-23.46,3.164,9.059,2.445,-35.191,-93.842,23.46
3.045,-2.97,8.766,2.682,29.326,-3.066,8.67,2.682,-23.46,3.164,8.916,2.445,-35.191,-93.842,23.46
3.0500000000000003,-2.874,8.574,2.635,29.326,-3.018,8.574,2.682,-23.46,3.164,8.916,2.588,-29.326,-93.842,23.46
3.055,-2.826,8.335,2.635,29.326,-3.018,8.335,2.539,-23.46,3.02,8.628,2.588,-29.326,-93.842,23.46
3.06,-2.874,8.095,2.491,23.46,-3.066,8.191,2.443,-17.595,3.02,8.484,2.445,-29.326,-93.842,23.46
3.065,-2.874,7.951,2.395,23.46,-3.066,8.047,2.395,-17.595,3.02,8.34,2.301,-29.326,-87.977,23.46
3.0700000000000003,-2.922,7.904,2.395,17.595,-3.114,7.999,2.347,-11.73,3.164,8.197,2.301,-29.326,-87.977,17.595
3.075,-2.874,8.095,2.299,11.73,-3.114,8.047,2.251,-11.73,3.164,8.197,2.157,-35.191,-87.977,17.595
3.08,-2.97,8.239,2.203,11.73,-2.874,8.143,2.251,-11.73,3.164,8.34,2.013,-35.191,-87.977,11.73
3.085,-2.826,8.383,2.012,11.73,-2.922,8.383,2.06,-11.73,3.164,8.484,1.869,-35.191,-87.977,11.73
3.09,-2.874,8.67,2.012,5.865,-2.97,8.574,1.964,-5.865,3.02,8.772,1.869,-29.326,-87.977,5.865
3.095,-2.922,8.814,1.868,11.73,-2.97,8.862,1.82,-5.865,3.02,8.916,1.726,-29.326,-87.977,11.73
3.1,-2.922,9.005,1.82,11.73,-3.066,8.957,1.677,-11.73,3.02,9.203,1.582,-29.326,-82.111,11.73
3.105,-2.874,9.149,1.677,11.73,-2.97,9.005,1.629,-11.73,3.164,9.347,1.438,-29.326,-82.111,11.73
3.11,-2.922,9.149,1.629,11.73,-3.018,8.909,1.533,-11.73,3.02,9.347,1.438,-29.326,-82.111,11.73
3.115,-3.018,9.197,1.533,11.73,-3.161,8.957,1.485,-17.595,3.164,9.347,1.438,-29.326,-82.111,11.73
3.12,-3.066,9.149,1.485,17.595,-3.114,8.957,1.437,-17.595,3.164,9.347,1.294,-29.326,-82.111,17.595
3.125,-2.97,9.005,1.389,17.595,-3.018,8.957,1.293,-11.73,3.164,9.203,1.294,-23.46,-82.111,17.595
3.13,-2.97,8.814,1.341,17.595,-3.161,8.957,1.293,-11.73,3.164,9.203,1.15,-23.46,-82.111,17.595
3.1350000000000002,-2.97,8.766,1.293,17.595,-3.209,8.957,1.293,-11.73,3.164,9.203,1.15,-23.46,-82.111,17.595
3.14,-3.066,8.814,1.341,11.73,-3.257,8.862,1.245,-11.73,3.164,9.203,1.15,-23.46,-82.111,17.595
3.145,-3.018,8.909,1.437,11.73,-3.257,9.005,1.485,-11.73,3.307,9.203,1.15,-29.326,-82.111,11.73
3.15,-3.114,9.053,1.629,11.73,-3.305,9.005,1.677,-11.73,3.307,9.347,1.438,-29.326,-82.111,11.73
3.1550000000000002,-3.066,9.101,1.724,11.73,-3.401,9.053,1.629,-11.73,3.307,9.347,1.582,-29.326,-76.246,11.73
3.16,-3.257,9.101,1.629,11.73,-3.688,9.245,1.581,-5.865,3.451,9.347,1.438,-23.46,-76.246,11.73
3.165,-3.305,9.101,1.629,5.865,-3.736,9.293,1.533,-5.865,3.739,9.491,1.438,-23.46,-76.246,5.865
3.17,-3.305,9.149,1.533,5.865,-3.593,9.245,1.389,-5.865,3.739,9.491,1.438,-29.326,-76.246,5.865
3.1750000000000003,-3.353,9.197,1.389,5.865,-3.449,9.245,1.341,-5.865,3.595,9.491,1.294,-29.326,-70.381,5.865
3.18,-3.353,9.245,1.341,5.865,-3.449,9.341,1.293,-5.865,3.595,9.491,1.15,-29.326,-70.381,5.865
3.185,-3.209,9.341,1.389,5.865,-3.353,9.436,1.341,-5.865,3.451,9.635,1.15,-29.326,-70.381,5.865
3.19,-3.257,9.388,1.389,5.865,-3.449,9.532,1.293,-5.865,3.451,9.635,1.294,-29.326,-70.381,5.865
3.1950000000000003,-3.209,9.532,1.389,5.865,-3.401,9.628,1.293,-5.865,3.451,9.778,1.15,-29.326,-70.381,5.865
3.2,-3.066,9.532,1.389,5.865,-3.401,9.772,1.293,-5.865,3.451,9.922,1.15,-29.326,-70.381,5.865
3.205,-3.066,9.628,1.341,11.73,-3.401,9.867,1.198,-5.865,3.451,9.922,1.15,-29.326,-64.516,5.865
3.21,-3.114,9.82,1.245,11.73,-3.353,9.772,1.102,-11.73,3.451,10.066,1.007,-35.191,-64.516,11.73
3.215,-2.922,9.772,1.15,11.73,-3.209,9.676,1.102,-11.73,3.307,10.066,1.007,-35.191,-64.516,11.73
3.22,-2.826,9.628,1.102,17.595,-3.114,9.867,0.91,-17.595,3.164,9.922,1.007,-35.191,-58.651,17.595
3.225,-3.018,9.82,0.719,17.595,-2.97,9.82,0.431,-17.595,3.164,10.066,0.719,-35.191,-58.651,17.595
3.23,-2.778,9.772,0.383,17.595,-2.73,9.772,0.24,-17.595,3.02,10.066,0.288,-35.191,-58.651,17.595
3.235,-2.587,9.484,0.287,17.595,-2.635,9.867,0.192,-17.595,2.876,9.922,-0.0,-35.191,-58.651,17.595
3.24,-2.587,9.388,0.192,23.46,-2.635,9.772,0.144,-17.595,2.732,9.922,0.144,-35.191,-58.651,17.595
3.245,-2.491,9.388,0.192,23.46,-2.635,9.82,0.192,-17.595,2.732,9.922,-0.144,-41.056,-58.651,23.46
3.25,-2.395,9.388,0.24,17.595,-2.539,9.676,0.192,-17.595,2.588,9.922,-0.0,-41.056,-58.651,17.595
3.255,-2.395,9.436,0.287,17.595,-2.491,9.436,0.24,-17.595,2.588,9.778,-0.0,-41.056,-52.786,17.595
3.2600000000000002,-2.347,9.388,0.287,17.595,-2.491,9.197,0.24,-11.73,2.588,9.635,0.144,-46.921,-52.786,17.595
3.265,-2.395,9.341,0.287,17.595,-2.587,8.957,0.24,-11.73,2.588,9.491,0.144,-46.921,-52.786,17.595
3.27,-2.395,9.101,0.287,11.73,-2.587,8.67,0.192,-11.73,2.588,9.203,0.144,-46.921,-52.786,11.73
3.275,-2.491,8.909,0.24,17.595,-2.491,8.383,0.144,-11.73,2.732,9.059,-0.0,-41.056,-52.786,11.73
3.2800000000000002,-2.491,8.766,0.144,17.595,-2.443,8.143,0.048,-11.73,2.588,8.772,-0.144,-41.056,-52.786,17.595
3.285,-2.443,8.574,0.144,11.73,-2.395,7.999,0.048,-11.73,2.588,8.628,-0.144,-41.056,-52.786,11.73
3.29,-2.539,8.43,0.144,11.73,-2.395,7.951,0.096,-11.73,2.588,8.34,-0.144,-35.191,-52.786,17.595
3.295,-2.395,8.383,0.192,11.73,-2.395,8.095,0.144,-11.73,2.588,8.34,-0.144,-29.326,-52.786,11.73
3.3000000000000003,-2.443,8.478,0.192,11.73,-2.491,8.239,0.144,-5.865,2.445,8.484,-0.0,-29.326,-52.786,11.73
3.305,-2.443,8.574,0.192,11.73,-2.587,8.335,0.144,-5.865,2.588,8.628,-0.0,-29.326,-52.786,11.73
3.31,-2.587,8.478,0.24,11.73,-2.539,8.335,0.096,-5.865,2.732,8.628,-0.0,-23.46,-52.786,5.865
3.315,-2.491,8.574,0.144,11.73,-2.491,8.335,0.0,-5.865,2.588,8.628,-0.144,-23.46,-52.786,11.73
3.3200000000000003,-2.539,8.574,0.048,11.73,-2.299,8.239,0.0,-5.865,2.588,8.628,-0.144,-23.46,-52.786,11.73
3.325,-2.443,8.718,0.335,11.73,-1.485,7.089,1.533,-5.865,2.445,8.628,-0.144,-23.46,-52.786,5.865
3.33,-2.06,8.862,1.533,5.865,-2.156,7.808,1.245,0.0,2.013,8.053,1.294,-17.595,-52.786,5.865
3.335,-2.108,8.047,0.958,-0.0,-3.114,9.101,0.383,11.73,2.301,8.34,0.863,-5.865,-58.651,0.0
3.34,-2.826,8.095,0.048,-11.73,-3.257,9.867,-0.479,11.73,3.164,9.059,-0.0,-5.865,-58.651,-11.73
3.345,-2.539,8.095,-0.623,-11.73,-2.203,9.772,-0.814,11.73,3.02,9.347,-0.719,-5.865,-52.786,-11.73
3.35,-2.156,8.239,-0.623,-5.865,-1.581,9.436,-0.623,5.865,2.157,9.347,-1.007,-17.595,-52.786,-5.865
3.355,-1.964,8.287,-0.527,-5.865,-1.485,9.197,-0.431,5.865,1.869,9.059,-0.863,-29.326,-52.786,-5.865
3.36,-2.06,8.383,-0.287,-11.73,-1.724,8.957,-0.192,17.595,1.869,9.059,-0.575,-35.191,-52.786,-5.865
3.365,-2.012,8.814,-0.096,-17.595,-2.012,9.053,-0.048,17.595,2.013,9.059,-0.431,-41.056,-58.651,-11.73
3.37,-2.203,9.388,0.0,-17.595,-2.156,9.293,-0.048,23.46,2.301,9.347,-0.288,-46.921,-58.651,-17.595
3.375,-2.108,10.059,0.0,-23.46,-1.964,9.58,0.048,23.46,2.157,9.635,-0.288,-46.921,-58.651,-23.46
3.38,-2.06,10.394,0.048,-23.46,-1.724,9.58,-0.048,23.46,2.157,10.066,-0.144,-41.056,-58.651,-23.46
3.3850000000000002,-1.868,10.682,-0.096,-23.46,-1.485,9.628,-0.096,23.46,1.869,10.21,-0.288,-41.056,-64.516,-23.46
3.39,-2.06,10.634,0.0,-17.595,-1.677,9.915,0.0,23.46,1.869,10.21,-0.288,-35.191,-64.516,-23.46
3.395,-1.868,10.921,0.096,-17.595,-1.724,10.394,0.192,23.46,1.869,10.641,-0.144,-23.46,-64.516,-23.46
3.4,-2.012,11.113,0.383,-17.595,-1.868,10.73,0.479,17.595,2.013,10.929,0.144,-17.595,-70.381,-17.595
3.4050000000000002,-2.012,11.496,0.671,-11.73,-1.964,11.161,0.766,17.595,2.013,11.216,0.431,-17.595,-70.381,-17.595
3.41,-1.964,11.688,1.006,-11.73,-2.012,11.64,1.102,11.73,2.013,11.648,0.719,-11.73,-70.381,-11.73
3.415,-2.012,11.783,1.293,-5.865,-1.964,11.975,1.389,5.865,2.157,11.935,1.007,-5.865,-70.381,-11.73
3.42,-1.868,11.688,1.629,-5.865,-2.012,12.31,1.677,5.865,2.013,12.079,1.294,-5.865,-70.381,-5.865
3.4250000000000003,-1.916,11.64,1.82,-5.865,-2.299,12.215,1.772,5.865,2.013,12.223,1.582,-5.865,-70.381,-5.865
3.43,-2.06,11.592,1.916,-0.0,-2.491,12.071,1.82,5.865,2.301,12.223,1.726,-11.73,-70.381,-5.865
3.435,-2.251,11.352,1.916,-0.0,-2.635,11.927,1.82,5.865,2.588,11.935,1.726,-17.595,-70.381,0.0
3.44,-2.395,11.257,1.916,-0.0,-2.73,11.544,1.772,0.0,2.588,11.792,1.726,-17.595,-70.381,0.0
3.4450000000000003,-2.587,10.969,1.82,5.865,-2.826,11.017,1.629,-5.865,2.876,11.504,1.582,-23.46,-64.516,5.865
3.45,-2.682,10.586,1.581,5.865,-2.97,10.538,1.341,-11.73,2.876,11.073,1.438,-29.326,-64.516,5.865
3.455,-2.73,10.251,1.293,17.595,-3.066,10.011,1.054,-17.595,3.02,10.641,1.15,-29.326,-64.516,11.73
3.46,-2.826,9.772,1.006,23.46,-2.922,9.58,0.862,-17.595,3.164,10.21,0.863,-29.326,-58.651,17.595
3.465,-2.73,9.436,0.862,23.46,-2.826,9.101,0.671,-23.46,2.876,9.778,0.719,-29.326,-58.651,23.46
3.47,-2.682,8.909,0.623,29.326,-2.635,8.67,0.479,-29.326,2.876,9.203,0.431,-29.326,-58.651,29.326
3.475,-2.587,8.43,0.431,29.326,-2.587,8.335,0.287,-29.326,2.732,8.772,0.288,-29.326,-58.651,29.326
3.48,-2.587,8.095,0.287,35.191,-2.491,8.047,0.192,-29.326,2.732,8.484,0.144,-29.326,-58.651,29.326
3.485,-2.539,7.951,0.192,29.326,-2.395,7.951,0.096,-29.326,2.588,8.197,-0.0,-35.191,-58.651,29.326
3.49,-2.347,7.951,0.144,29.326,-2.251,8.095,0.096,-23.46,2.588,8.197,-0.144,-35.191,-58.651,29.326
3.495,-2.299,8.143,0.192,23.46,-2.203,8.239,0.096,-17.595,2.445,8.34,-0.144,-29.326,-58.651,23.46
3.5,-2.156,8.239,0.144,17.595,-2.06,8.43,0.048,-11.73,2.301,8.484,-0.144,-35.191,-58.651,17.595
3.505,-2.108,8.478,0.096,11.73,-1.916,8.622,0.0,-11.73,2.157,8.628,-0.144,-35.191,-58.651,11.73
3.5100000000000002,-2.012,8.766,0.048,5.865,-1.772,8.718,0.0,-5.865,2.013,8.916,-0.288,-35.191,-58.651,11.73
3.515,-1.868,9.005,0.0,5.865,-1.533,8.814,0.0,0.0,1.869,9.059,-0.288,-35.191,-64.516,5.865
3.52,-1.724,9.245,0.0,-0.0,-1.485,8.957,-0.096,5.865,1.726,9.203,-0.288,-29.326,-64.516,0.0
3.525,-1.677,9.436,-0.144,-5.865,-1.485,9.197,-0.192,5.865,1.726,9.347,-0.288,-29.326,-64.516,0.0
3.5300000000000002,-1.677,9.724,-0.192,-5.865,-1.485,9.484,-0.144,5.865,1.582,9.635,-0.431,-29.326,-64.516,0.0
3.535,-1.629,10.011,-0.048,-5.865,-1.485,9.724,0.0,5.865,1.582,9.922,-0.288,-23.46,-70.381,-5.865
3.54,-1.629,10.251,0.144,-5.865,-1.533,9.867,0.096,5.865,1.726,10.066,-0.144,-23.46,-70.381,-5.865
3.545,-1.677,10.394,0.192,-0.0,-1.677,9.963,0.192,0.0,1.726,10.21,-0.144,-17.595,-70.381,0.0
3.5500000000000003,-1.772,10.49,0.383,-0.0,-1.772,10.011,0.383,0.0,1.726,10.354,0.144,-17.595,-70.381,0.0
3.555,-1.772,10.634,0.479,5.865,-1.724,10.155,0.335,-5.865,1.869,10.497,0.288,-11.73,-70.381,5.865
3.56,-1.868,10.586,0.383,11.73,-1.964,10.394,0.383,-11.73,1.869,10.641,0.144,-11.73,-70.381,11.73
3.565,-2.06,10.682,0.527,17.595,-2.156,10.682,0.527,-17.595,2.157,10.785,0.288,-5.865,-70.381,11.73
3.5700000000000003,-2.06,10.969,0.719,23.46,-2.108,10.73,0.766,-23.46,2.301,10.929,0.431,-5.865,-70.381,23.46
3.575,-2.156,10.825,0.814,29.326,-3.401,11.017,0.719,-29.326,2.157,10.929,0.575,-5.865,-70.381,29.326
3.58,-2.108,10.107,0.814,35.191,-2.539,10.107,0.671,-11.73,1.438,9.635,0.575,-5.865,-70.381,29.326
3.585,-2.203,10.107,0.814,52.786,-2.347,10.203,0.766,0.0,2.157,10.641,0.431,0.0,-76.246,46.921
3.59,-3.018,10.394,0.91,58.651,-2.778,10.442,0.91,-5.865,3.02,10.785,0.719,0.0,-76.246,52.786
3.595,-3.066,10.107,1.006,52.786,-3.114,10.299,0.862,-11.73,3.451,10.641,0.863,-5.865,-76.246,52.786
3.6,-3.018,9.772,0.91,46.921,-3.209,10.107,0.766,-5.865,3.451,10.354,0.719,-5.865,-76.246,46.921
3.605,-3.114,9.388,0.862,41.056,-3.066,9.772,0.719,-5.865,3.451,10.066,0.575,-11.73,-70.381,41.056
3.61,-3.257,9.197,0.814,35.191,-3.305,9.532,0.719,-5.865,3.739,9.778,0.575,-11.73,-70.381,35.191
3.615,-3.161,9.053,0.91,29.326,-3.066,9.293,0.862,-5.865,3.451,9.491,0.575,-17.595,-64.516,29.326
3.62,-3.353,9.005,1.054,23.46,-3.305,9.053,1.102,-5.865,3.451,9.347,0.863,-17.595,-64.516,23.46
3.625,-3.449,8.909,1.293,17.595,-3.64,8.766,1.245,0.0,3.739,9.203,1.007,-17.595,-64.516,23.46
3.63,-3.545,8.766,1.341,11.73,-3.64,8.478,1.245,0.0,4.026,9.059,1.15,-17.595,-58.651,17.595
3.6350000000000002,-3.545,8.622,1.341,11.73,-3.593,8.335,1.245,0.0,4.026,8.772,1.15,-17.595,-58.651,11.73
3.64,-3.497,8.526,1.341,11.73,-3.497,8.335,1.198,0.0,3.883,8.628,1.15,-17.595,-52.786,5.865
3.645,-3.497,8.383,1.245,5.865,-3.449,8.383,1.054,-5.865,3.739,8.628,1.007,-17.595,-52.786,5.865
3.65,-3.497,8.335,1.102,5.865,-3.545,8.526,1.006,-5.865,3.883,8.628,0.863,-11.73,-46.921,5.865
3.6550000000000002,-3.449,8.383,1.054,11.73,-3.449,8.766,0.862,-5.865,3.883,8.772,0.863,-11.73,-46.921,5.865
3.66,-3.353,8.574,0.814,5.865,-3.257,9.005,0.575,0.0,3.739,8.916,0.719,-11.73,-46.921,5.865
3.665,-3.257,8.478,0.671,-0.0,-3.305,8.957,0.479,0.0,3.595,9.059,0.431,-17.595,-46.921,5.865
3.67,-3.401,8.478,0.575,-0.0,-3.353,9.053,0.383,0.0,3.595,9.059,0.288,-17.595,-41.056,0.0
3.6750000000000003,-3.257,8.67,0.527,-0.0,-3.305,8.909,0.527,5.865,3.595,9.059,0.288,-17.595,-41.056,0.0
3.68,-3.401,8.766,0.671,-5.865,-3.545,8.718,0.527,5.865,3.595,9.059,0.431,-23.46,-41.056,-5.865
3.685,-3.497,8.766,0.671,-5.865,-3.688,8.478,0.575,5.865,3.883,8.916,0.431,-23.46,-41.056,-5.865
3.69,-3.497,8.574,0.719,-0.0,-3.497,8.287,0.575,0.0,3.883,8.772,0.431,-23.46,-35.191,0.0
3.6950000000000003,-3.449,8.383,0.575,-0.0,-3.401,8.095,0.383,0.0,3.739,8.484,0.431,-23.46,-35.191,0.0
3.7,-3.593,8.335,0.383,5.865,-3.449,8.047,0.192,-5.865,3.739,8.484,0.144,-17.595,-35.191,5.865
3.705,-3.688,8.383,0.335,11.73,-3.545,8.095,0.335,-11.73,3.883,8.34,0.144,-17.595,-35.191,11.73
3.71,-3.736,8.43,0.479,17.595,-3.64,8.047,0.431,-17.595,3.883,8.484,0.288,-17.595,-35.191,17.595
3.715,-3.784,8.287,0.527,23.46,-3.688,7.951,0.383,-23.46,4.026,8.34,0.288,-11.73,-35.191,23.46
3.72,-3.784,8.095,0.479,23.46,-3.736,7.904,0.335,-23.46,4.026,8.34,0.288,-11.73,-35.191,23.46
3.725,-3.736,7.951,0.431,23.46,-3.784,7.951,0.287,-23.46,4.026,8.197,0.144,-5.865,-29.326,23.46
3.73,-3.784,7.951,0.383,23.46,-3.832,8.143,0.192,-17.595,4.026,8.197,0.144,-5.865,-29.326,23.46
3.735,-3.832,7.951,0.287,23.46,-4.024,8.191,0.144,-17.595,4.17,8.34,-0.0,-5.865,-29.326,23.46
3.74,-3.88,7.951,0.287,23.46,-4.024,8.239,0.096,-17.595,4.17,8.34,-0.0,-5.865,-29.326,23.46
3.745,-3.928,7.999,0.192,23.46,-4.072,8.335,0.048,-17.595,4.314,8.484,-0.144,-5.865,-29.326,23.46
3.75,-3.976,8.047,0.192,23.46,-4.072,8.239,0.048,-17.595,4.314,8.484,-0.144,-5.865,-23.46,17.595
3.755,-4.024,8.095,0.287,23.46,-4.119,8.143,0.24,-17.595,4.314,8.484,-0.144,-11.73,-23.46,17.595
3.7600000000000002,-4.072,8.095,0.479,23.46,-4.215,8.143,0.431,-17.595,4.314,8.34,0.144,-11.73,-23.46,17.595
3.765,-4.167,8.239,0.671,23.46,-4.551,8.43,0.575,-17.595,4.458,8.484,0.431,-11.73,-17.595,23.46
3.77,-4.359,8.43,0.814,17.595,-4.934,8.718,0.719,-17.595,4.889,8.772,0.431,-5.865,-17.595,17.595
3.775,-4.407,8.526,0.91,23.46,-4.886,8.862,0.766,-17.595,5.033,8.916,0.575,-5.865,-11.73,23.46
3.7800000000000002,-4.359,8.67,0.958,23.46,-4.646,9.005,0.766,-17.595,4.889,9.059,0.719,-5.865,-11.73,23.46
3.785,-4.407,9.053,0.91,23.46,-4.646,9.149,0.719,-17.595,4.889,9.347,0.719,-11.73,-5.865,23.46
3.79,-4.551,9.436,0.862,23.46,-4.886,9.245,0.719,-17.595,4.889,9.491,0.575,-11.73,0.0,23.46
3.795,-4.694,9.532,0.862,17.595,-4.886,9.149,0.527,-11.73,5.177,9.635,0.575,-11.73,0.0,17.595
3.8000000000000003,-4.886,9.963,0.479,17.595,-4.742,8.814,0.335,-11.73,5.177,9.635,0.288,-5.865,5.865,17.595
3.805,-4.982,10.107,0.479,17.595,-4.79,8.622,0.431,-11.73,5.177,9.635,0.288,0.0,5.865,17.595
3.81,-4.886,10.107,0.575,11.73,-4.694,8.383,0.335,-11.73,5.177,9.491,0.288,5.865,5.865,17.595
3.815,-4.742,10.538,0.144,11.73,-3.401,7.664,-1.437,-11.73,5.033,9.491,0.144,17.595,5.865,17.595
3.8200000000000003,-4.742,11.879,-1.916,23.46,-3.88,8.383,-1.581,-23.46,3.739,9.922,-1.869,29.326,5.865,17.595
3.825,-5.7,10.586,-1.102,35.191,-5.125,8.383,-1.102,-41.056,5.321,9.922,-1.582,52.786,5.865,29.326
3.83,-4.119,10.586,-1.15,41.056,-4.167,8.191,-1.198,-41.056,4.889,9.635,-1.294,76.246,-5.865,41.056
3.835,-4.455,9.724,-1.245,52.786,-3.736,7.904,-1.293,-46.921,4.458,9.203,-1.438,93.842,0.0,46.921
3.84,-3.64,8.766,-1.437,52.786,-3.161,7.904,-1.15,-52.786,4.026,8.628,-1.582,105.572,0.0,52.786
3.845,-3.593,9.245,-0.479,58.651,-2.97,8.095,-0.766,-52.786,3.164,8.484,-0.575,111.437,-5.865,58.651
3.85,-1.341,8.909,0.144,58.651,-2.587,8.862,-0.671,-46.921,2.876,8.628,-1.007,123.167,-5.865,58.651
3.855,-3.305,7.041,-1.293,46.921,-3.688,9.724,-1.916,-29.326,3.307,8.484,-1.294,129.032,-11.73,46.921
3.86,-3.066,6.227,-2.347,29.326,-3.928,10.634,-2.874,-23.46,3.739,8.772,-2.445,123.167,-5.865,29.326
3.865,-3.209,5.94,-2.874,29.326,-3.545,11.065,-3.209,-29.326,3.883,9.059,-3.164,105.572,0.0,23.46
3.87,-3.066,6.562,-3.066,35.191,-2.922,11.113,-3.257,-35.191,3.595,9.347,-3.451,82.111,5.865,35.191
3.875,-2.826,7.281,-3.066,41.056,-2.347,11.017,-3.066,-35.191,3.02,9.635,-3.451,46.921,5.865,41.056
3.88,-2.826,8.239,-2.97,35.191,-2.203,10.778,-3.161,-29.326,2.732,9.922,-3.307,23.46,11.73,35.191
3.8850000000000002,-3.161,8.909,-3.114,29.326,-2.682,10.682,-3.305,-29.326,2.876,10.21,-3.307,-5.865,5.865,35.191
3.89,-3.353,9.341,-3.209,29.326,-2.778,10.538,-3.401,-23.46,3.307,10.354,-3.451,-17.595,5.865,29.326
3.895,-3.545,9.82,-3.401,29.326,-2.539,10.442,-3.64,-23.46,3.451,10.497,-3.595,-29.326,5.865,29.326
3.9,-3.593,10.49,-3.64,29.326,-2.251,10.299,-3.784,-29.326,3.164,10.641,-3.883,-35.191,0.0,29.326
3.9050000000000002,-3.784,10.73,-3.832,29.326,-2.012,9.963,-4.024,-29.326,3.164,10.641,-4.026,-35.191,-5.865,29.326
3.91,-3.784,10.921,-4.167,35.191,-1.82,9.676,-4.263,-29.326,3.02,10.641,-4.314,-35.191,-11.73,29.326
3.915,-4.072,10.873,-4.263,35.191,-1.964,9.388,-4.263,-35.191,3.02,10.354,-4.458,-29.326,-23.46,29.326
3.92,-4.407,10.921,-4.215,35.191,-2.156,9.005,-4.072,-41.056,3.307,10.21,-4.458,-17.595,-35.191,35.191
3.9250000000000003,-4.407,10.969,-3.88,41.056,-2.06,8.766,-3.593,-41.056,3.307,10.066,-4.17,-11.73,-46.921,41.056
3.93,-4.359,10.969,-3.401,41.056,-2.108,8.766,-3.066,-46.921,3.307,9.922,-3.739,5.865,-58.651,41.056
3.935,-4.694,10.969,-2.97,46.921,-2.395,8.766,-2.635,-46.921,3.451,9.922,-3.164,17.595,-76.246,46.921
3.94,-4.79,10.682,-2.395,52.786,-2.73,8.67,-1.82,-52.786,3.739,9.922,-2.732,35.191,-87.977,46.921
3.9450000000000003,-4.742,10.011,-1.581,58.651,-2.826,8.43,-0.862,-58.651,3.883,9.491,-1.869,46.921,-105.572,52.786
3.95,-4.886,9.484,-0.479,58.651,-3.018,8.143,0.479,-58.651,4.026,9.203,-0.863,64.516,-117.302,52.786
3.955,-5.03,9.149,1.006,58.651,-3.401,7.76,2.251,-58.651,4.17,8.772,0.575,70.381,-129.032,58.651
3.96,-5.221,8.766,2.922,58.651,-3.593,7.329,4.598,-52.786,4.458,8.484,2.445,82.111,-140.762,52.786
3.9650000000000003,-5.03,8.095,5.604,58.651,-4.167,7.185,7.568,-52.786,4.458,7.909,4.889,87.977,-152.493,52.786
3.97,-4.646,7.712,8.478,52.786,-4.024,6.323,10.778,-46.921,4.602,7.19,7.909,99.707,-164.223,52.786
3.975,-4.167,7.329,12.071,46.921,-5.269,6.323,14.322,-41.056,4.458,7.046,11.36,105.572,-170.088,41.056
3.98,-3.976,6.754,15.759,41.056,-6.802,6.323,17.867,-35.191,5.177,6.759,14.955,111.437,-170.088,41.056
3.985,-3.497,6.083,19.256,35.191,-8.095,6.275,20.884,-29.326,5.896,6.471,18.55,117.302,-164.223,35.191
3.99,-3.257,5.7,22.082,23.46,-8.957,6.467,23.232,-17.595,6.471,6.183,21.57,123.167,-146.628,23.46
3.995,-2.874,5.461,24.046,17.595,-9.341,6.562,24.333,-11.73,6.759,6.183,23.727,123.167,-117.302,17.595
4.0,-2.635,5.269,24.429,11.73,-9.388,6.514,24.381,-11.73,6.902,6.183,25.021,117.302,-82.111,11.73
4.005,-2.443,4.694,24.429,11.73,-9.149,6.706,24.381,-5.865,6.615,5.896,25.453,111.437,-35.191,11.73
4.01,-1.916,4.407,24.381,11.73,-7.904,6.658,23.663,-5.865,6.327,5.896,25.021,99.707,5.865,11.73
4.015,-1.341,3.736,22.896,5.865,-6.85,6.419,21.842,0.0,5.177,5.608,23.439,87.977,58.651,5.865
4.0200000000000005,-1.293,3.832,20.837,-0.0,-6.323,6.323,19.687,11.73,4.602,5.321,21.426,70.381,99.707,0.0
4.025,-1.198,4.119,18.442,-17.595,-5.173,6.371,17.244,29.326,4.17,5.464,19.269,52.786,134.897,-11.73
4.03,-2.251,3.784,15.759,-35.191,-5.7,5.509,13.699,46.921,3.595,5.608,16.537,35.191,170.088,-29.326
4.035,-2.203,4.455,12.837,-52.786,-3.353,6.371,10.682,58.651,3.02,5.608,13.517,23.46,199.413,-46.921
4.04,-1.916,5.173,8.766,-58.651,-0.958,6.514,7.664,70.381,2.445,5.896,10.066,5.865,222.874,-58.651
4.045,-1.245,5.365,5.125,-64.516,-1.82,6.562,3.784,70.381,0.719,6.471,6.615,0.0,228.739,-64.516
4.05,-1.389,6.083,2.251,-64.516,-1.629,7.472,1.581,70.381,1.726,6.615,2.876,-11.73,234.604,-64.516
4.055,-2.443,6.61,-0.048,-64.516,-1.341,8.383,-0.814,70.381,2.157,7.334,0.719,-23.46,234.604,-70.381
4.0600000000000005,-2.395,7.472,-2.635,-58.651,-0.91,8.718,-3.257,58.651,2.013,8.197,-1.869,-29.326,234.604,-64.516
4.065,-2.443,8.287,-4.838,-46.921,-0.431,8.287,-5.125,46.921,1.726,8.484,-4.314,-41.056,228.739,-52.786
4.07,-2.347,8.814,-6.371,-41.056,0.144,9.101,-6.658,41.056,1.438,8.772,-5.896,-46.921,222.874,-41.056
4.075,-2.491,9.532,-7.951,-35.191,0.575,9.245,-8.478,46.921,1.294,9.491,-7.478,-46.921,205.279,-35.191
4.08,-2.778,10.155,-9.628,-35.191,0.814,9.436,-10.059,41.056,1.007,9.778,-9.203,-46.921,193.548,-41.056
4.085,-3.209,10.634,-11.065,-35.191,0.719,10.203,-11.448,41.056,1.15,10.21,-10.641,-41.056,175.953,-35.191
4.09,-3.257,11.017,-12.215,-35.191,0.958,10.346,-12.454,41.056,1.15,10.785,-11.935,-35.191,152.493,-35.191
4.095,-3.545,11.544,-13.029,-35.191,0.623,10.394,-13.22,35.191,1.294,11.073,-12.942,-29.326,129.032,-35.191
4.1,-4.072,11.879,-13.46,-29.326,0.144,10.538,-13.46,29.326,1.582,11.216,-13.517,-23.46,99.707,-29.326
4.105,-4.167,12.31,-13.364,-17.595,-0.096,10.442,-13.029,17.595,2.157,11.504,-13.517,-17.595,76.246,-23.46
4.11,-4.263,12.55,-12.741,-11.73,-0.431,10.251,-12.358,5.865,2.157,11.648,-13.086,-5.865,46.921,-11.73
4.115,-4.407,12.885,-11.927,-0.0,-0.335,10.011,-11.783,-5.865,2.445,11.648,-12.367,5.865,23.46,0.0
4.12,-3.784,12.885,-11.4,11.73,-0.671,9.676,-10.825,-11.73,2.301,11.504,-11.792,23.46,-5.865,11.73
4.125,-4.119,12.406,-10.442,17.595,-1.006,9.388,-9.915,-17.595,2.445,11.073,-10.785,46.921,-29.326,17.595
4.13,-4.024,12.167,-9.724,29.326,-1.389,9.293,-9.005,-29.326,2.732,10.785,-10.066,64.516,-52.786,23.46
4.135,-3.832,11.64,-8.67,35.191,-1.15,9.245,-7.904,-41.056,2.732,10.641,-9.059,82.111,-70.381,29.326
4.14,-3.545,11.257,-7.616,46.921,-0.958,9.341,-6.754,-46.921,2.588,10.354,-8.053,99.707,-87.977,41.056
4.1450000000000005,-3.257,10.778,-6.514,58.651,-0.958,9.436,-5.509,-58.651,2.157,10.21,-6.759,117.302,-105.572,52.786
4.15,-2.922,10.059,-5.221,64.516,-0.862,9.532,-4.024,-58.651,2.157,10.066,-5.608,129.032,-117.302,58.651
4.155,-2.443,9.149,-3.593,64.516,-0.958,9.532,-2.203,-58.651,1.869,9.635,-4.026,134.897,-129.032,58.651
4.16,-2.06,8.047,-1.629,64.516,-1.437,9.484,-0.192,-64.516,1.869,9.203,-2.157,134.897,-140.762,58.651
4.165,-1.533,6.946,0.623,64.516,-1.724,9.293,2.108,-64.516,1.869,8.772,-0.0,129.032,-152.493,64.516
4.17,-1.102,5.844,3.066,64.516,-2.012,8.862,4.503,-64.516,1.869,8.053,2.301,117.302,-152.493,64.516
4.175,-0.862,5.221,5.652,64.516,-2.539,7.999,6.946,-58.651,1.869,7.478,4.889,99.707,-152.493,58.651
4.18,-0.479,4.598,7.951,52.786,-2.778,7.377,9.149,-41.056,2.013,6.615,7.19,82.111,-146.628,52.786
4.1850000000000005,-0.096,4.407,10.203,35.191,-3.305,7.281,11.065,-29.326,1.869,6.183,9.491,64.516,-129.032,41.056
4.19,-0.91,4.646,11.831,23.46,-4.119,7.281,12.215,-17.595,2.588,6.183,11.36,41.056,-111.437,23.46
4.195,-0.814,5.03,12.933,11.73,-4.024,7.568,13.077,-11.73,3.02,6.471,12.367,23.46,-93.842,17.595
4.2,-0.623,5.748,13.556,5.865,-3.688,7.76,13.364,0.0,2.732,6.759,13.23,5.865,-70.381,5.865
4.205,-0.719,6.467,13.508,-0.0,-3.449,7.999,13.22,11.73,2.588,7.19,13.373,-5.865,-46.921,0.0
4.21,-1.054,6.993,13.22,-11.73,-3.114,8.287,12.933,23.46,2.588,7.621,13.086,-17.595,-29.326,-11.73
4.215,-0.814,7.904,13.077,-23.46,-3.161,8.766,12.646,23.46,2.301,8.053,12.942,-29.326,-5.865,-17.595
4.22,-1.82,9.293,12.358,-17.595,-3.688,8.766,11.783,23.46,2.588,8.916,12.367,-35.191,5.865,-23.46
4.225,-2.108,9.341,11.496,-11.73,-3.545,8.526,11.113,17.595,3.451,9.203,11.648,-35.191,23.46,-17.595
4.23,-1.533,9.101,10.682,-17.595,-2.682,7.76,10.059,23.46,2.732,8.772,10.929,-35.191,35.191,-17.595
4.235,-2.635,8.814,9.484,-17.595,-2.778,7.233,8.862,23.46,2.876,8.197,9.778,-29.326,52.786,-17.595
4.24,-2.395,8.622,8.383,-17.595,-2.635,7.185,7.76,17.595,2.876,7.909,8.484,-23.46,58.651,-17.595
4.245,-2.922,8.574,7.137,-11.73,-2.491,7.041,6.467,17.595,2.876,7.909,7.334,-11.73,58.651,-11.73
4.25,-2.826,8.287,5.844,-11.73,-2.251,7.041,5.269,17.595,2.876,7.765,6.04,0.0,58.651,-11.73
4.255,-2.922,8.143,4.79,-17.595,-2.156,7.281,4.215,23.46,2.588,7.621,4.889,5.865,58.651,-17.595
4.26,-3.066,8.478,3.736,-23.46,-2.299,7.856,3.257,29.326,2.732,7.909,3.883,17.595,58.651,-23.46
4.265,-3.161,9.005,2.922,-29.326,-2.395,8.622,2.443,35.191,2.876,8.484,2.876,29.326,52.786,-23.46
4.2700000000000005,-3.257,9.676,2.012,-29.326,-2.491,9.484,1.485,35.191,3.02,9.347,2.157,35.191,46.921,-29.326
4.275,-3.449,10.299,1.102,-29.326,-2.587,10.394,0.623,41.056,3.164,10.066,1.15,41.056,46.921,-35.191
4.28,-3.688,10.873,0.335,-35.191,-2.635,11.161,-0.096,35.191,3.307,10.929,0.288,41.056,41.056,-35.191
4.285,-3.736,11.257,-0.287,-29.326,-2.587,11.688,-0.575,29.326,3.451,11.504,-0.431,46.921,35.191,-35.191
4.29,-3.784,11.496,-0.766,-23.46,-2.443,11.927,-1.006,23.46,3.451,11.935,-0.863,46.921,29.326,-23.46
4.295,-3.64,11.592,-1.102,-11.73,-2.443,11.975,-1.341,11.73,3.307,12.079,-1.294,46.921,23.46,-17.595
4.3,-3.64,11.448,-1.389,-5.865,-2.539,11.831,-1.533,0.0,3.307,11.935,-1.582,41.056,17.595,-5.865
4.305,-3.688,11.257,-1.533,5.865,-2.443,11.496,-1.629,-5.865,3.307,11.792,-1.726,41.056,11.73,5.865
4.3100000000000005,-3.497,10.969,-1.533,17.595,-2.299,11.161,-1.533,-11.73,3.164,11.504,-1.726,41.056,5.865,11.73
4.315,-3.401,10.634,-1.389,17.595,-2.203,10.873,-1.437,-17.595,3.02,11.216,-1.726,35.191,0.0,17.595
4.32,-3.257,10.394,-1.341,23.46,-2.251,10.778,-1.389,-17.595,2.876,10.929,-1.582,35.191,-5.865,17.595
4.325,-3.257,10.155,-1.245,23.46,-2.299,10.682,-1.245,-17.595,3.02,10.785,-1.582,29.326,-11.73,17.595
4.33,-3.209,9.963,-1.102,23.46,-2.491,10.825,-1.006,-23.46,3.02,10.641,-1.438,29.326,-17.595,23.46
4.335,-3.114,9.867,-0.814,29.326,-2.012,10.49,-0.862,-23.46,3.02,10.641,-1.15,23.46,-23.46,29.326
4.34,-3.161,9.58,-0.671,29.326,-1.916,10.107,-0.575,-29.326,2.732,10.354,-1.007,23.46,-29.326,23.46
4.345,-3.114,9.341,-0.335,35.191,-1.964,9.676,-0.144,-35.191,2.732,9.922,-0.719,17.595,-35.191,29.326
4.3500000000000005,-2.874,9.005,0.144,35.191,-1.868,9.197,0.383,-35.191,2.588,9.635,-0.288,5.865,-41.056,35.191
4.355,-2.922,8.766,0.623,35.191,-1.964,8.814,0.766,-29.326,2.588,9.203,0.288,5.865,-46.921,35.191
4.36,-2.874,8.622,1.006,29.326,-2.108,8.574,1.15,-29.326,2.588,8.916,0.719,5.865,-52.786,29.326
4.365,-2.826,8.526,1.341,29.326,-2.251,8.478,1.485,-23.46,2.732,8.772,1.007,5.865,-52.786,23.46
4.37,-2.874,8.383,1.677,23.46,-2.299,8.287,1.724,-17.595,2.732,8.628,1.294,5.865,-58.651,23.46
4.375,-2.922,8.239,1.868,17.595,-2.443,8.191,1.916,-11.73,2.876,8.484,1.582,5.865,-64.516,17.595
4.38,-2.922,7.999,2.012,11.73,-2.539,8.191,2.108,-11.73,2.876,8.34,1.726,5.865,-64.516,11.73
4.385,-2.97,7.951,2.203,11.73,-2.443,7.951,2.251,-5.865,3.02,8.197,2.013,5.865,-70.381,11.73
4.39,-2.97,7.808,2.443,11.73,-2.682,7.951,2.587,-5.865,2.732,8.053,2.157,5.865,-70.381,11.73
4.3950000000000005,-3.066,8.095,2.682,11.73,-3.018,8.383,2.682,-11.73,3.164,8.197,2.445,5.865,-70.381,11.73
4.4,-3.257,8.718,2.826,11.73,-3.114,8.862,2.922,-5.865,3.307,8.772,2.588,5.865,-70.381,11.73
4.405,-3.401,9.197,3.066,5.865,-3.161,9.005,3.114,-5.865,3.451,9.203,2.876,5.865,-70.381,11.73
4.41,-3.497,9.58,3.161,11.73,-3.353,8.862,3.209,-11.73,3.595,9.491,3.02,5.865,-70.381,11.73
4.415,-3.688,9.484,3.305,11.73,-3.593,8.67,3.257,-11.73,3.739,9.347,3.164,5.865,-76.246,11.73
4.42,-3.736,9.149,3.305,11.73,-3.736,8.622,3.209,-11.73,4.026,9.059,3.164,17.595,-76.246,11.73
4.425,-4.119,8.957,3.209,17.595,-4.072,8.67,3.161,-17.595,4.17,9.059,3.02,23.46,-76.246,17.595
4.43,-3.976,8.862,3.257,23.46,-4.024,8.67,3.257,-17.595,4.314,9.059,3.02,29.326,-70.381,17.595
4.4350000000000005,-4.215,8.67,3.401,23.46,-4.167,8.335,3.449,-23.46,4.458,8.916,3.164,29.326,-70.381,23.46
4.44,-4.167,8.383,3.64,29.326,-4.215,8.143,3.832,-29.326,4.458,8.484,3.307,29.326,-70.381,29.326
4.445,-4.215,8.287,4.072,29.326,-4.503,8.047,4.167,-29.326,4.458,8.484,3.739,35.191,-70.381,29.326
4.45,-4.407,8.143,4.311,29.326,-4.838,7.951,4.311,-29.326,4.745,8.34,4.026,35.191,-70.381,29.326
4.455,-4.407,7.904,4.407,29.326,-5.077,7.856,4.407,-29.326,5.033,8.197,4.17,35.191,-64.516,29.326
4.46,-4.551,7.664,4.598,29.326,-5.125,7.856,4.551,-23.46,5.033,8.053,4.314,41.056,-64.516,29.326
4.465,-4.503,7.52,4.598,29.326,-5.221,7.999,4.407,-23.46,5.177,8.053,4.458,41.056,-58.651,29.326
4.47,-4.694,7.377,4.407,29.326,-5.221,7.904,4.215,-23.46,5.321,8.053,4.314,35.191,-52.786,23.46
4.4750000000000005,-4.838,7.089,4.215,23.46,-5.125,7.616,4.072,-23.46,5.321,7.909,4.026,35.191,-46.921,23.46
4.48,-4.694,6.802,4.167,23.46,-4.982,7.329,3.976,-23.46,5.177,7.621,4.026,29.326,-46.921,23.46
4.485,-4.646,6.323,3.928,29.326,-4.886,6.946,3.736,-23.46,5.033,7.19,3.739,29.326,-41.056,23.46
4.49,-4.79,5.988,3.688,29.326,-4.982,6.61,3.545,-23.46,5.177,6.759,3.595,23.46,-41.056,23.46
4.495,-4.838,5.796,3.545,23.46,-4.934,6.275,3.401,-17.595,5.177,6.471,3.451,17.595,-35.191,23.46
4.5,-4.79,5.7,3.401,11.73,-4.838,6.035,3.257,-11.73,5.177,6.327,3.164,5.865,-35.191,17.595
4.505,-4.886,5.604,3.257,5.865,-4.982,5.892,3.114,-5.865,5.177,6.183,3.02,5.865,-35.191,11.73
4.51,-4.886,5.556,3.114,5.865,-5.077,5.7,2.97,0.0,5.177,6.04,2.876,5.865,-35.191,5.865
4.515,-4.934,5.413,3.066,5.865,-5.03,5.509,2.97,0.0,5.321,5.896,2.876,5.865,-29.326,5.865
4.5200000000000005,-4.79,5.269,3.018,-0.0,-4.838,5.221,2.97,0.0,5.177,5.608,2.732,5.865,-29.326,0.0
4.525,-4.742,5.221,3.018,5.865,-4.838,5.077,2.922,0.0,5.033,5.464,2.876,5.865,-29.326,5.865
4.53,-4.79,5.173,2.97,5.865,-4.886,4.982,2.874,-5.865,5.033,5.321,2.732,5.865,-29.326,5.865
4.535,-4.742,5.125,2.97,5.865,-4.79,4.886,2.874,-5.865,5.033,5.321,2.732,5.865,-29.326,5.865
4.54,-4.694,5.173,3.018,5.865,-4.694,4.886,2.922,-5.865,5.033,5.321,2.732,5.865,-23.46,5.865
4.545,-4.694,5.269,3.018,5.865,-4.694,5.03,2.97,-5.865,4.889,5.321,2.732,5.865,-23.46,5.865
4.55,-4.646,5.365,3.114,11.73,-4.742,5.173,3.066,-11.73,4.889,5.464,2.876,17.595,-23.46,11.73
4.555,-4.694,5.461,3.257,11.73,-4.79,5.221,3.257,-5.865,5.033,5.608,3.02,17.595,-23.46,11.73
4.5600000000000005,-4.694,5.556,3.449,11.73,-4.886,5.365,3.497,-11.73,5.033,5.608,3.164,23.46,-23.46,11.73
4.565,-4.694,5.604,3.736,11.73,-4.982,5.509,3.832,-11.73,5.033,5.752,3.451,23.46,-23.46,11.73
4.57,-4.646,5.652,4.072,17.595,-5.173,5.7,4.119,-17.595,5.177,5.896,3.739,23.46,-17.595,17.595
4.575,-4.742,5.604,4.359,23.46,-5.125,5.556,4.263,-23.46,5.177,5.896,4.026,29.326,-17.595,23.46
4.58,-4.646,5.604,4.503,23.46,-5.221,5.796,4.551,-23.46,5.177,5.896,4.17,29.326,-11.73,23.46
4.585,-4.838,5.556,4.742,23.46,-5.556,5.604,4.646,-23.46,5.321,6.04,4.458,29.326,-11.73,23.46
4.59,-5.077,5.652,4.694,29.326,-5.509,5.461,4.551,-23.46,5.608,5.896,4.458,29.326,-5.865,23.46
4.595,-4.934,5.556,4.838,29.326,-5.269,5.461,4.838,-23.46,5.464,5.752,4.458,29.326,0.0,23.46
4.6000000000000005,-5.03,5.652,4.982,29.326,-5.365,5.604,4.982,-23.46,5.464,5.752,4.745,29.326,0.0,23.46
4.605,-5.125,6.083,5.221,29.326,-5.652,5.844,5.269,-23.46,5.464,6.04,4.889,29.326,5.865,23.46
4.61,-5.317,6.371,5.509,23.46,-5.7,6.179,5.509,-17.595,5.752,6.327,5.321,35.191,5.865,23.46
4.615,-5.173,6.419,5.652,23.46,-5.796,6.467,5.556,-17.595,5.752,6.615,5.464,35.191,11.73,23.46
4.62,-5.317,6.467,5.7,23.46,-5.796,6.706,5.604,-17.595,5.896,6.759,5.464,41.056,17.595,23.46
4.625,-5.365,6.419,5.796,23.46,-5.748,6.467,5.748,-17.595,5.896,6.759,5.608,41.056,17.595,23.46
4.63,-5.221,6.083,5.94,23.46,-5.652,6.323,5.892,-17.595,5.752,6.615,5.608,41.056,23.46,23.46
4.635,-5.317,5.7,5.988,23.46,-5.796,6.083,5.94,-17.595,5.752,6.327,5.752,41.056,29.326,17.595
4.64,-5.365,5.317,6.083,17.595,-5.844,5.844,6.131,-11.73,5.896,6.04,5.896,41.056,29.326,17.595
4.6450000000000005,-5.173,5.03,6.275,17.595,-5.7,5.604,6.275,-11.73,5.752,5.896,6.04,35.191,35.191,17.595
4.65,-5.077,4.886,6.467,11.73,-5.556,5.509,6.467,-5.865,5.608,5.608,6.183,35.191,35.191,11.73
4.655,-4.934,4.934,6.61,5.865,-5.365,5.604,6.562,0.0,5.464,5.464,6.471,29.326,41.056,5.865
4.66,-4.79,5.269,6.706,-0.0,-5.221,6.083,6.658,5.865,5.321,5.752,6.471,29.326,46.921,0.0
4.665,-4.694,5.844,6.802,-5.865,-5.125,6.562,6.802,17.595,5.177,6.183,6.615,23.46,52.786,-5.865
4.67,-4.646,6.562,6.898,-11.73,-4.934,7.137,6.85,23.46,5.177,6.759,6.759,23.46,52.786,-11.73
4.675,-4.646,7.329,6.898,-17.595,-4.838,7.712,6.802,23.46,5.033,7.478,6.759,17.595,58.651,-17.595
4.68,-4.694,8.047,6.85,-23.46,-4.646,8.239,6.802,29.326,5.033,8.053,6.615,17.595,58.651,-23.46
4.6850000000000005,-4.742,8.574,6.85,-29.326,-4.455,8.622,6.802,35.191,4.889,8.628,6.759,17.595,64.516,-23.46
4.69,-4.551,8.957,6.802,-29.326,-4.263,9.149,6.754,35.191,4.745,9.059,6.615,23.46,64.516,-35.191
4.695,-4.598,9.197,6.706,-35.191,-4.263,9.484,6.658,41.056,4.745,9.491,6.615,23.46,64.516,-35.191
4.7,-4.551,9.628,6.658,-35.191,-4.072,9.772,6.658,41.056,4.602,9.778,6.615,23.46,64.516,-35.191
4.705,-4.598,9.963,6.706,-41.056,-4.072,10.059,6.706,46.921,4.602,10.066,6.615,23.46,58.651,-41.056
4.71,-4.646,10.155,6.802,-41.056,-4.215,10.155,6.898,46.921,4.602,10.354,6.615,23.46,58.651,-41.056
4.715,-4.598,10.155,7.089,-41.056,-4.263,10.203,7.185,46.921,4.602,10.354,6.902,29.326,58.651,-46.921
4.72,-4.551,10.059,7.329,-41.056,-4.311,10.107,7.329,46.921,4.745,10.354,7.19,29.326,52.786,-46.921
4.7250000000000005,-4.503,10.059,7.425,-41.056,-4.311,10.107,7.425,46.921,4.745,10.21,7.334,29.326,52.786,-46.921
4.73,-4.551,9.915,7.52,-41.056,-4.359,10.059,7.52,46.921,4.745,10.21,7.334,29.326,52.786,-41.056
4.735,-4.503,9.867,7.568,-41.056,-4.311,10.059,7.52,41.056,4.745,10.21,7.478,29.326,52.786,-41.056
4.74,-4.503,9.867,7.52,-35.191,-4.311,10.059,7.377,41.056,4.602,10.21,7.478,29.326,52.786,-41.056
4.745,-4.503,9.772,7.329,-35.191,-4.359,9.963,7.185,35.191,4.745,10.21,7.334,29.326,52.786,-35.191
4.75,-4.455,9.82,7.137,-29.326,-4.263,10.011,6.946,35.191,4.745,10.066,7.046,29.326,52.786,-29.326
4.755,-4.551,9.915,6.85,-29.326,-4.215,9.915,6.61,29.326,4.602,10.21,6.759,29.326,52.786,-29.326
4.76,-4.551,9.772,6.467,-23.46,-4.119,9.82,6.227,29.326,4.602,10.066,6.471,29.326,52.786,-23.46
4.765,-4.407,9.772,6.179,-23.46,-4.024,9.82,5.94,23.46,4.458,10.066,6.04,29.326,52.786,-23.46
4.7700000000000005,-4.503,9.772,5.844,-17.595,-4.024,9.628,5.652,23.46,4.458,9.922,5.896,29.326,52.786,-17.595
4.775,-4.359,9.58,5.556,-17.595,-3.832,9.436,5.365,23.46,4.458,9.922,5.464,29.326,52.786,-17.595
4.78,-4.119,9.293,5.269,-17.595,-3.832,9.293,5.03,17.595,4.314,9.635,5.177,29.326,46.921,-17.595
4.785,-4.167,9.149,4.838,-17.595,-3.88,9.149,4.646,17.595,4.17,9.491,4.745,29.326,46.921,-17.595
4.79,-4.072,8.957,4.598,-17.595,-3.736,9.101,4.407,17.595,4.314,9.347,4.458,29.326,46.921,-17.595
4.795,-3.832,8.814,4.359,-17.595,-3.64,8.909,4.167,17.595,4.026,9.203,4.314,29.326,46.921,-17.595
4.8,-3.88,8.766,4.072,-17.595,-3.497,8.766,3.784,23.46,4.026,9.059,4.026,29.326,46.921,-17.595
4.805,-3.736,8.718,3.64,-17.595,-3.353,8.67,3.401,23.46,3.883,8.916,3.595,29.326,46.921,-17.595
4.8100000000000005,-3.64,8.622,3.257,-17.595,-3.161,8.622,3.018,23.46,3.739,8.916,3.164,29.326,46.921,-17.595
4.815,-3.593,8.622,2.922,-17.595,-3.114,8.622,2.73,29.326,3.595,8.772,2.876,29.326,46.921,-23.46
4.82,-3.401,8.622,2.682,-23.46,-2.922,8.526,2.491,29.326,3.451,8.772,2.588,29.326,41.056,-23.46
4.825,-3.401,8.574,2.491,-23.46,-2.922,8.478,2.299,29.326,3.451,8.772,2.445,29.326,41.056,-23.46
4.83,-3.257,8.622,2.251,-23.46,-2.826,8.526,2.108,29.326,3.307,8.772,2.157,35.191,41.056,-23.46
4.835,-3.209,8.67,2.108,-23.46,-2.778,8.574,1.964,29.326,3.307,8.772,1.869,35.191,41.056,-23.46
4.84,-3.209,8.718,1.964,-23.46,-2.73,8.526,1.82,29.326,3.164,8.772,1.726,35.191,35.191,-23.46
4.845,-3.114,8.67,1.868,-23.46,-2.73,8.478,1.772,23.46,3.164,8.772,1.726,35.191,35.191,-23.46
4.8500000000000005,-3.114,8.622,1.868,-23.46,-2.778,8.43,1.868,23.46,3.164,8.772,1.726,41.056,35.191,-23.46
4.855,-3.018,8.478,1.964,-17.595,-2.778,8.383,1.916,23.46,3.164,8.628,1.726,41.056,35.191,-23.46
4.86,-3.018,8.335,2.012,-17.595,-2.778,8.191,1.916,23.46,3.164,8.484,1.726,41.056,29.326,-23.46
4.865,-3.114,8.239,2.012,-17.595,-2.922,8.095,1.916,23.46,3.164,8.34,1.726,41.056,29.326,-17.595
4.87,-3.161,8.239,2.012,-17.595,-3.018,8.143,1.916,23.46,3.307,8.34,1.726,41.056,29.326,-17.595
4.875,-3.257,8.335,2.012,-17.595,-2.874,8.191,2.012,17.595,3.307,8.484,1.869,46.921,29.326,-17.595
4.88,-3.257,8.383,2.108,-11.73,-2.778,8.383,2.108,17.595,3.307,8.484,1.869,46.921,29.326,-17.595
4.885,-3.209,8.478,2.203,-11.73,-2.682,8.526,2.108,17.595,3.164,8.628,2.013,46.921,29.326,-11.73
4.89,-3.209,8.622,2.203,-11.73,-2.635,8.67,2.108,11.73,3.164,8.772,2.013,52.786,29.326,-11.73
4.8950000000000005,-3.305,8.574,2.203,-11.73,-2.587,8.862,2.156,17.595,3.164,8.916,2.013,52.786,29.326,-11.73
4.9,-3.257,8.43,2.251,-11.73,-1.581,8.814,2.587,17.595,3.164,8.916,2.013,52.786,23.46,-11.73
4.905,-2.97,8.335,2.491,-17.595,-2.299,9.149,2.443,17.595,2.588,8.916,2.445,46.921,17.595,-11.73
4.91,-2.826,7.616,2.587,-17.595,-2.73,9.915,2.491,23.46,2.876,8.772,2.301,46.921,11.73,-17.595
4.915,-2.922,7.329,2.491,-17.595,-3.018,10.49,2.203,23.46,3.164,9.203,2.301,41.056,5.865,-17.595
4.92,-2.682,6.898,2.251,-17.595,-2.778,10.778,2.06,23.46,3.164,9.347,2.013,23.46,5.865,-17.595
4.925,-2.635,7.089,2.251,-23.46,-2.491,10.921,2.299,29.326,3.02,9.491,2.013,5.865,11.73,-23.46
4.93,-2.539,7.904,2.587,-23.46,-2.395,11.304,2.778,29.326,2.732,9.778,2.301,-23.46,17.595,-23.46
4.9350000000000005,-2.682,9.388,3.114,-29.326,-2.587,11.975,3.305,35.191,2.732,10.641,2.732,-41.056,17.595,-35.191
4.94,-2.73,10.921,3.545,-35.191,-2.73,13.029,3.688,41.056,2.876,11.648,3.307,-58.651,17.595,-35.191
4.945,-2.97,12.502,3.976,-41.056,-2.97,14.083,4.119,41.056,3.164,12.942,3.739,-70.381,17.595,-41.056
4.95,-3.066,13.843,4.263,-35.191,-3.114,14.897,4.311,41.056,3.451,14.092,4.026,-82.111,17.595,-41.056
4.955,-3.257,15.041,4.407,-35.191,-2.97,15.472,4.455,35.191,3.451,15.099,4.314,-87.977,17.595,-35.191
4.96,-3.401,15.951,4.455,-23.46,-2.874,15.999,4.455,23.46,3.451,15.818,4.314,-93.842,17.595,-29.326
4.965,-3.497,16.669,4.407,-17.595,-2.778,16.334,4.311,11.73,3.451,16.393,4.314,-87.977,23.46,-17.595
4.97,-3.64,17.1,4.263,-5.865,-2.682,16.478,4.119,5.865,3.451,16.825,4.17,-87.977,17.595,-11.73
4.9750000000000005,-3.593,17.292,4.072,5.865,-2.395,16.526,4.024,-5.865,3.451,16.968,4.026,-87.977,17.595,0.0
4.98,-3.593,17.34,3.976,17.595,-2.347,16.286,3.88,-23.46,3.307,16.968,3.883,-76.246,11.73,11.73
4.985,-3.401,17.052,3.832,35.191,-2.156,15.951,3.784,-41.056,3.164,16.681,3.739,-70.381,5.865,29.326
4.99,-3.257,16.478,3.736,52.786,-2.012,15.328,3.64,-58.651,3.02,16.393,3.739,-64.516,0.0,46.921
4.995,-3.114,15.615,3.545,64.516,-1.868,14.562,3.353,-70.381,2.876,15.674,3.451,-58.651,-5.865,58.651
5.0,-2.874,14.61,3.257,76.246,-1.677,13.652,3.018,-82.111,2.588,14.811,3.307,-52.786,-5.865,76.246
5.005,-2.778,13.46,2.922,87.977,-1.533,12.502,2.682,-93.842,2.445,13.661,2.876,-52.786,-11.73,82.111
5.01,-2.587,12.119,2.635,99.707,-1.245,11.448,2.539,-99.707,2.301,12.511,2.588,-46.921,-17.595,93.842
5.015,-2.347,10.825,2.539,105.572,-1.15,10.442,2.491,-105.572,2.013,11.36,2.445,-46.921,-23.46,105.572
5.0200000000000005,-2.203,9.724,2.539,111.437,-1.102,9.388,2.539,-111.437,1.869,10.21,2.445,-46.921,-29.326,105.572
5.025,-2.251,8.766,2.635,111.437,-1.102,8.239,2.635,-111.437,1.726,9.203,2.445,-46.921,-35.191,111.437
5.03,-2.06,8.047,2.778,111.437,-1.198,7.233,2.922,-111.437,1.726,8.197,2.588,-46.921,-41.056,111.437
5.035,-2.443,7.377,3.018,111.437,-1.485,5.988,2.97,-111.437,1.869,7.334,2.732,-46.921,-41.056,111.437
5.04,-2.203,6.275,3.066,111.437,-1.341,4.934,3.305,-111.437,1.869,6.183,2.732,-41.056,-46.921,111.437
5.045,-2.395,5.413,3.449,111.437,-1.485,3.88,3.64,-105.572,2.013,5.177,3.164,-35.191,-52.786,111.437
5.05,-2.06,4.598,3.688,105.572,-1.868,3.018,3.688,-99.707,2.013,4.314,3.451,-29.326,-58.651,105.572
5.055,-2.443,3.497,3.832,99.707,-2.395,2.203,3.88,-99.707,2.301,3.307,3.595,-23.46,-64.516,99.707
5.0600000000000005,-2.682,2.395,3.928,93.842,-2.587,1.054,3.88,-93.842,2.732,2.445,3.739,-17.595,-64.516,93.842
5.065,-2.73,1.245,3.976,87.977,-2.682,0.0,4.072,-87.977,2.732,1.294,3.739,-11.73,-64.516,93.842
5.07,-3.018,-0.144,4.072,87.977,-2.826,-1.054,4.119,-82.111,3.02,0.0,3.883,-5.865,-64.516,82.111
5.075,-2.826,-1.629,4.119,76.246,-2.826,-2.012,4.119,-76.246,3.02,-1.15,3.883,0.0,-70.381,76.246
5.08,-2.73,-2.778,4.167,70.381,-3.018,-2.73,4.263,-64.516,2.876,-2.157,3.883,0.0,-70.381,70.381
5.085,-2.778,-3.784,4.455,58.651,-3.018,-3.305,4.694,-52.786,3.02,-3.02,4.026,0.0,-70.381,64.516
5.09,-2.587,-4.455,5.03,52.786,-3.114,-3.593,5.317,-41.056,3.02,-3.595,4.602,-5.865,-70.381,52.786
5.095,-2.443,-4.646,5.7,35.191,-3.114,-3.928,6.035,-29.326,2.876,-4.026,5.321,-5.865,-64.516,41.056
5.1000000000000005,-2.491,-4.311,6.371,17.595,-3.305,-4.359,6.61,-5.865,2.876,-4.17,5.896,-11.73,-64.516,23.46
5.105,-2.539,-4.119,6.802,-0.0,-3.593,-4.694,6.946,11.73,3.02,-4.314,6.471,-17.595,-58.651,5.865
5.11,-2.491,-4.359,7.137,-17.595,-3.832,-4.646,7.137,29.326,3.164,-4.458,6.759,-17.595,-58.651,-17.595
5.115,-2.395,-4.359,7.281,-35.191,-3.784,-4.263,7.281,41.056,3.307,-4.458,7.046,-11.73,-52.786,-35.191
5.12,-2.443,-4.072,7.377,-46.921,-3.64,-3.784,7.281,58.651,3.164,-4.17,7.046,-11.73,-41.056,-46.921
5.125,-2.012,-3.784,7.137,-58.651,-3.784,-3.497,6.85,70.381,3.02,-3.739,7.046,-5.865,-35.191,-58.651
5.13,-2.299,-3.449,6.898,-70.381,-3.688,-3.353,6.562,82.111,3.164,-3.307,6.615,-5.865,-29.326,-70.381
5.135,-1.916,-3.736,6.514,-82.111,-3.161,-3.066,6.179,93.842,3.02,-3.451,6.327,-5.865,-17.595,-82.111
5.14,-1.629,-3.832,6.083,-93.842,-2.778,-2.347,5.796,99.707,2.588,-3.307,5.896,-11.73,-5.865,-93.842
5.1450000000000005,-1.437,-3.161,5.652,-99.707,-2.156,-1.102,5.173,111.437,2.157,-2.588,5.464,-11.73,0.0,-99.707
5.15,-0.814,-1.389,5.125,-111.437,-1.916,0.479,4.551,123.167,1.726,-1.15,4.889,-17.595,11.73,-111.437
5.155,-0.766,0.287,4.263,-129.032,-1.198,1.916,3.88,134.897,1.438,0.288,4.17,-29.326,17.595,-123.167
5.16,-1.006,2.012,3.736,-140.762,-0.814,3.593,3.114,152.493,1.15,2.013,3.595,-35.191,23.46,-140.762
5.165,-1.341,4.551,2.826,-146.628,-1.245,4.551,2.347,152.493,1.438,5.033,3.02,-41.056,29.326,-146.628
5.17,-1.868,10.969,2.635,-140.762,-0.048,10.394,2.347,146.628,1.438,6.471,2.301,-41.056,23.46,-146.628
5.175,-3.593,24.094,-10.73,-146.628,-5.892,21.603,-4.455,175.953,1.726,40.839,-1.007,-29.326,23.46,-146.628
5.18,-15.52,24.19,0.287,-158.358,3.593,24.142,3.832,99.707,9.347,32.93,-2.157,29.326,17.595,-170.088
5.1850000000000005,0.192,24.19,-0.479,-0.0,-2.778,24.381,-4.263,-76.246,-0.144,29.191,2.445,123.167,-35.191,-58.651
5.19,-4.359,23.088,-7.377,129.032,-7.616,24.381,-7.472,-152.493,4.458,29.479,-6.183,193.548,-87.977,105.572
5.195,-6.083,15.903,-7.137,170.088,-2.587,19.16,-5.988,-175.953,7.478,22.577,-7.621,211.144,-93.842,164.223
5.2,-2.299,10.011,-4.79,175.953,0.91,13.412,-3.018,-170.088,2.588,15.387,-5.608,175.953,-87.977,175.953
5.205,-1.293,4.455,-1.724,164.223,0.096,11.831,-0.24,-146.628,0.288,9.922,-2.588,134.897,-93.842,164.223
5.21,-1.389,3.066,0.814,123.167,-2.012,11.927,1.916,-87.977,0.863,8.34,0.144,93.842,-105.572,134.897
5.215,-1.724,5.844,3.497,52.786,-2.682,11.831,5.556,-5.865,2.157,9.059,2.301,41.056,-111.437,70.381
5.22,-2.539,9.341,6.85,-29.326,-4.934,13.029,7.808,52.786,3.164,10.785,6.04,-5.865,-111.437,-11.73
5.2250000000000005,-3.449,11.688,8.43,-70.381,-6.131,13.029,8.526,82.111,4.745,12.654,8.053,-29.326,-105.572,-64.516
5.23,-4.167,12.741,8.814,-82.111,-6.562,13.652,8.814,82.111,5.752,13.086,8.628,-46.921,-93.842,-82.111
5.235,-4.263,13.652,9.005,-76.246,-5.365,12.837,8.574,70.381,5.752,13.805,8.916,-52.786,-82.111,-82.111
5.24,-4.024,12.885,8.047,-58.651,-4.072,12.071,7.089,52.786,5.033,13.086,8.34,-58.651,-64.516,-70.381
5.245,-3.832,11.352,6.562,-46.921,-3.257,10.634,6.179,41.056,4.17,11.935,6.759,-52.786,-52.786,-52.786
5.25,-3.832,10.394,5.988,-29.326,-2.778,9.293,6.179,23.46,3.739,10.641,6.04,-52.786,-46.921,-35.191
5.255,-3.64,10.059,6.275,-17.595,-3.066,8.478,6.61,11.73,3.451,9.635,6.183,-52.786,-52.786,-17.595
5.26,-3.305,9.867,6.993,-5.865,-3.353,8.095,7.185,0.0,3.451,9.203,6.759,-46.921,-52.786,-5.865
5.265,-2.874,10.155,7.425,5.865,-3.593,8.143,7.329,-5.865,3.595,9.059,7.19,-35.191,-58.651,0.0
5.2700000000000005,-3.161,9.628,6.898,11.73,-3.736,8.478,6.035,-11.73,3.595,9.059,7.046,-23.46,-52.786,11.73
5.275,-2.826,8.814,5.413,11.73,-3.449,9.149,4.598,-11.73,3.595,8.916,5.608,-11.73,-46.921,11.73
5.28,-2.97,8.718,4.167,23.46,-3.018,8.957,3.688,-23.46,3.451,9.203,4.314,-5.865,-41.056,17.595
5.285,-2.874,8.622,3.545,29.326,-2.635,8.67,3.257,-29.326,3.164,8.916,3.451,-5.865,-35.191,23.46
5.29,-2.922,8.287,3.161,35.191,-2.635,8.335,2.922,-35.191,3.02,8.772,3.02,-11.73,-35.191,35.191
5.295,-2.826,7.999,2.874,35.191,-2.682,8.143,2.73,-29.326,3.02,8.34,2.732,-11.73,-35.191,35.191
5.3,-2.97,7.712,2.73,29.326,-2.922,7.856,2.539,-29.326,3.02,8.197,2.588,-11.73,-35.191,29.326
5.305,-3.018,7.52,2.587,29.326,-2.97,7.76,2.443,-29.326,3.164,7.909,2.445,-11.73,-35.191,29.326
5.3100000000000005,-2.97,7.233,2.539,29.326,-2.874,7.52,2.491,-29.326,3.164,7.765,2.301,-11.73,-35.191,29.326
5.315,-2.826,7.137,2.491,29.326,-2.73,7.281,2.539,-23.46,3.02,7.478,2.301,-11.73,-35.191,23.46
5.32,-3.209,7.185,2.635,23.46,-3.066,7.137,2.587,-23.46,3.164,7.478,2.445,-17.595,-35.191,23.46
5.325,-3.018,7.137,2.73,23.46,-2.922,6.898,2.778,-17.595,3.307,7.334,2.445,-17.595,-35.191,23.46
5.33,-3.018,6.898,2.922,17.595,-3.018,6.562,2.778,-17.595,3.164,7.046,2.732,-17.595,-35.191,17.595
5.335,-3.449,6.754,2.826,23.46,-3.305,6.658,2.778,-23.46,3.451,6.759,2.588,-17.595,-35.191,23.46
5.34,-3.401,7.137,2.874,23.46,-3.066,6.802,2.826,-17.595,3.595,7.046,2.588,-11.73,-35.191,23.46
5.345,-3.449,7.329,2.874,17.595,-3.018,6.993,2.874,-11.73,3.451,7.19,2.732,-11.73,-35.191,17.595
5.3500000000000005,-3.449,7.616,2.97,11.73,-3.018,7.137,2.922,-11.73,3.451,7.478,2.732,-5.865,-35.191,17.595
5.355,-3.161,7.616,3.018,11.73,-3.066,7.233,2.97,-11.73,3.451,7.621,2.732,0.0,-35.191,11.73
5.36,-3.545,7.616,3.066,17.595,-3.353,7.089,3.018,-11.73,3.451,7.621,2.876,0.0,-35.191,11.73
5.365,-3.497,7.712,3.161,17.595,-3.114,7.137,3.161,-17.595,3.739,7.478,2.876,5.865,-35.191,17.595
5.37,-3.401,7.616,3.305,17.595,-3.066,7.185,3.401,-17.595,3.451,7.621,3.02,5.865,-35.191,17.595
5.375,-3.401,7.52,3.545,17.595,-3.257,7.281,3.64,-11.73,3.307,7.621,3.307,5.865,-35.191,17.595
5.38,-3.114,7.425,3.832,17.595,-3.353,7.329,3.832,-17.595,3.451,7.621,3.595,17.595,-35.191,17.595
5.385,-2.97,7.233,4.119,23.46,-3.353,7.52,4.167,-17.595,3.451,7.478,3.739,17.595,-35.191,17.595
5.39,-2.539,7.329,4.455,17.595,-3.64,7.568,4.694,-17.595,3.307,7.909,3.739,23.46,-35.191,17.595
5.3950000000000005,-2.826,6.898,5.173,17.595,-3.593,7.616,4.982,-11.73,3.451,7.478,4.745,17.595,-29.326,17.595
5.4,-2.587,6.706,5.365,11.73,-3.593,7.472,5.173,-5.865,3.307,7.478,5.033,5.865,-23.46,11.73
5.405,-2.826,6.61,5.461,5.865,-3.736,7.281,5.365,0.0,3.451,7.334,5.177,5.865,-17.595,5.865
5.41,-2.73,6.898,5.652,-0.0,-3.736,7.425,5.652,0.0,3.595,7.334,5.321,5.865,-11.73,5.865
5.415,-2.922,7.281,5.94,-0.0,-3.784,7.472,5.844,5.865,3.595,7.478,5.608,0.0,-5.865,0.0
5.42,-2.251,7.52,6.131,-5.865,-3.449,7.616,6.035,17.595,3.451,7.621,5.896,0.0,5.865,-5.865
5.425,-2.443,7.664,6.083,-17.595,-3.449,7.664,5.748,17.595,3.164,7.765,5.896,0.0,11.73,-17.595
5.43,-2.682,7.568,5.748,-17.595,-3.64,7.568,5.413,17.595,3.451,7.765,5.608,0.0,23.46,-17.595
5.4350000000000005,-2.922,7.425,5.509,-11.73,-3.784,7.425,5.317,17.595,3.595,7.765,5.321,0.0,29.326,-11.73
5.44,-2.97,6.898,5.221,-11.73,-3.305,7.041,4.886,17.595,3.595,7.334,5.177,0.0,35.191,-11.73
5.445,-3.066,6.371,4.742,-11.73,-3.066,6.802,4.407,17.595,3.307,6.902,4.745,0.0,41.056,-11.73
5.45,-3.449,6.179,4.263,-17.595,-3.305,6.754,4.072,17.595,3.451,6.759,4.17,-5.865,46.921,-11.73
5.455,-3.736,6.275,4.072,-11.73,-3.449,6.802,4.072,17.595,3.739,6.759,3.883,-5.865,46.921,-11.73
5.46,-3.976,6.514,4.119,-11.73,-3.593,6.85,4.167,17.595,3.883,6.902,3.883,-11.73,46.921,-11.73
5.465,-4.072,6.706,4.359,-11.73,-3.832,7.089,4.455,17.595,4.026,7.046,4.026,-11.73,46.921,-11.73
5.47,-4.263,6.802,4.646,-17.595,-4.119,7.281,4.646,23.46,4.314,7.19,4.314,-11.73,41.056,-17.595
5.4750000000000005,-4.263,6.898,4.79,-23.46,-4.167,7.329,4.79,29.326,4.458,7.334,4.602,-11.73,41.056,-17.595
5.48,-4.311,7.041,4.886,-23.46,-4.072,7.281,4.934,35.191,4.458,7.478,4.745,-17.595,41.056,-23.46
5.485,-4.407,7.281,5.03,-29.326,-3.736,7.137,4.838,41.056,4.458,7.478,4.745,-17.595,41.056,-35.191
5.49,-4.598,7.329,4.646,-35.191,-4.024,7.089,4.263,41.056,4.314,7.478,4.602,-17.595,41.056,-35.191
5.495,-4.167,7.472,4.359,-41.056,-4.598,7.568,4.263,46.921,4.458,7.621,4.17,-17.595,35.191,-41.056
5.5,-4.79,8.047,4.503,-46.921,-5.796,8.574,4.742,46.921,5.177,8.053,4.17,-11.73,35.191,-46.921
5.505,-5.7,9.388,4.934,-35.191,-6.802,9.293,5.03,23.46,6.04,9.203,4.745,-11.73,35.191,-41.056
5.51,-5.7,10.251,5.461,-5.865,-6.754,9.963,5.509,-5.865,6.759,10.066,5.033,-11.73,41.056,-17.595
5.515,-5.269,10.682,5.748,23.46,-5.604,10.059,5.461,-35.191,6.327,10.641,5.464,-5.865,46.921,17.595
5.5200000000000005,-4.982,10.251,5.365,46.921,-5.03,9.628,5.077,-46.921,5.608,10.497,5.321,-5.865,52.786,41.056
5.525,-4.79,9.484,4.934,52.786,-4.551,9.293,4.503,-46.921,5.033,9.922,4.889,0.0,58.651,52.786
5.53,-5.03,8.766,4.119,46.921,-4.263,9.005,3.736,-35.191,5.033,9.347,4.17,0.0,64.516,46.921
5.535,-5.221,8.143,3.353,35.191,-4.167,8.909,3.018,-29.326,4.889,8.916,3.451,5.865,64.516,35.191
5.54,-5.269,7.951,2.778,29.326,-4.311,9.245,2.73,-23.46,4.889,8.772,2.732,0.0,58.651,29.326
5.545,-5.365,8.383,2.874,23.46,-4.455,9.676,2.922,-17.595,5.033,9.203,2.588,0.0,52.786,23.46
5.55,-5.556,9.197,3.209,23.46,-4.455,10.059,3.305,-17.595,5.177,9.635,2.876,-5.865,46.921,23.46
5.555,-5.365,10.059,3.64,23.46,-4.359,10.251,3.88,-17.595,5.177,10.21,3.307,-11.73,41.056,23.46
5.5600000000000005,-5.125,10.538,4.167,23.46,-4.167,10.299,4.263,-11.73,5.033,10.641,3.883,-17.595,35.191,23.46
5.565,-5.03,10.634,4.407,11.73,-4.167,10.251,4.407,-5.865,4.889,10.785,4.17,-11.73,29.326,17.595
5.57,-4.79,10.538,4.455,5.865,-4.072,10.107,4.359,5.865,4.745,10.641,4.314,-11.73,23.46,5.865
5.575,-4.79,10.251,4.359,-5.865,-4.119,10.059,4.215,11.73,4.602,10.497,4.17,-5.865,17.595,-5.865
5.58,-4.694,10.251,4.215,-11.73,-3.928,9.963,4.024,17.595,4.602,10.354,4.17,0.0,17.595,-11.73
5.585,-4.503,10.203,4.024,-17.595,-3.832,9.915,3.88,23.46,4.458,10.354,3.883,0.0,11.73,-17.595
5.59,-4.359,10.155,3.928,-17.595,-3.784,9.82,3.88,23.46,4.314,10.21,3.739,5.865,11.73,-17.595
5.595,-4.311,10.011,3.976,-17.595,-3.736,9.628,3.928,23.46,4.314,10.066,3.739,5.865,5.865,-17.595
5.6000000000000005,-4.167,10.059,4.119,-17.595,-3.449,9.388,4.119,23.46,4.17,10.066,3.883,5.865,5.865,-17.595
5.605,-4.119,10.155,4.263,-17.595,-3.305,9.149,4.359,17.595,4.026,9.922,4.026,5.865,0.0,-17.595
5.61,-4.024,10.394,4.551,-17.595,-3.497,9.101,4.551,17.595,3.883,9.778,4.314,17.595,0.0,-17.595
5.615,-4.263,10.586,4.742,-17.595,-3.784,9.341,4.646,17.595,4.17,9.922,4.458,29.326,-5.865,-17.595
5.62,-4.311,10.73,4.694,-11.73,-3.832,9.772,4.503,5.865,4.314,10.21,4.602,35.191,-5.865,-11.73
5.625,-4.311,10.825,4.455,-0.0,-3.593,10.059,4.311,-5.865,4.314,10.497,4.314,46.921,-11.73,-5.865
5.63,-4.263,10.825,4.263,11.73,-3.401,10.011,4.215,-17.595,4.17,10.641,4.17,52.786,-11.73,11.73
5.635,-4.072,10.538,4.263,23.46,-2.922,9.867,4.359,-23.46,3.883,10.497,4.17,58.651,-17.595,23.46
5.64,-3.688,10.107,4.359,29.326,-2.778,9.772,4.359,-29.326,3.451,10.21,4.17,64.516,-17.595,29.326
5.6450000000000005,-3.593,9.676,4.263,29.326,-2.826,9.676,4.215,-29.326,3.307,9.922,4.17,70.381,-23.46,29.326
5.65,-3.593,9.197,4.215,35.191,-2.922,9.628,4.119,-29.326,3.451,9.635,4.026,70.381,-29.326,29.326
5.655,-3.401,8.862,4.119,29.326,-2.874,9.532,4.072,-29.326,3.451,9.491,4.026,70.381,-29.326,29.326
5.66,-3.161,8.526,4.072,29.326,-2.73,9.484,3.976,-29.326,3.307,9.347,3.883,70.381,-35.191,29.326
5.665,-2.97,8.287,3.976,29.326,-2.682,9.532,3.784,-29.326,3.164,9.203,3.883,64.516,-35.191,29.326
5.67,-2.922,8.287,3.784,29.326,-2.491,9.532,3.545,-23.46,3.02,9.203,3.595,58.651,-35.191,29.326
5.675,-2.826,8.191,3.353,29.326,-2.395,9.676,3.161,-23.46,2.876,9.203,3.307,52.786,-41.056,29.326
5.68,-2.587,8.287,3.066,29.326,-2.251,10.107,2.778,-23.46,2.732,9.347,3.02,41.056,-41.056,23.46
5.6850000000000005,-2.682,8.574,2.587,23.46,-2.203,10.586,2.156,-23.46,2.732,9.635,2.588,35.191,-41.056,23.46
5.69,-2.682,8.957,1.868,29.326,-1.868,10.873,1.437,-29.326,2.588,10.066,1.869,23.46,-41.056,23.46
5.695,-2.491,9.053,1.198,35.191,-1.581,11.017,0.671,-35.191,2.445,10.354,1.15,5.865,-41.056,29.326
5.7,-2.539,8.957,0.24,35.191,-1.341,11.209,-0.144,-35.191,2.157,10.354,0.288,0.0,-46.921,35.191
5.705,-2.635,9.101,-0.527,35.191,-1.054,11.161,-1.006,-35.191,2.013,10.497,-0.575,-17.595,-52.786,35.191
5.71,-2.73,9.388,-1.341,41.056,-0.766,11.065,-1.581,-41.056,2.013,10.641,-1.438,-29.326,-58.651,35.191
5.715,-2.635,9.867,-1.82,41.056,-0.527,11.209,-1.868,-41.056,1.726,10.641,-1.869,-41.056,-64.516,41.056
5.72,-2.73,10.49,-2.108,41.056,-0.479,11.209,-2.108,-46.921,1.726,11.073,-2.157,-52.786,-76.246,41.056
5.7250000000000005,-2.826,10.969,-2.299,46.921,-0.479,11.161,-2.108,-46.921,1.726,11.216,-2.445,-58.651,-87.977,46.921
5.73,-2.73,11.448,-2.251,52.786,-0.527,11.017,-2.012,-52.786,1.726,11.36,-2.445,-64.516,-99.707,46.921
5.735,-2.778,11.831,-2.108,58.651,-0.671,10.73,-1.772,-58.651,1.726,11.504,-2.301,-64.516,-117.302,52.786
5.74,-2.826,12.31,-1.82,64.516,-0.719,10.251,-1.341,-70.381,1.869,11.504,-2.013,-58.651,-129.032,58.651
5.745,-2.73,12.502,-1.293,76.246,-0.479,9.532,-0.623,-76.246,1.869,11.216,-1.582,-52.786,-140.762,70.381
5.75,-2.587,12.406,-0.527,82.111,-0.383,8.622,0.287,-87.977,1.582,10.785,-0.719,-41.056,-152.493,76.246
5.755,-2.299,11.783,0.383,93.842,-0.575,7.76,1.293,-99.707,1.438,10.066,0.288,-23.46,-164.223,87.977
5.76,-2.156,10.921,1.437,105.572,-0.719,6.85,2.395,-105.572,1.438,9.203,1.294,0.0,-175.953,99.707
5.765,-1.964,9.915,2.539,111.437,-0.814,5.892,3.688,-111.437,1.438,8.197,2.301,23.46,-187.683,105.572
5.7700000000000005,-1.868,8.622,3.928,117.302,-0.91,5.125,5.269,-117.302,1.438,7.19,3.739,46.921,-193.548,111.437
5.775,-1.485,7.281,5.556,111.437,-0.91,4.551,7.089,-117.302,1.438,6.183,5.177,70.381,-199.413,111.437
5.78,-0.671,5.652,7.52,117.302,-1.198,4.024,9.197,-111.437,1.15,5.177,7.19,87.977,-205.279,111.437
5.785,0.048,3.784,9.724,111.437,-1.916,3.545,11.4,-111.437,1.007,4.17,9.347,99.707,-205.279,105.572
5.79,0.479,1.868,12.215,105.572,-2.97,3.305,13.795,-99.707,1.294,3.02,11.648,99.707,-205.279,105.572
5.795,1.006,0.383,14.753,93.842,-3.928,3.018,15.999,-87.977,1.582,2.157,14.092,99.707,-187.683,93.842
5.8,0.91,-0.958,17.052,82.111,-4.742,2.587,17.819,-70.381,2.157,1.438,16.393,82.111,-170.088,82.111
5.805,1.006,-2.012,18.729,64.516,-5.7,2.443,19.16,-52.786,2.588,0.719,18.119,64.516,-134.897,70.381
5.8100000000000005,1.006,-2.347,19.926,46.921,-6.035,2.491,19.735,-35.191,3.02,0.431,19.557,35.191,-99.707,46.921
5.815,0.479,-1.916,20.022,29.326,-5.94,2.347,19.495,-17.595,3.451,0.575,19.844,5.865,-58.651,29.326
5.82,0.335,-0.91,19.447,11.73,-5.077,2.635,18.873,0.0,3.307,0.863,19.413,-23.46,-11.73,17.595
5.825,0.431,0.479,18.681,-0.0,-4.551,3.066,18.106,11.73,2.732,1.582,18.838,-52.786,35.191,0.0
5.83,0.192,2.06,17.531,-17.595,-4.263,3.401,16.717,29.326,2.588,2.445,17.831,-70.381,70.381,-11.73
5.835,-0.383,3.545,15.615,-35.191,-3.784,3.64,14.705,46.921,2.588,3.307,16.249,-87.977,105.572,-29.326
5.84,-0.91,4.503,13.46,-46.921,-3.497,4.024,12.598,52.786,2.588,4.026,14.092,-87.977,129.032,-46.921
5.845,-1.341,5.173,11.113,-52.786,-3.305,4.359,10.107,58.651,2.732,4.602,11.935,-87.977,152.493,-52.786
5.8500000000000005,-1.629,5.748,8.383,-52.786,-2.347,4.694,7.377,52.786,2.588,5.033,9.347,-87.977,170.088,-52.786
5.855,-2.012,6.083,5.509,-52.786,-1.485,5.221,4.455,52.786,2.301,5.464,6.327,-76.246,181.818,-52.786
5.86,-2.06,6.371,2.539,-46.921,-0.575,6.179,1.533,52.786,1.726,5.896,3.451,-70.381,193.548,-46.921
5.865,-2.443,6.706,-0.479,-46.921,-0.144,7.616,-1.629,52.786,1.438,6.759,0.431,-64.516,187.683,-46.921
5.87,-2.826,7.041,-3.449,-46.921,0.431,8.766,-4.359,52.786,1.438,7.621,-2.732,-64.516,181.818,-46.921
5.875,-3.161,7.616,-5.844,-46.921,0.862,10.059,-6.514,52.786,1.294,8.628,-5.321,-64.516,164.223,-46.921
5.88,-3.449,8.478,-7.712,-46.921,0.958,11.065,-8.239,52.786,1.15,9.635,-7.334,-76.246,146.628,-52.786
5.885,-3.736,9.724,-9.197,-52.786,0.623,12.358,-9.532,52.786,1.294,10.785,-8.916,-87.977,117.302,-52.786
5.89,-4.311,11.209,-10.299,-46.921,0.0,12.885,-10.394,46.921,1.726,12.079,-10.066,-99.707,93.842,-46.921
5.8950000000000005,-4.551,12.646,-10.73,-35.191,-0.24,12.981,-10.586,35.191,2.301,12.942,-10.785,-111.437,64.516,-41.056
5.9,-4.982,13.652,-10.825,-29.326,-0.287,12.694,-10.538,23.46,2.588,13.517,-10.929,-117.302,35.191,-35.191
5.905,-4.982,14.466,-10.682,-11.73,-0.479,12.31,-10.203,5.865,2.732,13.661,-10.785,-117.302,0.0,-17.595
5.91,-4.934,14.849,-10.107,5.865,-0.479,11.736,-9.58,-17.595,2.732,13.517,-10.354,-105.572,-29.326,0.0
5.915,-4.838,15.041,-9.388,29.326,-0.335,11.017,-8.766,-35.191,2.732,13.23,-9.635,-93.842,-52.786,23.46
5.92,-4.646,15.232,-8.622,46.921,0.144,10.49,-7.856,-52.786,2.445,12.942,-8.916,-70.381,-82.111,41.056
5.925,-4.263,14.945,-7.568,64.516,0.287,10.059,-6.658,-70.381,2.013,12.654,-7.909,-46.921,-111.437,58.651
5.93,-3.736,14.657,-6.514,82.111,0.527,9.772,-5.461,-82.111,1.726,12.223,-6.759,-17.595,-134.897,76.246
5.9350000000000005,-3.257,14.226,-5.269,87.977,1.006,9.436,-3.928,-93.842,1.438,11.935,-5.608,5.865,-164.223,87.977
5.94,-2.826,13.556,-3.88,99.707,0.814,9.963,-2.251,-99.707,1.007,11.36,-4.17,46.921,-187.683,93.842
5.945,-2.06,12.646,-2.156,99.707,0.862,10.346,-0.048,-99.707,0.719,11.36,-2.301,76.246,-211.144,93.842
5.95,-1.677,11.544,0.287,99.707,0.335,10.682,2.778,-105.572,0.575,11.216,-0.144,93.842,-234.604,93.842
5.955,-0.335,10.299,3.593,111.437,-0.287,11.304,6.227,-111.437,0.431,10.785,3.02,105.572,-252.199,105.572
5.96,0.192,9.341,7.185,111.437,-1.102,11.113,9.676,-117.302,0.431,10.497,6.471,111.437,-263.93,105.572
5.965,0.958,8.574,10.682,117.302,-1.964,10.778,12.933,-117.302,0.719,10.21,10.066,99.707,-263.93,111.437
5.97,1.293,7.856,13.891,117.302,-2.587,10.251,15.424,-111.437,0.863,9.491,13.373,82.111,-252.199,111.437
5.9750000000000005,1.293,7.137,15.999,105.572,-3.353,9.58,17.196,-99.707,1.294,8.772,15.674,64.516,-234.604,105.572
5.98,1.485,5.988,17.771,93.842,-4.263,9.053,18.346,-87.977,1.582,8.197,17.544,46.921,-205.279,93.842
5.985,0.623,4.742,18.681,87.977,-4.742,8.383,18.681,-82.111,2.445,7.334,18.55,23.46,-175.953,82.111
5.99,0.671,4.072,18.968,76.246,-4.79,7.951,18.681,-70.381,2.732,6.615,18.838,0.0,-140.762,76.246
5.995,0.383,3.88,18.633,70.381,-3.832,7.233,18.106,-70.381,2.588,6.183,18.694,-29.326,-105.572,70.381
6.0,0.287,4.551,17.867,64.516,-2.922,6.658,17.531,-58.651,2.157,5.896,17.975,-52.786,-64.516,64.516
6.005,0.192,5.461,17.34,52.786,-2.587,6.035,16.957,-46.921,1.726,5.896,17.4,-76.246,-35.191,58.651
6.01,-0.383,6.323,16.573,35.191,-2.635,5.317,15.999,-29.326,1.726,5.896,16.825,-87.977,-11.73,41.056
6.015000000000001,-1.054,6.898,15.424,23.46,-2.539,4.934,14.849,-11.73,2.013,5.896,15.818,-87.977,5.865,23.46
6.0200000000000005,-1.389,6.946,14.226,11.73,-2.635,4.694,13.652,-5.865,2.157,5.752,14.524,-82.111,17.595,11.73
6.025,-1.581,6.85,13.22,5.865,-2.826,4.694,12.741,0.0,2.301,5.608,13.517,-70.381,29.326,5.865
6.03,-1.82,6.802,12.406,-0.0,-2.922,4.886,11.783,0.0,2.588,5.608,12.511,-52.786,41.056,5.865
6.035,-1.82,6.754,11.304,-0.0,-2.73,5.03,10.73,0.0,2.588,5.752,11.504,-41.056,46.921,0.0
6.04,-2.108,6.419,10.155,-0.0,-2.395,5.077,9.436,0.0,2.588,5.752,10.354,-29.326,58.651,0.0
6.045,-2.347,5.796,8.622,-0.0,-1.916,5.03,7.76,5.865,2.445,5.608,9.059,-17.595,64.516,0.0
6.05,-2.347,5.077,6.946,-0.0,-1.437,5.365,6.131,5.865,2.157,5.321,7.19,-5.865,64.516,0.0
6.055,-2.347,4.503,5.413,-5.865,-1.054,5.796,4.694,11.73,1.869,5.177,5.608,-5.865,64.516,-5.865
